"image"	"max_pumps"	"pump_loop.thisRepN"	"pump_loop.thisTrialN"	"pump_loop.thisN"	"pump_loop.thisIndex"	"thisRow.t"	"notes"	"Start.started"	"text_start.started"	"continue_start.started"	"mouse_start.started"	"Start.stopped"	"mouse_start.x"	"mouse_start.y"	"mouse_start.leftButton"	"mouse_start.midButton"	"mouse_start.rightButton"	"mouse_start.time"	"trials.started"	"stim_balloon.started"	"stim_balloon_burst.started"	"stim_balloon_burst.stopped"	"text_ballon_value.started"	"text_bank.started"	"mouse.started"	"sound_bang.started"	"sound_bang.stopped"	"button_balloon.started"	"trials.stopped"	"n_pumps"	"earnings"	"popped"	"mouse.x"	"mouse.y"	"mouse.leftButton"	"mouse.midButton"	"mouse.rightButton"	"mouse.time"	"button_balloon.numClicks"	"button_balloon.timesOn"	"button_balloon.timesOff"	"Feedback.started"	"text_feedback.started"	"Feedback.stopped"	"text_feedback.stopped"	"End.started"	"text_end.started"	"key_end.started"	"End.stopped"	"key_end.keys"	"key_end.rt"	"key_end.duration"	"participant"	"session"	"date"	"expName"	"psychopyVersion"	"frameRate"	"expStart"	"...61"
NA	NA	NA	NA	NA	NA	NA	NA	0.0400934000499547	0.0492362000513822	0.0492362000513822	0.0404213999863714	40.836073600105	"[0.6842592592592592]"	"[-0.4]"	"[1]"	"[0]"	"[0]"	"[40.795082599972375]"	NA	NA	NA	NA	NA	NA	NA	NA	NA	NA	NA	NA	NA	NA	NA	NA	NA	NA	NA	NA	NA	NA	NA	NA	NA	NA	NA	NA	NA	NA	NA	NA	NA	NA	22	"01"	"2024-02-14_15h04.55.183"	"BART_exp"	"2023.2.3"	119.943482759103	"2024-02-14 15h05.06.716293 +0100"	NA
"balloon.png"	27	0	0	0	6	40.9104532001074	NA	NA	NA	NA	NA	NA	NA	NA	NA	NA	NA	NA	40.8438837000867	40.9104532001074	40.9104532001074	40.9104532001074	40.9104532001074	40.9104532001074	0.00954840006306767	0.00954840006306767	0.00954840006306767	40.9104532001074	52.5548404000001	28	1.35	TRUE	"[0.032407407407407406, 0.032407407407407406, 0.032407407407407406, 0.032407407407407406, 0.032407407407407406, 0.032407407407407406, 0.032407407407407406, 0.032407407407407406, 0.032407407407407406, 0.032407407407407406, 0.032407407407407406, 0.032407407407407406, 0.032407407407407406, 0.032407407407407406, 0.032407407407407406, 0.032407407407407406, 0.032407407407407406, 0.032407407407407406, 0.032407407407407406, 0.032407407407407406, 0.032407407407407406, 0.032407407407407406, 0.032407407407407406, 0.032407407407407406, 0.032407407407407406, 0.032407407407407406, 0.032407407407407406, 0.032407407407407406]"	"[-0.35833333333333334, -0.35833333333333334, -0.35833333333333334, -0.35833333333333334, -0.35833333333333334, -0.35833333333333334, -0.35833333333333334, -0.35833333333333334, -0.35833333333333334, -0.35833333333333334, -0.35833333333333334, -0.35833333333333334, -0.35833333333333334, -0.35833333333333334, -0.35833333333333334, -0.35833333333333334, -0.35833333333333334, -0.35833333333333334, -0.35833333333333334, -0.35833333333333334, -0.35833333333333334, -0.35833333333333334, -0.35833333333333334, -0.35833333333333334, -0.35833333333333334, -0.35833333333333334, -0.35833333333333334, -0.35833333333333334]"	"[1, 1, 1, 1, 1, 1, 1, 1, 1, 1, 1, 1, 1, 1, 1, 1, 1, 1, 1, 1, 1, 1, 1, 1, 1, 1, 1, 1]"	"[0, 0, 0, 0, 0, 0, 0, 0, 0, 0, 0, 0, 0, 0, 0, 0, 0, 0, 0, 0, 0, 0, 0, 0, 0, 0, 0, 0]"	"[0, 0, 0, 0, 0, 0, 0, 0, 0, 0, 0, 0, 0, 0, 0, 0, 0, 0, 0, 0, 0, 0, 0, 0, 0, 0, 0, 0]"	"[1.9175355000188574, 2.3924038000404835, 2.7340641000773758, 3.0675776000134647, 3.3924624000210315, 3.7092964000767097, 4.067651299992576, 4.442675100057386, 4.77588840003591, 5.1010805000551045, 5.400894400081597, 5.692752300063148, 5.992602900019847, 6.350975100067444, 6.742680500028655, 7.1095750000094995, 7.526064700097777, 7.842902300064452, 8.201157800038345, 8.509610900073312, 9.40970180009026, 9.717948300065473, 10.03472110000439, 10.32625760009978, 10.626402400084771, 10.926345000043511, 11.284862200031057, 11.609875000081956]"	28	"[1.865716899977997, 2.340581399970688, 2.682240800000727, 3.015758999972604, 3.3406387000577524, 3.657477100030519, 4.015826000017114, 4.390850399970077, 4.724067399976775, 5.049266100046225, 5.349071700009517, 5.640930800000206, 5.940786199993454, 6.29915350000374, 6.690858199959621, 7.057757999980822, 7.474244200042449, 7.791081000003032, 8.149337699986063, 8.45778739999514, 9.357875399990007, 9.666128700016998, 9.982903099968098, 10.274432000005618, 10.574582100030966, 10.874518899945542, 11.233039399958216, 11.558054100023583]"	"[1.9404985000146553, 2.4071630999678746, 2.757106599980034, 3.1154626000206918, 3.415457700029947, 3.7407100000418723, 4.098868199973367, 4.46552970004268, 4.807248999946751, 5.132251500035636, 5.407282199943438, 5.707290500053205, 6.023961900034919, 6.374085500021465, 6.757352699991316, 7.1324063000502065, 7.549114800058305, 7.882436700048856, 8.21584720001556, 8.52417750004679, 9.432699700002559, 9.749390200013295, 10.074303700006567, 10.340939400019124, 10.66597610001918, 10.957758100004867, 11.316038200049661, 11.64939349994529]"	52.5564219000516	52.569604700082	54.0614463000093	NA	NA	NA	NA	NA	NA	NA	NA	22	"01"	"2024-02-14_15h04.55.183"	"BART_exp"	"2023.2.3"	119.943482759103	"2024-02-14 15h05.06.716293 +0100"	NA
"balloon.png"	49	0	1	1	11	54.0780530000338	NA	NA	NA	NA	NA	NA	NA	NA	NA	NA	NA	NA	54.0616216000635	54.0780530000338	54.0780530000338	54.0780530000338	54.0780530000338	54.0780530000338	0.00648139999248087	0.00648139999248087	0.00648139999248087	54.0780530000338	59.4049649999943	20	1	FALSE	"[0.025, 0.025, 0.025, 0.025, 0.025, 0.025, 0.025, 0.025, 0.025, 0.025, 0.025, 0.025, 0.025, 0.025, 0.025, 0.025, 0.025, 0.025, 0.025, 0.025, 0.025]"	"[-0.3787037037037037, -0.3787037037037037, -0.3787037037037037, -0.3787037037037037, -0.3787037037037037, -0.3787037037037037, -0.3787037037037037, -0.3787037037037037, -0.3787037037037037, -0.3787037037037037, -0.3787037037037037, -0.3787037037037037, -0.3787037037037037, -0.3787037037037037, -0.3787037037037037, -0.3787037037037037, -0.3787037037037037, -0.3787037037037037, -0.3787037037037037, -0.3787037037037037, -0.3787037037037037]"	"[1, 1, 1, 1, 1, 1, 1, 1, 1, 1, 1, 1, 1, 1, 1, 1, 1, 1, 1, 1, 0]"	"[0, 0, 0, 0, 0, 0, 0, 0, 0, 0, 0, 0, 0, 0, 0, 0, 0, 0, 0, 0, 0]"	"[0, 0, 0, 0, 0, 0, 0, 0, 0, 0, 0, 0, 0, 0, 0, 0, 0, 0, 0, 0, 1]"	"[0.5922542000189424, 0.9171331999823451, 1.0922564000356942, 1.2590021999785677, 1.450720899971202, 1.6257267999462783, 1.7924527999712154, 1.9755444000475109, 2.2173918000189587, 2.4006080999970436, 2.6590870999498293, 3.0674462999450043, 3.2424545000540093, 3.400790599989705, 3.575839399942197, 3.942389599978924, 4.092411200050265, 4.475889599998482, 4.725812599994242, 5.000949900015257, 5.342432699981146]"	21	"[0.5883929999545217, 0.9132766999537125, 1.0883946999674663, 1.2551417999202386, 1.4468639999395236, 1.621862499974668, 1.788587599992752, 1.9716809999663383, 2.213526099920273, 2.3967456999234855, 2.6552264998899773, 3.0635921999346465, 3.2385945999994874, 3.396923699998297, 3.5719754999736324, 3.938524799887091, 4.088543399935588, 4.472023399895988, 4.721943899989128, 4.997080799890682, 5.338502899976447]"	"[0.6547461999580264, 0.9797969999490306, 1.1631550999591127, 1.3466043999651447, 1.5298313999082893, 1.69651169993449, 1.8715256999712437, 2.03820949990768, 2.2798741998849437, 2.4715645998949185, 2.713223799946718, 3.138265599962324, 3.304954099934548, 3.4633073998847976, 3.655001899925992, 3.996685199905187, 4.171715799951926, 4.538394499919377, 4.796712999930605, 5.071833899943158, 5.338507099892013]"	59.4059339000378	59.4200000000419	60.9118921000045	NA	NA	NA	NA	NA	NA	NA	NA	22	"01"	"2024-02-14_15h04.55.183"	"BART_exp"	"2023.2.3"	119.943482759103	"2024-02-14 15h05.06.716293 +0100"	NA
"balloon.png"	10	0	2	2	2	60.9285250999965	NA	NA	NA	NA	NA	NA	NA	NA	NA	NA	NA	NA	60.9120686000679	60.9285250999965	60.9285250999965	60.9285250999965	60.9285250999965	60.9285250999965	0.0073401000117883	0.0073401000117883	0.0073401000117883	60.9285250999965	64.2307779000839	11	0.5	TRUE	"[0.018518518518518517, 0.017592592592592594, 0.017592592592592594, 0.017592592592592594, 0.017592592592592594, 0.017592592592592594, 0.017592592592592594, 0.017592592592592594, 0.017592592592592594, 0.017592592592592594, 0.017592592592592594]"	"[-0.3925925925925926, -0.3925925925925926, -0.3925925925925926, -0.3925925925925926, -0.3925925925925926, -0.3925925925925926, -0.3925925925925926, -0.3925925925925926, -0.3925925925925926, -0.3925925925925926, -0.3925925925925926]"	"[1, 1, 1, 1, 1, 1, 1, 1, 1, 1, 1]"	"[0, 0, 0, 0, 0, 0, 0, 0, 0, 0, 0]"	"[0, 0, 0, 0, 0, 0, 0, 0, 0, 0, 0]"	"[0.708832300035283, 1.0588671999284998, 1.3172423000214621, 1.5423579999478534, 1.8090782000217587, 2.0590267999796197, 2.309126100037247, 2.542538399924524, 2.734191399998963, 2.9842130999313667, 3.217519599944353]"	11	"[0.7053900000173599, 1.0554250000277534, 1.3138043000362813, 1.5389182000653818, 1.8056430000578985, 2.055585400084965, 2.3056908000726253, 2.5391019000671804, 2.7307539000175893, 2.980778400087729, 3.214083900093101]"	"[0.7552372000645846, 1.1219447000185028, 1.3804381000809371, 1.6219597000163049, 1.871993500040844, 2.1220923999790102, 2.363692600047216, 2.61381380003877, 2.8303741000127047, 3.0637471000663936, 3.305430200067349]"	64.2315424000844	64.2371115999995	65.729060200043	65.7371919000288	NA	NA	NA	NA	NA	NA	NA	22	"01"	"2024-02-14_15h04.55.183"	"BART_exp"	"2023.2.3"	119.943482759103	"2024-02-14 15h05.06.716293 +0100"	NA
"balloon.png"	40	0	3	3	9	65.7371919000288	NA	NA	NA	NA	NA	NA	NA	NA	NA	NA	NA	NA	65.7292361001018	65.7371919000288	65.7371919000288	65.7371919000288	65.7371919000288	65.7371919000288	0.00570700003299862	NA	NA	65.7371919000288	71.4642872000113	20	1	FALSE	"[0.016666666666666666, 0.016666666666666666, 0.016666666666666666, 0.016666666666666666, 0.016666666666666666, 0.016666666666666666, 0.016666666666666666, 0.016666666666666666, 0.016666666666666666, 0.016666666666666666, 0.016666666666666666, 0.016666666666666666, 0.016666666666666666, 0.016666666666666666, 0.016666666666666666, 0.016666666666666666, 0.016666666666666666, 0.016666666666666666, 0.016666666666666666, 0.016666666666666666, 0.016666666666666666]"	"[-0.3925925925925926, -0.3925925925925926, -0.3925925925925926, -0.3925925925925926, -0.3925925925925926, -0.3925925925925926, -0.3925925925925926, -0.3925925925925926, -0.3925925925925926, -0.3925925925925926, -0.3925925925925926, -0.3925925925925926, -0.3925925925925926, -0.3925925925925926, -0.3925925925925926, -0.3925925925925926, -0.3925925925925926, -0.3925925925925926, -0.3925925925925926, -0.3925925925925926, -0.3925925925925926]"	"[1, 1, 1, 1, 1, 1, 1, 1, 1, 1, 1, 1, 1, 1, 1, 1, 1, 1, 1, 1, 0]"	"[0, 0, 0, 0, 0, 0, 0, 0, 0, 0, 0, 0, 0, 0, 0, 0, 0, 0, 0, 0, 0]"	"[0, 0, 0, 0, 0, 0, 0, 0, 0, 0, 0, 0, 0, 0, 0, 0, 0, 0, 0, 0, 1]"	"[0.47529420000500977, 0.7171256999718025, 0.9171271999366581, 1.1172276999568567, 1.3172224999871105, 1.7672165000112727, 2.0087941999081522, 2.192135499906726, 2.3755948999896646, 2.5506936999736354, 2.71725509990938, 2.9091217999812216, 3.2338230999885127, 3.4838203999679536, 3.658861199975945, 3.892383400001563, 4.1509054999332875, 4.483925099950284, 4.992458499968052, 5.192311999970116, 5.7341284999856725]"	21	"[0.4734367000637576, 0.715269000036642, 0.9152637000661343, 1.1153650999767706, 1.3153657000511885, 1.7653578000608832, 2.006933300057426, 2.1902789000887424, 2.373738200054504, 2.5488308999920264, 2.715394400060177, 2.9072683000704274, 3.2319658000487834, 3.481958999997005, 3.6569968999829143, 3.8905273000709713, 4.149045100086369, 4.482068800018169, 4.990605000057258, 5.190449199988507, 5.732200200087391]"	"[0.5232832999899983, 0.7733341000275686, 0.9900283000897616, 1.2066650000633672, 1.3983486000215635, 1.8233812000835314, 2.090076700085774, 2.2734152000630274, 2.431753500015475, 2.598535199998878, 2.7818004000000656, 2.990123499999754, 3.2901414000662044, 3.531809200067073, 3.706908200052567, 3.973529800074175, 4.21522290003486, 4.548553300090134, 5.056930500082672, 5.281961800064892, 5.732204300002195]"	71.4652158000972	71.4709320000838	72.962931200047	72.9710558000952	NA	NA	NA	NA	NA	NA	NA	22	"01"	"2024-02-14_15h04.55.183"	"BART_exp"	"2023.2.3"	119.943482759103	"2024-02-14 15h05.06.716293 +0100"	NA
"balloon.png"	36	0	4	4	8	72.9710558000952	NA	NA	NA	NA	NA	NA	NA	NA	NA	NA	NA	NA	72.9631133000366	72.9710558000952	72.9710558000952	72.9710558000952	72.9710558000952	72.9710558000952	-0.00087890005670487	-0.00087890005670487	-0.00087890005670487	72.9710558000952	79.281514500035	20	1	FALSE	"[0.013888888888888888, 0.013888888888888888, 0.013888888888888888, 0.013888888888888888, 0.013888888888888888, 0.013888888888888888, 0.013888888888888888, 0.013888888888888888, 0.013888888888888888, 0.013888888888888888, 0.013888888888888888, 0.013888888888888888, 0.013888888888888888, 0.013888888888888888, 0.013888888888888888, 0.013888888888888888, 0.013888888888888888, 0.013888888888888888, 0.013888888888888888, 0.013888888888888888, 0.013888888888888888]"	"[-0.39537037037037037, -0.39537037037037037, -0.39537037037037037, -0.39537037037037037, -0.39537037037037037, -0.39537037037037037, -0.39537037037037037, -0.39537037037037037, -0.39537037037037037, -0.39537037037037037, -0.39537037037037037, -0.39537037037037037, -0.39537037037037037, -0.39537037037037037, -0.39537037037037037, -0.39537037037037037, -0.39537037037037037, -0.39537037037037037, -0.39537037037037037, -0.39537037037037037, -0.39537037037037037]"	"[1, 1, 1, 1, 1, 1, 1, 1, 1, 1, 1, 1, 1, 1, 1, 1, 1, 1, 1, 1, 0]"	"[0, 0, 0, 0, 0, 0, 0, 0, 0, 0, 0, 0, 0, 0, 0, 0, 0, 0, 0, 0, 0]"	"[0, 0, 0, 0, 0, 0, 0, 0, 0, 0, 0, 0, 0, 0, 0, 0, 0, 0, 0, 0, 1]"	"[0.600288899964653, 0.8336140000028536, 1.0253003999823704, 1.2169848999474198, 1.4337499999674037, 1.783691699965857, 1.9422250000061467, 2.092236900003627, 2.2755640000104904, 2.883949299925007, 3.050571099971421, 3.2506207999540493, 3.434020199929364, 3.6338552000233904, 3.808834300027229, 4.4758090999675915, 4.97563210001681, 5.2172690000152215, 5.583965400001034, 5.86754160001874, 6.317489999928512]"	21	"[0.5981357999844477, 0.8314522000728175, 1.0231404000660405, 1.2148260000394657, 1.4315973999910057, 1.7815320000518113, 1.9400706000160426, 2.0900829000165686, 2.2734096000203863, 2.8817994999699295, 3.04841310007032, 3.248467299970798, 3.431866000057198, 3.631699900026433, 3.806675500003621, 4.473651700071059, 4.973477600025944, 5.215113100013696, 5.5818070999812335, 5.86538199998904, 6.315265999990515]"	"[0.6479749999707565, 0.889675399987027, 1.1146781999850646, 1.2813330000499263, 1.4814292000373825, 1.8314198000589386, 2.0147497999714687, 2.1733180000446737, 2.3480926000047475, 2.9648187999846414, 3.1398483000230044, 3.3231590000214055, 3.514907700009644, 3.681534399976954, 3.8731986000202596, 4.539922000025399, 5.048296399996616, 5.298548600054346, 5.648355499957688, 5.940026400028728, 6.315269900020212]"	79.2825146000832	79.2881464000093	80.7801310000941	80.7966593001038	NA	NA	NA	NA	NA	NA	NA	22	"01"	"2024-02-14_15h04.55.183"	"BART_exp"	"2023.2.3"	119.943482759103	"2024-02-14 15h05.06.716293 +0100"	NA
"balloon.png"	53	0	5	5	12	80.7966593001038	NA	NA	NA	NA	NA	NA	NA	NA	NA	NA	NA	NA	80.780306300032	80.7966593001038	80.7966593001038	80.7966593001038	80.7966593001038	80.7966593001038	-0.00097389996517449	-0.00097389996517449	-0.00097389996517449	80.7966593001038	87.4487466000719	20	1	FALSE	"[0.013888888888888888, 0.013888888888888888, 0.013888888888888888, 0.013888888888888888, 0.013888888888888888, 0.013888888888888888, 0.013888888888888888, 0.013888888888888888, 0.013888888888888888, 0.013888888888888888, 0.013888888888888888, 0.013888888888888888, 0.013888888888888888, 0.013888888888888888, 0.013888888888888888, 0.013888888888888888, 0.013888888888888888, 0.013888888888888888, 0.013888888888888888, 0.013888888888888888, 0.013888888888888888]"	"[-0.39537037037037037, -0.39537037037037037, -0.39537037037037037, -0.39537037037037037, -0.39537037037037037, -0.39537037037037037, -0.39537037037037037, -0.39537037037037037, -0.39537037037037037, -0.39537037037037037, -0.39537037037037037, -0.39537037037037037, -0.39537037037037037, -0.39537037037037037, -0.3962962962962963, -0.3972222222222222, -0.3972222222222222, -0.3972222222222222, -0.3972222222222222, -0.3972222222222222, -0.3972222222222222]"	"[1, 1, 1, 1, 1, 1, 1, 1, 1, 1, 1, 1, 1, 1, 1, 1, 1, 1, 1, 1, 0]"	"[0, 0, 0, 0, 0, 0, 0, 0, 0, 0, 0, 0, 0, 0, 0, 0, 0, 0, 0, 0, 0]"	"[0, 0, 0, 0, 0, 0, 0, 0, 0, 0, 0, 0, 0, 0, 0, 0, 0, 0, 0, 0, 1]"	"[0.7088256999850273, 1.1836672000354156, 1.517219000030309, 1.7920551999704912, 2.033866100013256, 2.275582000031136, 2.492247899994254, 2.717251199996099, 2.942136900033802, 3.1421352999750525, 3.383812600048259, 3.7588423000415787, 4.350553600001149, 4.54222059994936, 4.709142399951816, 4.867445299983956, 5.0341915000462905, 5.459175299969502, 5.800736599951051, 6.117350799962878, 6.667513399966992]"	21	"[0.7032156999921426, 1.1780492999823764, 1.5116014999803156, 1.7864409000612795, 2.028251599986106, 2.269969900022261, 2.486628400045447, 2.7116607000352815, 2.9365186999784783, 3.1365169000346214, 3.378194999997504, 3.7532256999984384, 4.344934200053103, 4.536597199970856, 4.703523400006816, 4.8618378000101075, 5.028579100035131, 5.45356339996215, 5.7868532000575215, 6.111732000019401, 6.6618331000208855]"	"[0.761211600038223, 1.2362934000557289, 1.5695885999593884, 1.8529346999712288, 2.111376699991524, 2.344652400002815, 2.5781847999896854, 2.794705900014378, 3.0113545999629423, 3.2447050999617204, 3.4530579999554902, 3.844857900054194, 4.403177300002426, 4.586496799951419, 4.778179900022224, 4.928281800006516, 5.086566300014965, 5.519880300038494, 5.8448955999920145, 6.178320499951951, 6.661837200052105]"	87.4497528000502	87.4553846000927	88.947349300026	88.9555337000638	NA	NA	NA	NA	NA	NA	NA	22	"01"	"2024-02-14_15h04.55.183"	"BART_exp"	"2023.2.3"	119.943482759103	"2024-02-14 15h05.06.716293 +0100"	NA
"balloon.png"	118	0	6	6	27	88.9555337000638	NA	NA	NA	NA	NA	NA	NA	NA	NA	NA	NA	NA	88.9475265000947	88.9555337000638	88.9555337000638	88.9555337000638	88.9555337000638	88.9555337000638	0.00584180001169443	0.00584180001169443	0.00584180001169443	88.9555337000638	96.6661164000398	27	1.35	FALSE	"[0.013888888888888888, 0.013888888888888888, 0.013888888888888888, 0.013888888888888888, 0.013888888888888888, 0.013888888888888888, 0.013888888888888888, 0.013888888888888888, 0.013888888888888888, 0.013888888888888888, 0.013888888888888888, 0.013888888888888888, 0.013888888888888888, 0.013888888888888888, 0.013888888888888888, 0.013888888888888888, 0.013888888888888888, 0.013888888888888888, 0.013888888888888888, 0.013888888888888888, 0.013888888888888888, 0.013888888888888888, 0.013888888888888888, 0.013888888888888888, 0.013888888888888888, 0.013888888888888888, 0.013888888888888888, 0.012962962962962963]"	"[-0.3972222222222222, -0.3972222222222222, -0.3972222222222222, -0.3972222222222222, -0.3972222222222222, -0.3972222222222222, -0.3972222222222222, -0.3972222222222222, -0.3972222222222222, -0.3972222222222222, -0.3972222222222222, -0.3972222222222222, -0.3972222222222222, -0.3972222222222222, -0.3972222222222222, -0.3972222222222222, -0.3972222222222222, -0.3972222222222222, -0.3972222222222222, -0.3972222222222222, -0.3972222222222222, -0.3972222222222222, -0.3972222222222222, -0.3972222222222222, -0.3972222222222222, -0.3972222222222222, -0.3972222222222222, -0.39814814814814814]"	"[1, 1, 1, 1, 1, 1, 1, 1, 1, 1, 1, 1, 1, 1, 1, 1, 1, 1, 1, 1, 1, 1, 1, 1, 1, 1, 1, 0]"	"[0, 0, 0, 0, 0, 0, 0, 0, 0, 0, 0, 0, 0, 0, 0, 0, 0, 0, 0, 0, 0, 0, 0, 0, 0, 0, 0, 0]"	"[0, 0, 0, 0, 0, 0, 0, 0, 0, 0, 0, 0, 0, 0, 0, 0, 0, 0, 0, 0, 0, 0, 0, 0, 0, 0, 0, 1]"	"[0.6504960999591276, 0.9338854999514297, 1.1920538999838755, 1.4170604000100866, 1.6339567999821156, 1.8589230999350548, 2.0590255999704823, 2.2923662000102922, 2.5089625000255182, 2.7090131000149995, 2.9173295999644324, 3.134170199977234, 3.3671961999498308, 3.608883099979721, 3.8676108999643475, 4.092429499956779, 4.317462599952705, 4.550691199954599, 4.975662100012414, 5.234144499991089, 5.567361599998549, 5.842594499932602, 6.034053799929097, 6.217510299989954, 6.409127999912016, 6.825933399959467, 7.025911399978213, 7.717677899985574]"	28	"[0.6486927999649197, 0.9320733000058681, 1.1902382000116631, 1.4152462999336421, 1.6321482999483123, 1.8571134000085294, 2.0572204999625683, 2.290565099916421, 2.507153099984862, 2.707203399972059, 2.9155218999367207, 3.132392199942842, 3.365383299998939, 3.6070778999710456, 3.8658004999160767, 4.090617700014263, 4.315655499929562, 4.548884799936786, 4.973852499970235, 5.232336399960332, 5.565554499975406, 5.840781999984756, 6.023970199981704, 6.215704699978232, 6.407314399955794, 6.824120000004768, 7.024097600020468, 7.715807799948379]"	"[0.7234120999928564, 0.9984013999346644, 1.2567615999141708, 1.5067903000162914, 1.715157900005579, 1.9234865999314934, 2.165154999936931, 2.3818314999807626, 2.5820785999530926, 2.790203099953942, 2.99858040001709, 3.2152241999283433, 3.4652478999923915, 3.7069491000147536, 3.948617700021714, 4.182066199951805, 4.407002999912947, 4.623769999947399, 5.023734999937005, 5.298707999987528, 5.632086199941114, 5.91544409992639, 6.098769899923354, 6.282122400007211, 6.482133699930273, 6.890485399984755, 7.107223799917847, 7.715811899979599]"	96.6672268999973	96.6727062000427	98.1648129000096	98.1895337000024	NA	NA	NA	NA	NA	NA	NA	22	"01"	"2024-02-14_15h04.55.183"	"BART_exp"	"2023.2.3"	119.943482759103	"2024-02-14 15h05.06.716293 +0100"	NA
"balloon.png"	97	0	7	7	22	98.1895337000024	NA	NA	NA	NA	NA	NA	NA	NA	NA	NA	NA	NA	98.1650334000588	98.1895337000024	98.1895337000024	98.1895337000024	98.1895337000024	98.1895337000024	-0.00081480003427714	-0.00081480003427714	-0.00081480003427714	98.1895337000024	104.874818100012	20	1	FALSE	"[0.011111111111111112, 0.011111111111111112, 0.011111111111111112, 0.011111111111111112, 0.011111111111111112, 0.011111111111111112, 0.011111111111111112, 0.011111111111111112, 0.011111111111111112, 0.011111111111111112, 0.011111111111111112, 0.011111111111111112, 0.011111111111111112, 0.011111111111111112, 0.011111111111111112, 0.011111111111111112, 0.011111111111111112, 0.011111111111111112, 0.011111111111111112, 0.011111111111111112, 0.011111111111111112]"	"[-0.39814814814814814, -0.39814814814814814, -0.39814814814814814, -0.39814814814814814, -0.39814814814814814, -0.39814814814814814, -0.39814814814814814, -0.39814814814814814, -0.39814814814814814, -0.39814814814814814, -0.39814814814814814, -0.39814814814814814, -0.39814814814814814, -0.39814814814814814, -0.39814814814814814, -0.39814814814814814, -0.39814814814814814, -0.39814814814814814, -0.39814814814814814, -0.39814814814814814, -0.39814814814814814]"	"[1, 1, 1, 1, 1, 1, 1, 1, 1, 1, 1, 1, 1, 1, 1, 1, 1, 1, 1, 1, 0]"	"[0, 0, 0, 0, 0, 0, 0, 0, 0, 0, 0, 0, 0, 0, 0, 0, 0, 0, 0, 0, 0]"	"[0, 0, 0, 0, 0, 0, 0, 0, 0, 0, 0, 0, 0, 0, 0, 0, 0, 0, 0, 0, 1]"	"[0.5750719000352547, 0.9251230999361724, 1.1834406999405473, 1.4015815999591723, 1.6084567999932915, 1.8420822999905795, 2.0753350999439135, 2.3169991000322625, 2.550238600000739, 2.8002203999785706, 3.0503909999970347, 3.3669142000144348, 4.283998099970631, 4.600388600025326, 4.833850999944843, 5.192048599943519, 5.500580199994147, 5.742073399946094, 6.083997100009583, 6.358787599951029, 6.70881380001083]"	21	"[0.5647689000470564, 0.9148196000605822, 1.1731355000520125, 1.3914397000335157, 1.5981528999982402, 1.8317804000107571, 2.06503690010868, 2.3067013000836596, 2.539939400041476, 2.7899201000109315, 3.0400949000613764, 3.3566081000026315, 4.273697099997662, 4.590083800023422, 4.823551200097427, 5.1817440000595525, 5.490286200074479, 5.731765300035477, 6.073700200067833, 6.348481800057925, 6.6984447001013905]"	"[0.6314481000881642, 0.9896910000825301, 1.2646527000470087, 1.4813925001071766, 1.6896907000336796, 1.931395300081931, 2.1730500000994653, 2.3897144000511616, 2.6397423000307754, 2.889770800014958, 3.148167600040324, 3.4231366000603884, 4.364981900085695, 4.6565560000017285, 4.914910300052725, 5.24827360000927, 5.564988500089385, 5.815061500063166, 6.156664300011471, 6.415019900072366, 6.6984490000177175]"	104.875747600105	104.881612000056	106.373607400106	106.381722300081	NA	NA	NA	NA	NA	NA	NA	22	"01"	"2024-02-14_15h04.55.183"	"BART_exp"	"2023.2.3"	119.943482759103	"2024-02-14 15h05.06.716293 +0100"	NA
"balloon.png"	101	0	8	8	23	106.381722300081	NA	NA	NA	NA	NA	NA	NA	NA	NA	NA	NA	NA	106.373783000046	106.381722300081	106.381722300081	106.381722300081	106.381722300081	106.381722300081	-0.00072240002918988	-0.00072240002918988	-0.00072240002918988	106.381722300081	112.341967900051	20	1	FALSE	"[0.010185185185185186, 0.010185185185185186, 0.010185185185185186, 0.010185185185185186, 0.010185185185185186, 0.010185185185185186, 0.010185185185185186, 0.010185185185185186, 0.010185185185185186, 0.010185185185185186, 0.010185185185185186, 0.010185185185185186, 0.010185185185185186, 0.010185185185185186, 0.010185185185185186, 0.010185185185185186, 0.010185185185185186, 0.010185185185185186, 0.010185185185185186, 0.010185185185185186, 0.010185185185185186]"	"[-0.39814814814814814, -0.39814814814814814, -0.39814814814814814, -0.39814814814814814, -0.39814814814814814, -0.39814814814814814, -0.39814814814814814, -0.39814814814814814, -0.39814814814814814, -0.39814814814814814, -0.39814814814814814, -0.39814814814814814, -0.39814814814814814, -0.39814814814814814, -0.39814814814814814, -0.39814814814814814, -0.39814814814814814, -0.39814814814814814, -0.39814814814814814, -0.39814814814814814, -0.39814814814814814]"	"[1, 1, 1, 1, 1, 1, 1, 1, 1, 1, 1, 1, 1, 1, 1, 1, 1, 1, 1, 1, 0]"	"[0, 0, 0, 0, 0, 0, 0, 0, 0, 0, 0, 0, 0, 0, 0, 0, 0, 0, 0, 0, 0]"	"[0, 0, 0, 0, 0, 0, 0, 0, 0, 0, 0, 0, 0, 0, 0, 0, 0, 0, 0, 0, 1]"	"[0.38372689997777343, 0.6755608000094071, 0.9419521000236273, 1.2504753000102937, 1.4672796999802813, 1.675671000033617, 1.8672374000307173, 2.067185200052336, 2.2672213000478223, 2.4672331999754533, 2.6672385999700055, 2.859043800039217, 3.0506000999594107, 3.275649999966845, 3.475738800014369, 3.825691999983974, 4.05901059997268, 4.350518599967472, 4.60909449995961, 5.0507438000058755, 5.9672681000083685]"	21	"[0.3816585000604391, 0.6734870000509545, 0.9398694999981672, 1.2483983000274748, 1.4652096000500023, 1.6735935000469908, 1.8651534999953583, 2.0651233000680804, 2.265142200049013, 2.465150300064124, 2.6651582000777125, 2.8569763000123203, 3.048520400072448, 3.2735708000836894, 3.473666400066577, 3.82361360010691, 4.056929600075819, 4.348435900057666, 4.6070150000741705, 5.048667600029148, 5.965120900073089]"	"[0.45658120000734925, 0.7564216000027955, 1.0063964000437409, 1.3064536000601947, 1.5397520000115037, 1.7564565000357106, 1.939800800057128, 2.1400317000225186, 2.339822500012815, 2.548273100052029, 2.7399282000260428, 2.939946400001645, 3.1482156000565737, 3.3566013000672683, 3.5484407000476494, 3.8899323000805452, 4.139948600088246, 4.398321900051087, 4.681655300082639, 5.124824700062163, 5.96512510010507]"	112.342877100105	112.348810700001	113.840920200106	113.857249399996	NA	NA	NA	NA	NA	NA	NA	22	"01"	"2024-02-14_15h04.55.183"	"BART_exp"	"2023.2.3"	119.943482759103	"2024-02-14 15h05.06.716293 +0100"	NA
"balloon.png"	92	0	9	9	21	113.857249399996	NA	NA	NA	NA	NA	NA	NA	NA	NA	NA	NA	NA	113.841119599994	113.857249399996	113.857249399996	113.857249399996	113.857249399996	113.857249399996	-0.00050640001427382	-0.00050640001427382	-0.00050640001427382	113.857249399996	120.684317200095	30	1.5	FALSE	"[0.010185185185185186, 0.010185185185185186, 0.010185185185185186, 0.010185185185185186, 0.010185185185185186, 0.010185185185185186, 0.010185185185185186, 0.010185185185185186, 0.010185185185185186, 0.010185185185185186, 0.010185185185185186, 0.010185185185185186, 0.010185185185185186, 0.010185185185185186, 0.010185185185185186, 0.010185185185185186, 0.010185185185185186, 0.010185185185185186, 0.010185185185185186, 0.010185185185185186, 0.010185185185185186, 0.010185185185185186, 0.010185185185185186, 0.010185185185185186, 0.010185185185185186, 0.010185185185185186, 0.010185185185185186, 0.010185185185185186, 0.010185185185185186, 0.010185185185185186, 0.010185185185185186]"	"[-0.39814814814814814, -0.39814814814814814, -0.39814814814814814, -0.39814814814814814, -0.39814814814814814, -0.39814814814814814, -0.39814814814814814, -0.39814814814814814, -0.39814814814814814, -0.39814814814814814, -0.39814814814814814, -0.39814814814814814, -0.39814814814814814, -0.39814814814814814, -0.39814814814814814, -0.39814814814814814, -0.39814814814814814, -0.39814814814814814, -0.39814814814814814, -0.39814814814814814, -0.39814814814814814, -0.39814814814814814, -0.39814814814814814, -0.39814814814814814, -0.39814814814814814, -0.39814814814814814, -0.39814814814814814, -0.39814814814814814, -0.39814814814814814, -0.39814814814814814, -0.39814814814814814]"	"[1, 1, 1, 1, 1, 1, 1, 1, 1, 1, 1, 1, 1, 1, 1, 1, 1, 1, 1, 1, 1, 1, 1, 1, 1, 1, 1, 1, 1, 1, 0]"	"[0, 0, 0, 0, 0, 0, 0, 0, 0, 0, 0, 0, 0, 0, 0, 0, 0, 0, 0, 0, 0, 0, 0, 0, 0, 0, 0, 0, 0, 0, 0]"	"[0, 0, 0, 0, 0, 0, 0, 0, 0, 0, 0, 0, 0, 0, 0, 0, 0, 0, 0, 0, 0, 0, 0, 0, 0, 0, 0, 0, 0, 0, 1]"	"[0.3503070999868214, 0.6003579000243917, 0.7836842000251636, 0.9753551000030711, 1.1504469000501558, 1.3420516999904066, 1.525346799986437, 1.8335580000421032, 1.9922567000612617, 2.1754126000450924, 2.333725900040008, 2.5003954999847338, 2.700488100061193, 2.9004441000288352, 3.100335899973288, 3.4170047000516206, 3.575507399975322, 3.7588471999624744, 3.9338982000481337, 4.100515600061044, 4.300373999984004, 4.492295700008981, 4.683732700068504, 4.967266699997708, 5.142303099972196, 5.317286900011823, 5.492252500029281, 5.792323600035161, 6.042165099992417, 6.309139400022104, 6.84225750004407]"	31	"[0.3455437000375241, 0.5955997999990359, 0.7789223999716341, 0.9705969999777153, 1.1456833999836817, 1.337291199946776, 1.5205854000523686, 1.8287971999961883, 1.9874928999925032, 2.170647499966435, 2.328960199956782, 2.495631800033152, 2.6957226999802515, 2.895680599962361, 3.0955668999813497, 3.412239099969156, 3.570746000041254, 3.7540816999971867, 3.929146399954334, 4.0957501999801025, 4.29561290005222, 4.487540500005707, 4.678966199979186, 4.962502200040035, 5.137538400013, 5.312535100034438, 5.487492199987173, 5.787559299962595, 6.037410299992189, 6.304378999979235, 6.837432699976489]"	"[0.4368771000299603, 0.6703041000291705, 0.8619939000345767, 1.0453445999883115, 1.2202495000092313, 1.4119268000358716, 1.603628100012429, 1.8786645999643952, 2.0786391999572515, 2.253678699955344, 2.4287454000441357, 2.5788502000505105, 2.7872655000537634, 2.9870479999808595, 3.178712400025688, 3.4872123999521136, 3.653797799954191, 3.8288244999712333, 4.0125031999778, 4.1871231000404805, 4.362130400026217, 4.570570799987763, 4.762210599961691, 5.053862800006755, 5.228874300024472, 5.412219600053504, 5.57889610005077, 5.862251200014725, 6.112334999954328, 6.387283600051887, 6.837437100009993]"	120.685435299994	120.69108810008	122.183028100058	122.199488200014	NA	NA	NA	NA	NA	NA	NA	22	"01"	"2024-02-14_15h04.55.183"	"BART_exp"	"2023.2.3"	119.943482759103	"2024-02-14 15h05.06.716293 +0100"	NA
"balloon.png"	66	0	10	10	15	122.199488200014	NA	NA	NA	NA	NA	NA	NA	NA	NA	NA	NA	NA	122.183208100032	122.199488200014	122.199488200014	122.199488200014	122.199488200014	122.199488200014	-0.00098970008548349	-0.00098970008548349	-0.00098970008548349	122.199488200014	127.509758800035	20	1	FALSE	"[0.009259259259259259, 0.009259259259259259, 0.009259259259259259, 0.009259259259259259, 0.009259259259259259, 0.009259259259259259, 0.009259259259259259, 0.009259259259259259, 0.009259259259259259, 0.009259259259259259, 0.009259259259259259, 0.009259259259259259, 0.009259259259259259, 0.009259259259259259, 0.009259259259259259, 0.009259259259259259, 0.009259259259259259, 0.009259259259259259, 0.009259259259259259, 0.009259259259259259, 0.009259259259259259]"	"[-0.39444444444444443, -0.39444444444444443, -0.39444444444444443, -0.39444444444444443, -0.39444444444444443, -0.39444444444444443, -0.39444444444444443, -0.39444444444444443, -0.39444444444444443, -0.39444444444444443, -0.39444444444444443, -0.39444444444444443, -0.39444444444444443, -0.39444444444444443, -0.39444444444444443, -0.39444444444444443, -0.39444444444444443, -0.39444444444444443, -0.39444444444444443, -0.39444444444444443, -0.39444444444444443]"	"[1, 1, 1, 1, 1, 1, 1, 1, 1, 1, 1, 1, 1, 1, 1, 1, 1, 1, 1, 1, 0]"	"[0, 0, 0, 0, 0, 0, 0, 0, 0, 0, 0, 0, 0, 0, 0, 0, 0, 0, 0, 0, 0]"	"[0, 0, 0, 0, 0, 0, 0, 0, 0, 0, 0, 0, 0, 0, 0, 0, 0, 0, 0, 0, 1]"	"[0.5336331001017243, 0.6753069000551477, 0.8588336000684649, 1.0338454000884667, 1.2090246001025662, 1.4005520000355318, 1.5921985000604764, 1.8587322999956086, 2.05055510008242, 2.2506166000384837, 2.4339753000531346, 2.6256014000391588, 2.842334800050594, 3.092304000048898, 3.325612800079398, 3.592339500086382, 3.867219700012356, 4.225719600101002, 4.758979700040072, 4.917405900079757, 5.325640300055966]"	21	"[0.5311230000806972, 0.67279330000747, 0.856316199991852, 1.0313266000011936, 1.2065076000289991, 1.398039699997753, 1.589685200015083, 1.8562117000110447, 2.0480387000134215, 2.248100000084378, 2.4314573999727145, 2.6230915000196546, 2.839823800022714, 3.0897835000650957, 3.3230949999997392, 3.5898300000699237, 3.864705700078048, 4.223209400079213, 4.756461100070737, 4.914885399979539, 5.32306189998053]"	"[0.5643518000142649, 0.7477288000518456, 0.9143333000829443, 1.1060043000616133, 1.2977078000549227, 1.481039399979636, 1.68107739998959, 1.9310926999896765, 2.131072200019844, 2.331101500079967, 2.514555800007656, 2.7061002000700682, 2.9144688000669703, 3.1561897000065073, 3.3728337000356987, 3.6645113000413403, 3.9395518000237644, 4.297889700043015, 4.806295200018212, 4.972937099984847, 5.3230662000132725]"	127.510738100042	127.516624200041	129.008494600072	129.024973600055	NA	NA	NA	NA	NA	NA	NA	22	"01"	"2024-02-14_15h04.55.183"	"BART_exp"	"2023.2.3"	119.943482759103	"2024-02-14 15h05.06.716293 +0100"	NA
"balloon.png"	62	0	11	11	14	129.024973600055	NA	NA	NA	NA	NA	NA	NA	NA	NA	NA	NA	NA	129.008675300051	129.024973600055	129.024973600055	129.024973600055	129.024973600055	129.024973600055	-0.00082459999248385	-0.00082459999248385	-0.00082459999248385	129.024973600055	134.901929500047	20	1	FALSE	"[0.009259259259259259, 0.009259259259259259, 0.009259259259259259, 0.009259259259259259, 0.009259259259259259, 0.009259259259259259, 0.009259259259259259, 0.009259259259259259, 0.009259259259259259, 0.009259259259259259, 0.009259259259259259, 0.009259259259259259, 0.009259259259259259, 0.009259259259259259, 0.009259259259259259, 0.009259259259259259, 0.009259259259259259, 0.009259259259259259, 0.009259259259259259, 0.009259259259259259, 0.009259259259259259]"	"[-0.39444444444444443, -0.39444444444444443, -0.39444444444444443, -0.39444444444444443, -0.39444444444444443, -0.39444444444444443, -0.39444444444444443, -0.39444444444444443, -0.39444444444444443, -0.39444444444444443, -0.39444444444444443, -0.39444444444444443, -0.39444444444444443, -0.39444444444444443, -0.39444444444444443, -0.39444444444444443, -0.39444444444444443, -0.39444444444444443, -0.39444444444444443, -0.39444444444444443, -0.39444444444444443]"	"[1, 1, 1, 1, 1, 1, 1, 1, 1, 1, 1, 1, 1, 1, 1, 1, 1, 1, 1, 1, 0]"	"[0, 0, 0, 0, 0, 0, 0, 0, 0, 0, 0, 0, 0, 0, 0, 0, 0, 0, 0, 0, 0]"	"[0, 0, 0, 0, 0, 0, 0, 0, 0, 0, 0, 0, 0, 0, 0, 0, 0, 0, 0, 0, 1]"	"[0.5005806999979541, 0.7588412999175489, 1.017176599940285, 1.2253808999666944, 1.4255726999836043, 1.6504135000286624, 1.9088999999221414, 2.1506344999652356, 2.4838961999630556, 2.7923249999294057, 3.0266746999695897, 3.2255523999920115, 3.39237559994217, 3.559102899977006, 3.7423924999311566, 3.909083899925463, 4.0922953999834135, 4.260045400005765, 4.4755899999290705, 5.08408739999868, 5.8923694000113755]"	21	"[0.49333670001942664, 0.7515873999800533, 1.0099233000073582, 1.218131999950856, 1.4183276999974623, 1.6431634000036865, 1.9016459999838844, 2.14339199999813, 2.4766482999548316, 2.7850783999310806, 3.019422100041993, 3.2183019999647513, 3.3851228000130504, 3.551858099992387, 3.7351476999465376, 3.9018364000367, 4.085054700030014, 4.252956700045615, 4.468336799996905, 5.076839299988933, 5.8850521999411285]"	"[0.551318799960427, 0.834620299981907, 1.0764530999585986, 1.2932271000463516, 1.4930643000407144, 1.7180426999693736, 1.9681355999782681, 2.2430473000276834, 2.5347330999793485, 2.8432763000018895, 3.101467499975115, 3.2848601000150666, 3.4764873000094667, 3.6349124000407755, 3.818152299965732, 3.993180899997242, 4.1766956000356, 4.359909799997695, 4.551591199939139, 5.1265864999732, 5.885056299972348]"	134.902893500053	134.908730100025	136.400697800098	136.417188500054	NA	NA	NA	NA	NA	NA	NA	22	"01"	"2024-02-14_15h04.55.183"	"BART_exp"	"2023.2.3"	119.943482759103	"2024-02-14 15h05.06.716293 +0100"	NA
"balloon.png"	123	0	12	12	28	136.417188500054	NA	NA	NA	NA	NA	NA	NA	NA	NA	NA	NA	NA	136.400881200098	136.417188500054	136.417188500054	136.417188500054	136.417188500054	136.417188500054	-0.000805199961178	-0.000805199961178	-0.000805199961178	136.417188500054	143.927758300095	30	1.5	FALSE	"[0.009259259259259259, 0.009259259259259259, 0.009259259259259259, 0.009259259259259259, 0.009259259259259259, 0.009259259259259259, 0.009259259259259259, 0.009259259259259259, 0.009259259259259259, 0.009259259259259259, 0.009259259259259259, 0.009259259259259259, 0.009259259259259259, 0.009259259259259259, 0.009259259259259259, 0.009259259259259259, 0.009259259259259259, 0.009259259259259259, 0.009259259259259259, 0.009259259259259259, 0.009259259259259259, 0.009259259259259259, 0.009259259259259259, 0.009259259259259259, 0.009259259259259259, 0.009259259259259259, 0.009259259259259259, 0.009259259259259259, 0.009259259259259259, 0.009259259259259259, 0.009259259259259259]"	"[-0.39444444444444443, -0.39444444444444443, -0.39444444444444443, -0.39444444444444443, -0.39444444444444443, -0.39444444444444443, -0.39444444444444443, -0.39444444444444443, -0.39444444444444443, -0.39444444444444443, -0.39444444444444443, -0.39444444444444443, -0.39444444444444443, -0.39444444444444443, -0.39444444444444443, -0.39444444444444443, -0.39444444444444443, -0.39444444444444443, -0.39444444444444443, -0.39444444444444443, -0.39444444444444443, -0.39444444444444443, -0.39444444444444443, -0.39444444444444443, -0.39444444444444443, -0.39444444444444443, -0.39444444444444443, -0.39444444444444443, -0.39444444444444443, -0.39444444444444443, -0.39444444444444443]"	"[1, 1, 1, 1, 1, 1, 1, 1, 1, 1, 1, 1, 1, 1, 1, 1, 1, 1, 1, 1, 1, 1, 1, 1, 1, 1, 1, 1, 1, 1, 0]"	"[0, 0, 0, 0, 0, 0, 0, 0, 0, 0, 0, 0, 0, 0, 0, 0, 0, 0, 0, 0, 0, 0, 0, 0, 0, 0, 0, 0, 0, 0, 0]"	"[0, 0, 0, 0, 0, 0, 0, 0, 0, 0, 0, 0, 0, 0, 0, 0, 0, 0, 0, 0, 0, 0, 0, 0, 0, 0, 0, 0, 0, 0, 1]"	"[0.9004769999301061, 1.1086882000090554, 1.2920552999712527, 1.4670696000102907, 1.6339156999019906, 1.8254124999511987, 2.0254678999772295, 2.2087780999718234, 2.4089864999987185, 2.600661600008607, 2.82548100000713, 3.0756031000055373, 3.283849500003271, 3.4755260999081656, 3.6588789999950677, 3.8672093999339268, 4.050555899972096, 4.242264500004239, 4.4339220999972895, 4.6256677999626845, 4.800661599962041, 4.984233899973333, 5.167480199947022, 5.434010999975726, 5.617425599950366, 5.809072999982163, 5.992581799975596, 6.259128400008194, 6.50933679996524, 6.884416499990039, 7.525975700002164]"	31	"[0.895331900101155, 1.1035390000324696, 1.2869060001103207, 1.4619245000649244, 1.6287809000350535, 1.8202678000088781, 2.0203218000242487, 2.203634800040163, 2.4038424000609666, 2.595516200060956, 2.8203383000800386, 3.0704570000525564, 3.2787008000304922, 3.4703781000571325, 3.6537350000580773, 3.8620649001095444, 4.0454121000366285, 4.237119100056589, 4.428773800027557, 4.6205187001032755, 4.795512100099586, 4.979087100015022, 5.1623391000321135, 5.428864900022745, 5.612279300112277, 5.803928000037558, 5.98743530001957, 6.2539839000673965, 6.504194000037387, 6.879276300081983, 7.5207685000495985]"	"[0.9533861000090837, 1.1700723000103608, 1.3450780001003295, 1.5284576000412926, 1.7117855000542477, 1.9118003000039607, 2.1119626000290737, 2.295152200036682, 2.4785204000072554, 2.6869820000138134, 2.903517600032501, 3.1452681000810117, 3.353575300076045, 3.5535707001108676, 3.7369523000670597, 3.9369638001080602, 4.137089100084268, 4.336981700034812, 4.528643100056797, 4.711987700080499, 4.887016100110486, 5.062020200071856, 5.245418400038034, 5.52041000011377, 5.695435600006022, 5.870384800015017, 6.070411700056866, 6.320480100112036, 6.587116100010462, 6.937134700012393, 7.520772600080818]"	143.928925600019	143.93436710001	145.426345700049	145.442830000073	NA	NA	NA	NA	NA	NA	NA	22	"01"	"2024-02-14_15h04.55.183"	"BART_exp"	"2023.2.3"	119.943482759103	"2024-02-14 15h05.06.716293 +0100"	NA
"balloon.png"	79	0	13	13	18	145.442830000073	NA	NA	NA	NA	NA	NA	NA	NA	NA	NA	NA	NA	145.426528900047	145.442830000073	145.442830000073	145.442830000073	145.442830000073	145.442830000073	0.0139679999556392	0.0139679999556392	0.0139679999556392	145.442830000073	154.786913000047	40	2	FALSE	"[0.009259259259259259, 0.009259259259259259, 0.009259259259259259, 0.009259259259259259, 0.009259259259259259, 0.009259259259259259, 0.009259259259259259, 0.009259259259259259, 0.009259259259259259, 0.009259259259259259, 0.009259259259259259, 0.009259259259259259, 0.009259259259259259, 0.009259259259259259, 0.009259259259259259, 0.009259259259259259, 0.009259259259259259, 0.009259259259259259, 0.009259259259259259, 0.009259259259259259, 0.009259259259259259, 0.009259259259259259, 0.009259259259259259, 0.009259259259259259, 0.009259259259259259, 0.009259259259259259, 0.009259259259259259, 0.009259259259259259, 0.009259259259259259, 0.009259259259259259, 0.009259259259259259, 0.009259259259259259, 0.009259259259259259, 0.009259259259259259, 0.009259259259259259, 0.009259259259259259, 0.009259259259259259, 0.009259259259259259, 0.009259259259259259, 0.009259259259259259, 0.009259259259259259]"	"[-0.39444444444444443, -0.39444444444444443, -0.39444444444444443, -0.39444444444444443, -0.39444444444444443, -0.39444444444444443, -0.39444444444444443, -0.39444444444444443, -0.39444444444444443, -0.39444444444444443, -0.39444444444444443, -0.39444444444444443, -0.39444444444444443, -0.39444444444444443, -0.39444444444444443, -0.39444444444444443, -0.39444444444444443, -0.39444444444444443, -0.39444444444444443, -0.39444444444444443, -0.39444444444444443, -0.39444444444444443, -0.39444444444444443, -0.39444444444444443, -0.39444444444444443, -0.39444444444444443, -0.39444444444444443, -0.39444444444444443, -0.39444444444444443, -0.39444444444444443, -0.39444444444444443, -0.39444444444444443, -0.39444444444444443, -0.39444444444444443, -0.39444444444444443, -0.39444444444444443, -0.39444444444444443, -0.39444444444444443, -0.39444444444444443, -0.39444444444444443, -0.39444444444444443]"	"[1, 1, 1, 1, 1, 1, 1, 1, 1, 1, 1, 1, 1, 1, 1, 1, 1, 1, 1, 1, 1, 1, 1, 1, 1, 1, 1, 1, 1, 1, 1, 1, 1, 1, 1, 1, 1, 1, 1, 1, 0]"	"[0, 0, 0, 0, 0, 0, 0, 0, 0, 0, 0, 0, 0, 0, 0, 0, 0, 0, 0, 0, 0, 0, 0, 0, 0, 0, 0, 0, 0, 0, 0, 0, 0, 0, 0, 0, 0, 0, 0, 0, 0]"	"[0, 0, 0, 0, 0, 0, 0, 0, 0, 0, 0, 0, 0, 0, 0, 0, 0, 0, 0, 0, 0, 0, 0, 0, 0, 0, 0, 0, 0, 0, 0, 0, 0, 0, 0, 0, 0, 0, 0, 0, 1]"	"[0.5919585999799892, 0.7587722999742255, 0.9421145999804139, 1.1006373999407515, 1.2837969999527559, 1.4754493999062106, 1.6587145999073982, 1.8503368999809027, 2.0420357999391854, 2.242045099963434, 2.4253888999810442, 2.6087295999750495, 2.8005130999954417, 2.9838120999047533, 3.150603099958971, 3.3256154999835417, 3.5006758999079466, 3.683999600005336, 3.8672861999366432, 4.035388299962506, 4.250639499980025, 4.417246099910699, 4.60062659997493, 4.775548599893227, 4.94242839992512, 5.175776299904101, 5.4174178999383, 5.709175399970263, 5.967488799942657, 6.159208899945952, 6.325847899890505, 6.4758616999024525, 6.642368400003761, 6.792569799930789, 7.267551900004037, 7.5674731999170035, 7.775779499905184, 8.050904199946672, 8.351000599912368, 8.86783259990625, 9.359444199944846]"	41	"[0.590019499999471, 0.7568285999586806, 0.9401698999572545, 1.0986971999518573, 1.2818499999120831, 1.4735006999690086, 1.656770100002177, 1.848391699953936, 2.0400920999236405, 2.240101999952458, 2.423438699916005, 2.6067789999069646, 2.7985717999981716, 2.9818706000223756, 3.148654899909161, 3.3236778000136837, 3.498732200008817, 3.682052499963902, 3.8653368999948725, 4.033605100004934, 4.2486891999142244, 4.415307099930942, 4.59867839992512, 4.773596499930136, 4.940481600002386, 5.173862199997529, 5.415473299915902, 5.707239700015634, 5.965554800000973, 6.157291800016537, 6.323906200006604, 6.473913999972865, 6.64042219996918, 6.79062200000044, 7.2656049999641255, 7.565525899990462, 7.773834899999201, 8.048957799910568, 8.349052499979734, 8.865890700020827, 9.357437399914488]"	"[0.6398706999607384, 0.8315128999529406, 1.0065230999607593, 1.1815843000076711, 1.3649438999127597, 1.5482363000046462, 1.7400179000105709, 1.931588999927044, 2.1316253999248147, 2.3149569999659434, 2.5066322999773547, 2.673411599942483, 2.881744100013748, 3.0567849000217393, 3.240035399910994, 3.415044599911198, 3.5900470999768004, 3.7817100000102073, 3.956730099976994, 4.123397699906491, 4.323455799953081, 4.506803099997342, 4.673479699995369, 4.848476300016046, 5.040165000013076, 5.281858799979091, 5.4985175000038, 5.781886799959466, 6.040212000021711, 6.231916400021873, 6.381920499959961, 6.548579299938865, 6.698616600013338, 6.848740999936126, 7.331973599968478, 7.623673799913377, 7.84033069992438, 8.11539479997009, 8.40712689992506, 8.932187699945644, 9.357441399944946]"	154.788454000023	154.801798300003	156.29363640002	NA	NA	NA	NA	NA	NA	NA	NA	22	"01"	"2024-02-14_15h04.55.183"	"BART_exp"	"2023.2.3"	119.943482759103	"2024-02-14 15h05.06.716293 +0100"	NA
"balloon.png"	23	0	14	14	5	156.318576700054	NA	NA	NA	NA	NA	NA	NA	NA	NA	NA	NA	NA	156.29382120003	156.318576700054	156.318576700054	156.318576700054	156.318576700054	156.318576700054	0.00663109996821731	0.00663109996821731	0.00663109996821731	156.318576700054	162.162594399997	24	1.15	TRUE	"[0.009259259259259259, 0.009259259259259259, 0.009259259259259259, 0.009259259259259259, 0.009259259259259259, 0.009259259259259259, 0.009259259259259259, 0.009259259259259259, 0.009259259259259259, 0.009259259259259259, 0.009259259259259259, 0.009259259259259259, 0.009259259259259259, 0.009259259259259259, 0.009259259259259259, 0.009259259259259259, 0.009259259259259259, 0.009259259259259259, 0.009259259259259259, 0.009259259259259259, 0.009259259259259259, 0.009259259259259259, 0.009259259259259259, 0.009259259259259259]"	"[-0.39444444444444443, -0.39444444444444443, -0.39444444444444443, -0.39444444444444443, -0.39444444444444443, -0.39444444444444443, -0.39444444444444443, -0.39444444444444443, -0.39444444444444443, -0.39444444444444443, -0.39444444444444443, -0.39444444444444443, -0.39444444444444443, -0.39444444444444443, -0.39444444444444443, -0.39444444444444443, -0.39444444444444443, -0.39444444444444443, -0.39444444444444443, -0.39444444444444443, -0.39444444444444443, -0.39444444444444443, -0.39444444444444443, -0.39444444444444443]"	"[1, 1, 1, 1, 1, 1, 1, 1, 1, 1, 1, 1, 1, 1, 1, 1, 1, 1, 1, 1, 1, 1, 1, 1]"	"[0, 0, 0, 0, 0, 0, 0, 0, 0, 0, 0, 0, 0, 0, 0, 0, 0, 0, 0, 0, 0, 0, 0, 0]"	"[0, 0, 0, 0, 0, 0, 0, 0, 0, 0, 0, 0, 0, 0, 0, 0, 0, 0, 0, 0, 0, 0, 0, 0]"	"[0.4256689000176266, 0.5755727000068873, 0.7587977000512183, 0.942293000058271, 1.1421363000990823, 1.3588740000268444, 1.692179000005126, 1.9255304000107571, 2.2342273000394925, 2.517419300042093, 2.825766200083308, 3.242458400083706, 3.4341195001034066, 3.6342550000408664, 3.859246400068514, 4.0758227000478655, 4.267516200081445, 4.46774530003313, 4.675724600092508, 4.875901200110093, 5.109078300069086, 5.459270000108518, 5.625995900016278, 5.792641000007279]"	24	"[0.41348079999443144, 0.5633937000529841, 0.7466012000804767, 0.9301018000114709, 1.1299472000682727, 1.3466808000812307, 1.6799828000366688, 1.9133353000506759, 2.2220434000482783, 2.5052389000775293, 2.8135732000228018, 3.2302683000452816, 3.421927700052038, 3.6220618000952527, 3.8470589000498876, 4.063627100083977, 4.255320700001903, 4.455549200065434, 4.663533800048754, 4.86370500002522, 5.096886200015433, 5.447072900016792, 5.613805000088178, 5.780453499988653]"	"[0.45616340008564293, 0.6297526999842376, 0.8215745000634342, 1.004770700004883, 1.2048204999882728, 1.4381518000736833, 1.7382966000586748, 1.988205400062725, 2.2800862999865785, 2.554948000004515, 2.8799167000688612, 3.288287500035949, 3.496651399997063, 3.7217239000601694, 3.9383956000674516, 4.138353300048038, 4.338363900082186, 4.538358599995263, 4.763365900027566, 4.946777500095777, 5.155066400067881, 5.505082600051537, 5.680129799991846, 5.846809200011194]"	162.163581600063	162.168979500071	163.660965800053	163.66908370005	NA	NA	NA	NA	NA	NA	NA	22	"01"	"2024-02-14_15h04.55.183"	"BART_exp"	"2023.2.3"	119.943482759103	"2024-02-14 15h05.06.716293 +0100"	NA
"balloon.png"	31	0	15	15	7	163.66908370005	NA	NA	NA	NA	NA	NA	NA	NA	NA	NA	NA	NA	163.661145100021	163.66908370005	163.66908370005	163.66908370005	163.66908370005	163.66908370005	0.00556139997206628	NA	NA	163.66908370005	170.621108300053	26	1.3	FALSE	"[0.009259259259259259, 0.009259259259259259, 0.008333333333333333, 0.008333333333333333, 0.008333333333333333, 0.008333333333333333, 0.008333333333333333, 0.008333333333333333, 0.008333333333333333, 0.008333333333333333, 0.008333333333333333, 0.008333333333333333, 0.008333333333333333, 0.008333333333333333, 0.008333333333333333, 0.008333333333333333, 0.008333333333333333, 0.008333333333333333, 0.008333333333333333, 0.008333333333333333, 0.008333333333333333, 0.008333333333333333, 0.008333333333333333, 0.008333333333333333, 0.008333333333333333, 0.008333333333333333, 0.008333333333333333]"	"[-0.39444444444444443, -0.39444444444444443, -0.39444444444444443, -0.39444444444444443, -0.39444444444444443, -0.39444444444444443, -0.39444444444444443, -0.39444444444444443, -0.39444444444444443, -0.39444444444444443, -0.39444444444444443, -0.39444444444444443, -0.39444444444444443, -0.39444444444444443, -0.39444444444444443, -0.39444444444444443, -0.39444444444444443, -0.39444444444444443, -0.39444444444444443, -0.39444444444444443, -0.39444444444444443, -0.39444444444444443, -0.39444444444444443, -0.39444444444444443, -0.39444444444444443, -0.39444444444444443, -0.39444444444444443]"	"[1, 1, 1, 1, 1, 1, 1, 1, 1, 1, 1, 1, 1, 1, 1, 1, 1, 1, 1, 1, 1, 1, 1, 1, 1, 1, 0]"	"[0, 0, 0, 0, 0, 0, 0, 0, 0, 0, 0, 0, 0, 0, 0, 0, 0, 0, 0, 0, 0, 0, 0, 0, 0, 0, 0]"	"[0, 0, 0, 0, 0, 0, 0, 0, 0, 0, 0, 0, 0, 0, 0, 0, 0, 0, 0, 0, 0, 0, 0, 0, 0, 0, 1]"	"[0.2838098000502214, 0.5752930999733508, 0.8338722999906167, 1.0505291000008583, 1.2755329000065103, 1.567058700020425, 1.8505523999920115, 2.0839096000418067, 2.275664700078778, 2.4506331000011414, 2.61726660002023, 2.785014000022784, 2.9755188000854105, 3.442340800072998, 3.609102400019765, 3.950569099979475, 4.275833999970928, 4.600738700013608, 5.100827799993567, 5.275796800036915, 5.55222449998837, 5.733998900046572, 5.884208800038323, 6.067504800041206, 6.242524400004186, 6.400833700085059, 6.959068300086074]"	27	"[0.2818822000408545, 0.5733621000545099, 0.8319438000908121, 1.0485987000865862, 1.2736034000990912, 1.56513330002781, 1.8486236000899225, 2.081979800015688, 2.2737356000579894, 2.448709800024517, 2.6153440000489354, 2.783250000094995, 2.9735870000440627, 3.4404089000308886, 3.607172999996692, 3.948643400100991, 4.273913500015624, 4.598806300084107, 5.0989116000710055, 5.273870600038208, 5.550459500052966, 5.732071400037967, 5.882280600024387, 6.065570100094192, 6.240597500000149, 6.398900400032289, 6.957072600023821]"	"[0.34822640009224415, 0.6482164000626653, 0.8899363999953493, 1.115120500093326, 1.3482668000506237, 1.614962900057435, 1.9233877999940887, 2.1650308000389487, 2.348335000104271, 2.5150374000659212, 2.6900712000206113, 2.865059700096026, 3.040069500100799, 3.5068216000217944, 3.6818037000484765, 4.006875100079924, 4.348472799989395, 4.681848400039598, 5.1735456000315025, 5.3735867000650615, 5.623564800014719, 5.798593000043184, 5.965305300080217, 6.131948900059797, 6.306962300091982, 6.473759700078517, 6.957076800055802]"	170.622136100079	170.627942400053	172.119863	172.136345800012	NA	NA	NA	NA	NA	NA	NA	22	"01"	"2024-02-14_15h04.55.183"	"BART_exp"	"2023.2.3"	119.943482759103	"2024-02-14 15h05.06.716293 +0100"	NA
"balloon.png"	57	0	16	16	13	172.136345800012	NA	NA	NA	NA	NA	NA	NA	NA	NA	NA	NA	NA	172.120044700103	172.136345800012	172.136345800012	172.136345800012	172.136345800012	172.136345800012	-0.00084270001389086	-0.00084270001389086	-0.00084270001389086	172.136345800012	177.630015300005	20	1	FALSE	"[0.008333333333333333, 0.008333333333333333, 0.008333333333333333, 0.008333333333333333, 0.008333333333333333, 0.008333333333333333, 0.008333333333333333, 0.008333333333333333, 0.008333333333333333, 0.008333333333333333, 0.008333333333333333, 0.008333333333333333, 0.008333333333333333, 0.008333333333333333, 0.008333333333333333, 0.008333333333333333, 0.008333333333333333, 0.008333333333333333, 0.008333333333333333, 0.008333333333333333, 0.008333333333333333]"	"[-0.39444444444444443, -0.39444444444444443, -0.39444444444444443, -0.39444444444444443, -0.39444444444444443, -0.39444444444444443, -0.39444444444444443, -0.39444444444444443, -0.39444444444444443, -0.39444444444444443, -0.39444444444444443, -0.39444444444444443, -0.39444444444444443, -0.39444444444444443, -0.39444444444444443, -0.39444444444444443, -0.39444444444444443, -0.39444444444444443, -0.39444444444444443, -0.39444444444444443, -0.39444444444444443]"	"[1, 1, 1, 1, 1, 1, 1, 1, 1, 1, 1, 1, 1, 1, 1, 1, 1, 1, 1, 1, 0]"	"[0, 0, 0, 0, 0, 0, 0, 0, 0, 0, 0, 0, 0, 0, 0, 0, 0, 0, 0, 0, 0]"	"[0, 0, 0, 0, 0, 0, 0, 0, 0, 0, 0, 0, 0, 0, 0, 0, 0, 0, 0, 0, 1]"	"[1.0338497000047937, 1.225576200056821, 1.4089149000355974, 1.6089598999824375, 1.800568100064993, 1.983955700066872, 2.183934000087902, 2.383922400069423, 2.5673202000325546, 2.775708100060001, 2.967325899982825, 3.142363900085911, 3.3256398000521585, 3.5173278000438586, 3.717298000003211, 3.934056800091639, 4.159091000095941, 4.367429699981585, 4.584156300057657, 4.967477700090967, 5.509068200015463]"	21	"[1.028507599956356, 1.2202266999520361, 1.4035708999726921, 1.6036173000466079, 1.795219499967061, 1.9786106999963522, 2.1785922000417486, 2.378573099966161, 2.5619717000517994, 2.77036299998872, 2.961980600026436, 3.137019900023006, 3.3202895000576973, 3.512001600000076, 3.703853499959223, 3.9287091000005603, 4.153742599999532, 4.362083500018343, 4.578808299964294, 4.962154799955897, 5.503657400025986]"	"[1.0949572999961674, 1.278201699955389, 1.4782531999517232, 1.678353299968876, 1.878265899955295, 2.078250400023535, 2.261614099959843, 2.4449897999875247, 2.6449687000131235, 2.8449859999818727, 3.0366831000428647, 3.228349899989553, 3.4117062999866903, 3.6034971999470145, 3.8035042999545112, 4.020072799990885, 4.245109500014223, 4.436805699951947, 4.6534631999675184, 5.020145399961621, 5.503661500057206]"	177.630973400082	177.636739300098	179.128724800074	179.145173900062	NA	NA	NA	NA	NA	NA	NA	22	"01"	"2024-02-14_15h04.55.183"	"BART_exp"	"2023.2.3"	119.943482759103	"2024-02-14 15h05.06.716293 +0100"	NA
"balloon.png"	114	0	17	17	26	179.145173900062	NA	NA	NA	NA	NA	NA	NA	NA	NA	NA	NA	NA	179.128907900071	179.145173900062	179.145173900062	179.145173900062	179.145173900062	179.145173900062	-0.00073680002242326	-0.00073680002242326	-0.00073680002242326	179.145173900062	184.405512000085	20	1	FALSE	"[0.008333333333333333, 0.008333333333333333, 0.008333333333333333, 0.008333333333333333, 0.008333333333333333, 0.008333333333333333, 0.008333333333333333, 0.008333333333333333, 0.008333333333333333, 0.008333333333333333, 0.008333333333333333, 0.008333333333333333, 0.008333333333333333, 0.008333333333333333, 0.008333333333333333, 0.008333333333333333, 0.008333333333333333, 0.008333333333333333, 0.008333333333333333, 0.008333333333333333, 0.008333333333333333]"	"[-0.39444444444444443, -0.39444444444444443, -0.39444444444444443, -0.39444444444444443, -0.39444444444444443, -0.39444444444444443, -0.39444444444444443, -0.39444444444444443, -0.39444444444444443, -0.39444444444444443, -0.39444444444444443, -0.39444444444444443, -0.39444444444444443, -0.39444444444444443, -0.39444444444444443, -0.39444444444444443, -0.39444444444444443, -0.39444444444444443, -0.39444444444444443, -0.39444444444444443, -0.39444444444444443]"	"[1, 1, 1, 1, 1, 1, 1, 1, 1, 1, 1, 1, 1, 1, 1, 1, 1, 1, 1, 1, 0]"	"[0, 0, 0, 0, 0, 0, 0, 0, 0, 0, 0, 0, 0, 0, 0, 0, 0, 0, 0, 0, 0]"	"[0, 0, 0, 0, 0, 0, 0, 0, 0, 0, 0, 0, 0, 0, 0, 0, 0, 0, 0, 0, 1]"	"[0.5171876000240445, 0.7004128000698984, 0.8836557000176981, 1.0753437000093982, 1.2420382000273094, 1.4171618999680504, 1.5921860999660566, 1.775581800029613, 1.9505492000607774, 2.1422103999648243, 2.3505935000721365, 2.5338810000102967, 2.71722640004009, 2.900445400038734, 3.092124899965711, 3.267146100057289, 3.4421473999973387, 3.625518099986948, 3.825536699965596, 4.2422300999751315, 5.275695099961013]"	21	"[0.5104550999822095, 0.6936826000455767, 0.876924299984239, 1.0686112000839785, 1.2353041999740526, 1.4104274000274017, 1.5854504000162706, 1.768853300018236, 1.943818200030364, 2.1354757000226527, 2.3438594000181183, 2.527149899979122, 2.710495400009677, 2.8937113999854773, 3.0853904000250623, 3.2604103999910876, 3.435418499982916, 3.6187838000478223, 3.818802100024186, 4.23549610003829, 5.268897700007074]"	"[0.5767602999694645, 0.7517533000791445, 0.935095899971202, 1.1184759000316262, 1.3184420000761747, 1.4934730000095442, 1.6685076999710873, 1.851850499981083, 2.043503800057806, 2.2268842000048608, 2.4352588000474498, 2.626928300014697, 2.8102127000456676, 2.993557700072415, 3.168598100077361, 3.3519281999906525, 3.5269373999908566, 3.7019433000823483, 3.910289500025101, 4.302124100038782, 5.268901800038293]"	184.406419600011	184.412222700077	185.904199600103	185.928991800058	NA	NA	NA	NA	NA	NA	NA	22	"01"	"2024-02-14_15h04.55.183"	"BART_exp"	"2023.2.3"	119.943482759103	"2024-02-14 15h05.06.716293 +0100"	NA
"balloon.png"	18	0	18	18	4	185.928991800058	NA	NA	NA	NA	NA	NA	NA	NA	NA	NA	NA	NA	185.90437870007	185.928991800058	185.928991800058	185.928991800058	185.928991800058	185.928991800058	-0.0007810000097379	-0.0007810000097379	-0.0007810000097379	185.928991800058	190.256280100089	19	0.9	TRUE	"[0.008333333333333333, 0.008333333333333333, 0.008333333333333333, 0.008333333333333333, 0.008333333333333333, 0.008333333333333333, 0.008333333333333333, 0.008333333333333333, 0.008333333333333333, 0.008333333333333333, 0.008333333333333333, 0.008333333333333333, 0.008333333333333333, 0.008333333333333333, 0.008333333333333333, 0.008333333333333333, 0.008333333333333333, 0.008333333333333333, 0.008333333333333333]"	"[-0.39537037037037037, -0.39537037037037037, -0.39537037037037037, -0.39537037037037037, -0.39537037037037037, -0.39537037037037037, -0.39537037037037037, -0.39537037037037037, -0.39537037037037037, -0.39537037037037037, -0.39537037037037037, -0.39537037037037037, -0.39537037037037037, -0.39537037037037037, -0.39537037037037037, -0.39537037037037037, -0.39537037037037037, -0.39537037037037037, -0.39537037037037037]"	"[1, 1, 1, 1, 1, 1, 1, 1, 1, 1, 1, 1, 1, 1, 1, 1, 1, 1, 1]"	"[0, 0, 0, 0, 0, 0, 0, 0, 0, 0, 0, 0, 0, 0, 0, 0, 0, 0, 0]"	"[0, 0, 0, 0, 0, 0, 0, 0, 0, 0, 0, 0, 0, 0, 0, 0, 0, 0, 0]"	"[0.5421581000555307, 0.733777999994345, 0.9755488999653608, 1.1838789000175893, 1.3921478999545798, 1.6005047999788076, 1.8005351000465453, 2.008859600056894, 2.217308899969794, 2.4006046999711543, 2.592269500019029, 2.7756119000259787, 2.98393520002719, 3.1756121000507846, 3.4090104999486357, 3.625655199983157, 3.8421608000062406, 4.042205099947751, 4.258891199948266]"	19	"[0.5310790000949055, 0.722692200099118, 0.964466700097546, 1.1727947000181302, 1.3810649000806734, 1.5894203000934795, 1.789454200072214, 1.9977782000787556, 2.206225300091319, 2.389519500080496, 2.5811902000568807, 2.764528200030327, 2.9728529000421986, 3.1645301000680774, 3.3979307000990957, 3.614567100070417, 3.831078300019726, 4.031123300082982, 4.247804900049232]"	"[0.597365100053139, 0.7975812000222504, 1.0140771000878885, 1.2395659000612795, 1.4557747000362724, 1.6725077000446618, 1.8891317000379786, 2.0807993001071736, 2.280866700108163, 2.4724899000721052, 2.655834100092761, 2.8725805000867695, 3.055865000002086, 3.2558886000188068, 3.480902500101365, 3.705907700001262, 3.914371900027618, 4.130998500040732, 4.331014600000344]"	190.257372600026	190.262656200095	191.754622800043	191.762731400086	NA	NA	NA	NA	NA	NA	NA	22	"01"	"2024-02-14_15h04.55.183"	"BART_exp"	"2023.2.3"	119.943482759103	"2024-02-14 15h05.06.716293 +0100"	NA
"balloon.png"	110	0	19	19	25	191.762731400086	NA	NA	NA	NA	NA	NA	NA	NA	NA	NA	NA	NA	191.754806900048	191.762731400086	191.762731400086	191.762731400086	191.762731400086	191.762731400086	0.00543560006190091	NA	NA	191.762731400086	197.531371100107	20	1	FALSE	"[0.008333333333333333, 0.008333333333333333, 0.008333333333333333, 0.008333333333333333, 0.008333333333333333, 0.008333333333333333, 0.008333333333333333, 0.008333333333333333, 0.008333333333333333, 0.008333333333333333, 0.008333333333333333, 0.008333333333333333, 0.008333333333333333, 0.008333333333333333, 0.008333333333333333, 0.008333333333333333, 0.008333333333333333, 0.008333333333333333, 0.008333333333333333, 0.008333333333333333, 0.008333333333333333]"	"[-0.39537037037037037, -0.39537037037037037, -0.39537037037037037, -0.39537037037037037, -0.39537037037037037, -0.39537037037037037, -0.39537037037037037, -0.39537037037037037, -0.39537037037037037, -0.39537037037037037, -0.39537037037037037, -0.39537037037037037, -0.39537037037037037, -0.39537037037037037, -0.39537037037037037, -0.39537037037037037, -0.39537037037037037, -0.39537037037037037, -0.39537037037037037, -0.39537037037037037, -0.39537037037037037]"	"[1, 1, 1, 1, 1, 1, 1, 1, 1, 1, 1, 1, 1, 1, 1, 1, 1, 1, 1, 1, 0]"	"[0, 0, 0, 0, 0, 0, 0, 0, 0, 0, 0, 0, 0, 0, 0, 0, 0, 0, 0, 0, 0]"	"[0, 0, 0, 0, 0, 0, 0, 0, 0, 0, 0, 0, 0, 0, 0, 0, 0, 0, 0, 0, 1]"	"[0.4502944000996649, 0.6169602000154555, 0.8169528000289574, 1.0338049000129104, 1.275661600055173, 1.4838243999984115, 1.717170900083147, 1.958861400024034, 2.2170501000946388, 2.4254506001016125, 2.650509100058116, 2.8589102000696585, 3.092400100082159, 3.3340162000386044, 3.7673112000338733, 3.9672128000529483, 4.167346100090072, 4.550716100027785, 4.95908570010215, 5.317432300071232, 5.775643700035289]"	21	"[0.4483660999685526, 0.6150208000326529, 0.8150067999958992, 1.031859299982898, 1.2737187999300659, 1.4818817999912426, 1.7152264999458566, 1.9569198000244796, 2.2151103999931365, 2.423507899977267, 2.6485674999421462, 2.8569700999651104, 3.0904637000057846, 3.332080699969083, 3.765370999928564, 3.9652702999301255, 4.165408100001514, 4.5487792999483645, 4.957143699983135, 5.315492899972014, 5.773637900012545]"	"[0.49816940003074706, 0.6899362999247387, 0.8981880999635905, 1.1149046999635175, 1.3565673999255523, 1.5732911999803036, 1.781599699985236, 2.039938100031577, 2.2733097999589518, 2.4983875999459997, 2.731670800014399, 2.9483710000058636, 3.181687799980864, 3.423378000035882, 3.8234843999380246, 4.031915299943648, 4.240123700001277, 4.640135499997996, 5.031822299933992, 5.398517600027844, 5.773642099928111]"	197.532274800004	197.538132400019	199.030092800036	199.046572100022	NA	NA	NA	NA	NA	NA	NA	22	"01"	"2024-02-14_15h04.55.183"	"BART_exp"	"2023.2.3"	119.943482759103	"2024-02-14 15h05.06.716293 +0100"	NA
"balloon.png"	127	0	20	20	29	199.046572100022	NA	NA	NA	NA	NA	NA	NA	NA	NA	NA	NA	NA	199.030274300021	199.046572100022	199.046572100022	199.046572100022	199.046572100022	199.046572100022	-0.00073820003308355	-0.00073820003308355	-0.00073820003308355	199.046572100022	207.265538600041	30	1.5	FALSE	"[0.008333333333333333, 0.008333333333333333, 0.008333333333333333, 0.008333333333333333, 0.008333333333333333, 0.008333333333333333, 0.008333333333333333, 0.008333333333333333, 0.008333333333333333, 0.008333333333333333, 0.008333333333333333, 0.008333333333333333, 0.008333333333333333, 0.008333333333333333, 0.008333333333333333, 0.008333333333333333, 0.008333333333333333, 0.008333333333333333, 0.008333333333333333, 0.008333333333333333, 0.008333333333333333, 0.008333333333333333, 0.008333333333333333, 0.008333333333333333, 0.008333333333333333, 0.008333333333333333, 0.008333333333333333, 0.008333333333333333, 0.008333333333333333, 0.008333333333333333, 0.008333333333333333]"	"[-0.39537037037037037, -0.39537037037037037, -0.39537037037037037, -0.39537037037037037, -0.39537037037037037, -0.39537037037037037, -0.39537037037037037, -0.39537037037037037, -0.39537037037037037, -0.39537037037037037, -0.39537037037037037, -0.39537037037037037, -0.39537037037037037, -0.39537037037037037, -0.39537037037037037, -0.39537037037037037, -0.39537037037037037, -0.39537037037037037, -0.39537037037037037, -0.39537037037037037, -0.39537037037037037, -0.39537037037037037, -0.39537037037037037, -0.39537037037037037, -0.39537037037037037, -0.39537037037037037, -0.39537037037037037, -0.39537037037037037, -0.39537037037037037, -0.39537037037037037, -0.39537037037037037]"	"[1, 1, 1, 1, 1, 1, 1, 1, 1, 1, 1, 1, 1, 1, 1, 1, 1, 1, 1, 1, 1, 1, 1, 1, 1, 1, 1, 1, 1, 1, 0]"	"[0, 0, 0, 0, 0, 0, 0, 0, 0, 0, 0, 0, 0, 0, 0, 0, 0, 0, 0, 0, 0, 0, 0, 0, 0, 0, 0, 0, 0, 0, 0]"	"[0, 0, 0, 0, 0, 0, 0, 0, 0, 0, 0, 0, 0, 0, 0, 0, 0, 0, 0, 0, 0, 0, 0, 0, 0, 0, 0, 0, 0, 0, 1]"	"[0.66713630000595, 0.9922005000989884, 1.2588727000402287, 1.5009148000972345, 1.7754088001092896, 2.067261500051245, 2.333762100082822, 2.59227440005634, 2.8006156000774354, 3.0006499000592157, 3.183961100061424, 3.3671719999983907, 3.5755121000111103, 3.89221700001508, 4.175698000006378, 4.425743100000545, 4.617420300026424, 4.767500700079836, 4.950615800102241, 5.11730530008208, 5.725694100023247, 5.875861500040628, 6.050856000045314, 6.225896300049499, 6.400909400079399, 6.775875400053337, 6.9424163000658154, 7.25094870000612, 7.576532500097528, 7.909354700008407, 8.234328699996695]"	31	"[0.6619124000426382, 0.9869751000078395, 1.2536498999688774, 1.4956866999855265, 1.7701854000333697, 2.062033500056714, 2.3285381000023335, 2.587052799994126, 2.795391199993901, 2.995426299981773, 3.1787377999862656, 3.361943199997768, 3.562126599950716, 3.886992000043392, 4.1704738000407815, 4.420520100044087, 4.612189500010572, 4.762277100002393, 4.945385199971497, 5.112073100055568, 5.720468400046229, 5.87064169999212, 6.045627000043169, 6.220673399977386, 6.395680999965407, 6.770651799975894, 6.937190399970859, 7.24572010000702, 7.57131200004369, 7.904139999998733, 8.229037099983543]"	"[0.7116467000450939, 1.0450013000518084, 1.3118632000405341, 1.561690800008364, 1.8283552000066265, 2.1367078999755904, 2.4035684999544173, 2.6701218000380322, 2.8784728000173345, 3.053452800028026, 3.2536403000121936, 3.445132700027898, 3.653494799975306, 3.9534915999975055, 4.2368577000452206, 4.503632499952801, 4.670380100025795, 4.845316700055264, 5.020250600064173, 5.186920500011183, 5.770451799966395, 5.945399199961685, 6.120339300017804, 6.287000200012699, 6.445355499978177, 6.853728599962778, 7.020385200041346, 7.3037853999994695, 7.645442600012757, 7.953937800019048, 8.229041200014763]"	207.266701900051	207.272189900046	208.764114700025	208.772288000095	NA	NA	NA	NA	NA	NA	NA	22	"01"	"2024-02-14_15h04.55.183"	"BART_exp"	"2023.2.3"	119.943482759103	"2024-02-14 15h05.06.716293 +0100"	NA
"balloon.png"	1	0	21	21	0	208.772288000095	NA	NA	NA	NA	NA	NA	NA	NA	NA	NA	NA	NA	208.764295900008	208.772288000095	208.772288000095	208.772288000095	208.772288000095	208.772288000095	0.00565100007224828	0.00565100007224828	0.00565100007224828	208.772288000095	209.590959500056	2	0.05	TRUE	"[0.008333333333333333, 0.008333333333333333]"	"[-0.39537037037037037, -0.39537037037037037]"	"[1, 1]"	"[0, 0]"	"[0, 0]"	"[0.6003764999331906, 0.758685499895364]"	2	"[0.598513999953866, 0.7568176999920979]"	"[0.6566367999184877, 0.8150076000019908]"	209.591526200064	209.597318900051	211.089281000081	211.105753400014	NA	NA	NA	NA	NA	NA	NA	22	"01"	"2024-02-14_15h04.55.183"	"BART_exp"	"2023.2.3"	119.943482759103	"2024-02-14 15h05.06.716293 +0100"	NA
"balloon.png"	105	0	22	22	24	211.105753400014	NA	NA	NA	NA	NA	NA	NA	NA	NA	NA	NA	NA	211.089457300026	211.105753400014	211.105753400014	211.105753400014	211.105753400014	211.105753400014	-0.00074379995930939	-0.00074379995930939	-0.00074379995930939	211.105753400014	217.98317120003	30	1.5	FALSE	"[0.008333333333333333, 0.008333333333333333, 0.008333333333333333, 0.008333333333333333, 0.008333333333333333, 0.008333333333333333, 0.008333333333333333, 0.008333333333333333, 0.008333333333333333, 0.008333333333333333, 0.008333333333333333, 0.008333333333333333, 0.008333333333333333, 0.008333333333333333, 0.008333333333333333, 0.008333333333333333, 0.008333333333333333, 0.008333333333333333, 0.008333333333333333, 0.008333333333333333, 0.008333333333333333, 0.008333333333333333, 0.008333333333333333, 0.008333333333333333, 0.008333333333333333, 0.008333333333333333, 0.008333333333333333, 0.008333333333333333, 0.008333333333333333, 0.008333333333333333, 0.008333333333333333]"	"[-0.39537037037037037, -0.39537037037037037, -0.39537037037037037, -0.39537037037037037, -0.39537037037037037, -0.39537037037037037, -0.39537037037037037, -0.39537037037037037, -0.39537037037037037, -0.39537037037037037, -0.39537037037037037, -0.39537037037037037, -0.39537037037037037, -0.39537037037037037, -0.39537037037037037, -0.39537037037037037, -0.39537037037037037, -0.39537037037037037, -0.39537037037037037, -0.39537037037037037, -0.39537037037037037, -0.39537037037037037, -0.39537037037037037, -0.39537037037037037, -0.39537037037037037, -0.39537037037037037, -0.39537037037037037, -0.39537037037037037, -0.39537037037037037, -0.39537037037037037, -0.39537037037037037]"	"[1, 1, 1, 1, 1, 1, 1, 1, 1, 1, 1, 1, 1, 1, 1, 1, 1, 1, 1, 1, 1, 1, 1, 1, 1, 1, 1, 1, 1, 1, 0]"	"[0, 0, 0, 0, 0, 0, 0, 0, 0, 0, 0, 0, 0, 0, 0, 0, 0, 0, 0, 0, 0, 0, 0, 0, 0, 0, 0, 0, 0, 0, 0]"	"[0, 0, 0, 0, 0, 0, 0, 0, 0, 0, 0, 0, 0, 0, 0, 0, 0, 0, 0, 0, 0, 0, 0, 0, 0, 0, 0, 0, 0, 0, 1]"	"[0.5421781999757513, 0.7171340000350028, 0.9087936000432819, 1.0922173999715596, 1.2670930000022054, 1.4670299999415874, 1.683731499942951, 2.0005592999514192, 2.325598799972795, 2.5090182999847457, 2.6839554000180215, 2.883817599969916, 3.0504743000492454, 3.242174300015904, 3.4338228999404237, 3.6007196999853477, 3.775700099999085, 3.9590420000022277, 4.159049600013532, 4.342398099950515, 4.525763000012375, 4.717429899959825, 4.892516299965791, 5.100899399956688, 5.2757990000536665, 5.458987500052899, 5.650658200029284, 6.000738900038414, 6.167534900014289, 6.484045800054446, 6.89276630000677]"	31	"[0.5355671999277547, 0.7105180999496952, 0.9021795999724418, 1.0856139999814332, 1.2604840999701992, 1.4604139999719337, 1.6771153999725357, 1.9939404999604449, 2.318986599915661, 2.502399899996817, 2.6773447999730706, 2.8771969999652356, 3.0438534999266267, 3.2355563999153674, 3.4272056999616325, 3.594103999901563, 3.7690846999175847, 3.9524239999009296, 4.152438199962489, 4.335779599961825, 4.519149699946865, 4.710816799895838, 4.885902999900281, 5.094278199947439, 5.269181199953891, 5.452373199979775, 5.6440443999599665, 5.994123599957675, 6.160921799950302, 6.477424799930304, 6.8860925999470055]"	"[0.6269148999126628, 0.8019507999997586, 0.99357739998959, 1.1602347999578342, 1.3352552999276668, 1.518603099975735, 1.7520306999795139, 2.077031599939801, 2.393661699956283, 2.5688454000046477, 2.752043699962087, 2.935374499997124, 3.1201277999207377, 3.3270650999620557, 3.502104499959387, 3.6687710999976844, 3.8521014999132603, 4.052141199936159, 4.235458999988623, 4.427152499905787, 4.62716619996354, 4.810501399915665, 4.9938482999568805, 5.1772056999616325, 5.360769799910486, 5.53557239996735, 5.727242999942973, 6.06899689999409, 6.24394289997872, 6.543952599982731, 6.8860965999774635]"	217.984450599994	217.989586500102	219.481531099998	219.489679899998	NA	NA	NA	NA	NA	NA	NA	22	"01"	"2024-02-14_15h04.55.183"	"BART_exp"	"2023.2.3"	119.943482759103	"2024-02-14 15h05.06.716293 +0100"	NA
"balloon.png"	88	0	23	23	20	219.489679899998	NA	NA	NA	NA	NA	NA	NA	NA	NA	NA	NA	NA	219.481711100088	219.489679899998	219.489679899998	219.489679899998	219.489679899998	219.489679899998	0.00529410003218799	0.00529410003218799	0.00529410003218799	219.489679899998	227.27537170006	32	1.6	FALSE	"[0.008333333333333333, 0.008333333333333333, 0.008333333333333333, 0.008333333333333333, 0.008333333333333333, 0.008333333333333333, 0.008333333333333333, 0.008333333333333333, 0.008333333333333333, 0.008333333333333333, 0.008333333333333333, 0.008333333333333333, 0.008333333333333333, 0.008333333333333333, 0.008333333333333333, 0.008333333333333333, 0.008333333333333333, 0.008333333333333333, 0.008333333333333333, 0.008333333333333333, 0.008333333333333333, 0.008333333333333333, 0.008333333333333333, 0.008333333333333333, 0.008333333333333333, 0.008333333333333333, 0.008333333333333333, 0.008333333333333333, 0.008333333333333333, 0.008333333333333333, 0.008333333333333333, 0.008333333333333333, 0.008333333333333333]"	"[-0.39537037037037037, -0.39537037037037037, -0.39537037037037037, -0.39537037037037037, -0.39537037037037037, -0.39537037037037037, -0.39537037037037037, -0.39537037037037037, -0.39537037037037037, -0.39537037037037037, -0.39537037037037037, -0.39537037037037037, -0.39537037037037037, -0.39537037037037037, -0.39537037037037037, -0.39537037037037037, -0.39537037037037037, -0.39537037037037037, -0.39537037037037037, -0.39537037037037037, -0.39537037037037037, -0.39537037037037037, -0.39537037037037037, -0.39537037037037037, -0.39537037037037037, -0.39537037037037037, -0.39537037037037037, -0.39537037037037037, -0.39537037037037037, -0.39537037037037037, -0.39537037037037037, -0.39537037037037037, -0.39537037037037037]"	"[1, 1, 1, 1, 1, 1, 1, 1, 1, 1, 1, 1, 1, 1, 1, 1, 1, 1, 1, 1, 1, 1, 1, 1, 1, 1, 1, 1, 1, 1, 1, 1, 0]"	"[0, 0, 0, 0, 0, 0, 0, 0, 0, 0, 0, 0, 0, 0, 0, 0, 0, 0, 0, 0, 0, 0, 0, 0, 0, 0, 0, 0, 0, 0, 0, 0, 0]"	"[0, 0, 0, 0, 0, 0, 0, 0, 0, 0, 0, 0, 0, 0, 0, 0, 0, 0, 0, 0, 0, 0, 0, 0, 0, 0, 0, 0, 0, 0, 0, 0, 1]"	"[0.3756145000224933, 0.5755453000310808, 0.7672978000482544, 0.9422025000676513, 1.1338737000478432, 1.3186468000058085, 1.4921925000380725, 1.8006178000941873, 2.0671198000200093, 2.3006094000302255, 2.5006085000932217, 2.692327400087379, 2.900654700002633, 3.084006900084205, 3.2924467000411823, 3.492402800009586, 3.7006789000006393, 3.917403500061482, 4.2005832000868395, 4.633960300008766, 4.784105900092982, 4.975808100076392, 5.1674869999988005, 5.342523200088181, 5.517614200012758, 5.725890400004573, 5.950913400040008, 6.159218500019051, 6.35922710003797, 6.559236100059934, 6.742645499994978, 6.959130200091749, 7.792718600016087]"	33	"[0.3737412999616936, 0.5736595999915153, 0.765412199893035, 0.9403182999230921, 1.1319873998872936, 1.316923499922268, 1.4903084998950362, 1.7987365999724716, 2.0652344999834895, 2.2987224999815226, 2.4987254999578, 2.690447899978608, 2.898773099994287, 3.0821250999579206, 3.29056779993698, 3.4905159999616444, 3.69879569998011, 3.915517099900171, 4.198698399937712, 4.632077399990521, 4.7822209999430925, 4.973919799900614, 5.165603599976748, 5.340634899912402, 5.515729299979284, 5.724002999952063, 5.9490247999783605, 6.157332699978724, 6.3573385999770835, 6.5573515999130905, 6.7407583999447525, 6.957243099925108, 7.790786099969409]"	"[0.4483248998876661, 0.6732980998931453, 0.8566664999816567, 1.0233202999224886, 1.2233685998944566, 1.4150678999722004, 1.5900343999965116, 1.9150430998997763, 2.1734420999418944, 2.4067702998872846, 2.5984270999906585, 2.7901630999986082, 2.9901687999954447, 3.190203499980271, 3.390162599971518, 3.5985109999310225, 3.7901987999211997, 4.0235331999138, 4.2819036999717355, 4.690374399884604, 4.873681299970485, 5.056990099954419, 5.240326099912636, 5.431966599891894, 5.62365709990263, 5.823663199902512, 6.065355499973521, 6.257027299958281, 6.46538809989579, 6.648756799986586, 6.840394699946046, 7.073794799973257, 7.790790200000629]"	227.276533400058	227.290253900108	228.782067000051	NA	NA	NA	NA	NA	NA	NA	NA	22	"01"	"2024-02-14_15h04.55.183"	"BART_exp"	"2023.2.3"	119.943482759103	"2024-02-14 15h05.06.716293 +0100"	NA
"balloon.png"	44	0	24	24	10	228.798686700058	NA	NA	NA	NA	NA	NA	NA	NA	NA	NA	NA	NA	228.782239900087	228.798686700058	228.798686700058	228.798686700058	228.798686700058	228.798686700058	0.00695459998678416	0.00695459998678416	0.00695459998678416	228.798686700058	236.334042500006	30	1.5	FALSE	"[0.008333333333333333, 0.008333333333333333, 0.008333333333333333, 0.008333333333333333, 0.008333333333333333, 0.008333333333333333, 0.008333333333333333, 0.008333333333333333, 0.008333333333333333, 0.008333333333333333, 0.008333333333333333, 0.008333333333333333, 0.008333333333333333, 0.008333333333333333, 0.008333333333333333, 0.008333333333333333, 0.008333333333333333, 0.008333333333333333, 0.008333333333333333, 0.008333333333333333, 0.008333333333333333, 0.008333333333333333, 0.008333333333333333, 0.008333333333333333, 0.008333333333333333, 0.008333333333333333, 0.008333333333333333, 0.008333333333333333, 0.008333333333333333, 0.008333333333333333, 0.008333333333333333]"	"[-0.39537037037037037, -0.39537037037037037, -0.39537037037037037, -0.39537037037037037, -0.39537037037037037, -0.39537037037037037, -0.39537037037037037, -0.39537037037037037, -0.39537037037037037, -0.39537037037037037, -0.39537037037037037, -0.39537037037037037, -0.39537037037037037, -0.39537037037037037, -0.39537037037037037, -0.39537037037037037, -0.39537037037037037, -0.39537037037037037, -0.39537037037037037, -0.39537037037037037, -0.39537037037037037, -0.39537037037037037, -0.39537037037037037, -0.39537037037037037, -0.39537037037037037, -0.39537037037037037, -0.39537037037037037, -0.39537037037037037, -0.39537037037037037, -0.39537037037037037, -0.39537037037037037]"	"[1, 1, 1, 1, 1, 1, 1, 1, 1, 1, 1, 1, 1, 1, 1, 1, 1, 1, 1, 1, 1, 1, 1, 1, 1, 1, 1, 1, 1, 1, 0]"	"[0, 0, 0, 0, 0, 0, 0, 0, 0, 0, 0, 0, 0, 0, 0, 0, 0, 0, 0, 0, 0, 0, 0, 0, 0, 0, 0, 0, 0, 0, 0]"	"[0, 0, 0, 0, 0, 0, 0, 0, 0, 0, 0, 0, 0, 0, 0, 0, 0, 0, 0, 0, 0, 0, 0, 0, 0, 0, 0, 0, 0, 0, 1]"	"[0.4838036000728607, 0.8089780000736937, 1.1756071000127122, 1.3840032999869436, 1.5840131000149995, 1.8009060000767931, 2.185484500019811, 2.500608100090176, 2.6923365000402555, 2.867542800027877, 3.0258567000273615, 3.1841769000748172, 3.38412430009339, 3.5925068000797182, 3.7506901000160724, 3.9007435999810696, 4.084185400046408, 4.250889100017957, 4.417558200075291, 5.044058300089091, 5.192618600092828, 5.38428009999916, 5.559590200078674, 5.842694199993275, 6.026098300004378, 6.1843634999822825, 6.350858799996786, 6.659434300032444, 6.826062900014222, 7.201079500024207, 7.550920500070788]"	31	"[0.48009510000701994, 0.8052673001075163, 1.1718872000928968, 1.3802843000739813, 1.5802928000921384, 1.7971881000557914, 2.181932800100185, 2.496887000044808, 2.6886129000922665, 2.863835000083782, 3.0221496000885963, 3.180455300025642, 3.380402800044976, 3.5888096000999212, 3.7469739000080153, 3.897021700046025, 4.080469000036828, 4.247166600078344, 4.413835800020024, 5.04050250002183, 5.188902200083248, 5.380556000047363, 5.555875000078231, 5.8389778001001105, 6.0223829000024125, 6.180654600029811, 6.3471398000838235, 6.655718900030479, 6.822340000071563, 7.197357600089163, 7.547136200009845]"	"[0.504926500027068, 0.8966098000528291, 1.2466263000387698, 1.4633896000450477, 1.6800042000832036, 1.905005200067535, 2.280057800002396, 2.580220600008033, 2.763414000044577, 2.9384359000250697, 3.113467700080946, 3.26344530005008, 3.4218281001085415, 3.6551468000980094, 3.821813700022176, 3.9968647001078352, 4.163528600009158, 4.330196500057355, 4.496861400082707, 5.121919000055641, 5.2969415000407025, 5.471932100015692, 5.630270100082271, 5.930293600074947, 6.088635600055568, 6.255343300057575, 6.422008500085212, 6.722004200099036, 6.880463500041515, 7.26383569999598, 7.547140300041065]"	236.335206900025	236.340890699998	237.83283780003	237.849294500076	NA	NA	NA	NA	NA	NA	NA	22	"01"	"2024-02-14_15h04.55.183"	"BART_exp"	"2023.2.3"	119.943482759103	"2024-02-14 15h05.06.716293 +0100"	NA
"balloon.png"	5	0	25	25	1	237.849294500076	NA	NA	NA	NA	NA	NA	NA	NA	NA	NA	NA	NA	237.833014800097	237.849294500076	237.849294500076	237.849294500076	237.849294500076	237.849294500076	-0.00092879997100681	-0.00092879997100681	-0.00092879997100681	237.849294500076	239.234669500031	6	0.25	TRUE	"[0.008333333333333333, 0.008333333333333333, 0.008333333333333333, 0.008333333333333333, 0.008333333333333333, 0.008333333333333333]"	"[-0.39537037037037037, -0.39537037037037037, -0.39537037037037037, -0.39537037037037037, -0.39537037037037037, -0.39537037037037037]"	"[1, 1, 1, 1, 1, 1]"	"[0, 0, 0, 0, 0, 0]"	"[0, 0, 0, 0, 0, 0]"	"[0.3504967999178916, 0.5255606999853626, 0.7099661999382079, 0.9004712000023574, 1.1087868999456987, 1.3090135999955237]"	6	"[0.3475685000885278, 0.5226263999938965, 0.7071942000184208, 0.8975423000520095, 1.1058548000873998, 1.306080300011672]"	"[0.4305356000550091, 0.6139441000996158, 0.7889317000517622, 0.9805813001003116, 1.1889355999883264, 1.3889407000970095]"	239.235321500106	239.241185600054	240.73305540008	240.749514900031	NA	NA	NA	NA	NA	NA	NA	22	"01"	"2024-02-14_15h04.55.183"	"BART_exp"	"2023.2.3"	119.943482759103	"2024-02-14 15h05.06.716293 +0100"	NA
"balloon.png"	14	0	26	26	3	240.749514900031	NA	NA	NA	NA	NA	NA	NA	NA	NA	NA	NA	NA	240.733229100006	240.749514900031	240.749514900031	240.749514900031	240.749514900031	240.749514900031	-0.00079449999611824	-0.00079449999611824	-0.00079449999611824	240.749514900031	243.751701800036	15	0.7	TRUE	"[0.008333333333333333, 0.008333333333333333, 0.008333333333333333, 0.008333333333333333, 0.008333333333333333, 0.008333333333333333, 0.008333333333333333, 0.008333333333333333, 0.008333333333333333, 0.008333333333333333, 0.008333333333333333, 0.008333333333333333, 0.008333333333333333, 0.008333333333333333, 0.008333333333333333]"	"[-0.39537037037037037, -0.39537037037037037, -0.39537037037037037, -0.39537037037037037, -0.39537037037037037, -0.39537037037037037, -0.39537037037037037, -0.39537037037037037, -0.39537037037037037, -0.39537037037037037, -0.39537037037037037, -0.39537037037037037, -0.39537037037037037, -0.39537037037037037, -0.39537037037037037]"	"[1, 1, 1, 1, 1, 1, 1, 1, 1, 1, 1, 1, 1, 1, 1]"	"[0, 0, 0, 0, 0, 0, 0, 0, 0, 0, 0, 0, 0, 0, 0]"	"[0, 0, 0, 0, 0, 0, 0, 0, 0, 0, 0, 0, 0, 0, 0]"	"[0.2671194000868127, 0.4671500000404194, 0.6422048000385985, 0.8171628001146019, 1.0006365000735968, 1.1670146000105888, 1.3670037001138553, 1.550359500106424, 1.7253912000451237, 1.9090137000894174, 2.092210500035435, 2.267246100003831, 2.5420901000034064, 2.7171100000850856, 2.9171788000967354]"	15	"[0.26480160001665354, 0.4648369000060484, 0.6398851000703871, 0.814842400024645, 0.99831609998364, 1.1646969000576064, 1.3646836000261828, 1.5480458000674844, 1.7230774000054225, 1.906705400091596, 2.089892000076361, 2.264925800031051, 2.539769100025296, 2.714791900012642, 2.9148644000524655]"	"[0.3478055000305176, 0.5478305000578985, 0.7311681000282988, 0.9062010000925511, 1.0812071000691503, 1.2395755000179633, 1.4312716000713408, 1.6312433000421152, 1.8229594000149518, 2.0146585000911728, 2.172940200078301, 2.35628980002366, 2.622960500069894, 2.7896877999883145, 3.00634209997952]"	243.752509100013	243.758056499995	245.25001050008	245.266487900051	NA	NA	NA	NA	NA	NA	NA	22	"01"	"2024-02-14_15h04.55.183"	"BART_exp"	"2023.2.3"	119.943482759103	"2024-02-14 15h05.06.716293 +0100"	NA
"balloon.png"	84	0	27	27	19	245.266487900051	NA	NA	NA	NA	NA	NA	NA	NA	NA	NA	NA	NA	245.250183299999	245.266487900051	245.266487900051	245.266487900051	245.266487900051	245.266487900051	-0.00088700000196695	-0.00088700000196695	-0.00088700000196695	245.266487900051	250.318589200033	20	1	FALSE	"[0.008333333333333333, 0.008333333333333333, 0.008333333333333333, 0.008333333333333333, 0.008333333333333333, 0.008333333333333333, 0.008333333333333333, 0.008333333333333333, 0.008333333333333333, 0.008333333333333333, 0.008333333333333333, 0.008333333333333333, 0.008333333333333333, 0.008333333333333333, 0.008333333333333333, 0.008333333333333333, 0.008333333333333333, 0.008333333333333333, 0.008333333333333333, 0.008333333333333333, 0.008333333333333333]"	"[-0.39537037037037037, -0.39537037037037037, -0.39537037037037037, -0.39537037037037037, -0.39537037037037037, -0.39537037037037037, -0.39537037037037037, -0.39537037037037037, -0.39537037037037037, -0.39537037037037037, -0.39537037037037037, -0.39537037037037037, -0.39537037037037037, -0.39537037037037037, -0.39537037037037037, -0.39537037037037037, -0.39537037037037037, -0.39537037037037037, -0.39537037037037037, -0.39537037037037037, -0.39537037037037037]"	"[1, 1, 1, 1, 1, 1, 1, 1, 1, 1, 1, 1, 1, 1, 1, 1, 1, 1, 1, 1, 0]"	"[0, 0, 0, 0, 0, 0, 0, 0, 0, 0, 0, 0, 0, 0, 0, 0, 0, 0, 0, 0, 0]"	"[0, 0, 0, 0, 0, 0, 0, 0, 0, 0, 0, 0, 0, 0, 0, 0, 0, 0, 0, 0, 1]"	"[0.3087155999382958, 0.5086840000003576, 0.7086757000070065, 0.892237399937585, 1.083555300021544, 1.2754336999496445, 1.4502536000218242, 1.6502997999778017, 1.8419383999425918, 2.0336094999220222, 2.2252898999722674, 2.4169996000127867, 2.6087601999752223, 2.8003435999853536, 3.0337038999423385, 3.3171945000067353, 3.50057489995379, 3.975464400020428, 4.5921853999607265, 4.767318999976851, 5.067336399923079]"	21	"[0.3030797999817878, 0.5030466000316665, 0.7030343000078574, 0.8866003999719396, 1.0779122000094503, 1.2697934000752866, 1.4446123000234365, 1.6446572999702767, 1.83630439999979, 2.0279690000461414, 2.2196511999936774, 2.4113575000083074, 2.6031183999730274, 2.7947003999724984, 3.0280596000375226, 3.3115536000113934, 3.4949384999927133, 3.969826400047168, 4.586545899976045, 4.761678199982271, 5.061633600038476]"	"[0.36103789997287095, 0.5944243000121787, 0.7778544999891892, 0.9612188000464812, 1.1527613999787718, 1.3444428000366315, 1.527814400033094, 1.7444817000068724, 1.927957299980335, 2.1111547000473365, 2.311200199997984, 2.502853500074707, 2.7030718000605702, 2.8862394000170752, 3.1112523999763653, 3.361276200041175, 3.569640100002289, 4.0279728000750765, 4.6530296000419185, 4.828076199977659, 5.061637600068934]"	250.319569100044	250.325210900046	251.817254900001	251.833617000026	NA	NA	NA	NA	NA	NA	NA	22	"01"	"2024-02-14_15h04.55.183"	"BART_exp"	"2023.2.3"	119.943482759103	"2024-02-14 15h05.06.716293 +0100"	NA
"balloon.png"	75	0	28	28	17	251.833617000026	NA	NA	NA	NA	NA	NA	NA	NA	NA	NA	NA	NA	251.817449500086	251.833617000026	251.833617000026	251.833617000026	251.833617000026	251.833617000026	-0.00084200000856071	-0.00084200000856071	-0.00084200000856071	251.833617000026	256.643862800091	20	1	FALSE	"[0.008333333333333333, 0.008333333333333333, 0.008333333333333333, 0.008333333333333333, 0.008333333333333333, 0.008333333333333333, 0.008333333333333333, 0.008333333333333333, 0.008333333333333333, 0.008333333333333333, 0.008333333333333333, 0.008333333333333333, 0.008333333333333333, 0.008333333333333333, 0.008333333333333333, 0.008333333333333333, 0.008333333333333333, 0.008333333333333333, 0.008333333333333333, 0.008333333333333333, 0.008333333333333333]"	"[-0.39537037037037037, -0.39537037037037037, -0.39537037037037037, -0.39537037037037037, -0.39537037037037037, -0.39537037037037037, -0.39537037037037037, -0.39537037037037037, -0.39537037037037037, -0.39537037037037037, -0.39537037037037037, -0.39537037037037037, -0.39537037037037037, -0.39537037037037037, -0.39537037037037037, -0.39537037037037037, -0.39537037037037037, -0.39537037037037037, -0.39537037037037037, -0.39537037037037037, -0.39537037037037037]"	"[1, 1, 1, 1, 1, 1, 1, 1, 1, 1, 1, 1, 1, 1, 1, 1, 1, 1, 1, 1, 0]"	"[0, 0, 0, 0, 0, 0, 0, 0, 0, 0, 0, 0, 0, 0, 0, 0, 0, 0, 0, 0, 0]"	"[0, 0, 0, 0, 0, 0, 0, 0, 0, 0, 0, 0, 0, 0, 0, 0, 0, 0, 0, 0, 1]"	"[0.5420485000358894, 0.7337143999757245, 0.9253306000027806, 1.1255007999716327, 1.3253681000787765, 1.517037900048308, 1.7089471999788657, 1.9087272000033408, 2.100521399988793, 2.2920754000078887, 2.4836396999889985, 2.6505651000188664, 2.842057800036855, 3.0503659000387415, 3.317208499996923, 3.55890659999568, 3.7422728000674397, 3.925548700033687, 4.150579300010577, 4.50058320001699, 4.825487600057386]"	21	"[0.5333722999785095, 0.7250353000126779, 0.916654699947685, 1.1168271000497043, 1.3166927000274882, 1.5083619999932125, 1.700271200039424, 1.9000464000273496, 2.0918424000265077, 2.2834026999771595, 2.4749630000442266, 2.6418926999904215, 2.833379799965769, 3.0416860999539495, 3.3085308000445366, 3.5502282000379637, 3.733601500047371, 3.9168731999816373, 4.141902899951674, 4.491904900060035, 4.816744499956258]"	"[0.6247194999596104, 0.7997128999559209, 0.9998145999852568, 1.1914116999832913, 1.3914021999808028, 1.608081700047478, 1.8080929999705404, 1.9997617000481114, 2.1831325000384822, 2.3664750000461936, 2.5414714999496937, 2.7332235999638215, 2.933222800027579, 3.1248791000107303, 3.40822930005379, 3.62493849999737, 3.824897199985571, 4.008255599997938, 4.224937499966472, 4.591607099981047, 4.8167486999882385]"	256.644976700074	256.650619100081	258.142617500038	258.159084500046	NA	NA	NA	NA	NA	NA	NA	22	"01"	"2024-02-14_15h04.55.183"	"BART_exp"	"2023.2.3"	119.943482759103	"2024-02-14 15h05.06.716293 +0100"	NA
"balloon.png"	71	0	29	29	16	258.159084500046	NA	NA	NA	NA	NA	NA	NA	NA	NA	NA	NA	NA	258.14279860002	258.159084500046	258.159084500046	258.159084500046	258.159084500046	258.159084500046	-0.00092629995197057	-0.00092629995197057	-0.00092629995197057	258.159084500046	266.978087600088	40	2	FALSE	"[0.008333333333333333, 0.008333333333333333, 0.008333333333333333, 0.008333333333333333, 0.008333333333333333, 0.008333333333333333, 0.008333333333333333, 0.008333333333333333, 0.008333333333333333, 0.008333333333333333, 0.008333333333333333, 0.008333333333333333, 0.008333333333333333, 0.008333333333333333, 0.008333333333333333, 0.008333333333333333, 0.008333333333333333, 0.008333333333333333, 0.008333333333333333, 0.008333333333333333, 0.008333333333333333, 0.008333333333333333, 0.008333333333333333, 0.008333333333333333, 0.008333333333333333, 0.008333333333333333, 0.008333333333333333, 0.008333333333333333, 0.008333333333333333, 0.008333333333333333, 0.008333333333333333, 0.008333333333333333, 0.008333333333333333, 0.008333333333333333, 0.008333333333333333, 0.008333333333333333, 0.008333333333333333, 0.008333333333333333, 0.008333333333333333, 0.008333333333333333, 0.008333333333333333]"	"[-0.39537037037037037, -0.39537037037037037, -0.39537037037037037, -0.39537037037037037, -0.39537037037037037, -0.39537037037037037, -0.39537037037037037, -0.39537037037037037, -0.39537037037037037, -0.39537037037037037, -0.39537037037037037, -0.39537037037037037, -0.39537037037037037, -0.39537037037037037, -0.39537037037037037, -0.39537037037037037, -0.39537037037037037, -0.39537037037037037, -0.39537037037037037, -0.39537037037037037, -0.39537037037037037, -0.39537037037037037, -0.39537037037037037, -0.39537037037037037, -0.39537037037037037, -0.39537037037037037, -0.39537037037037037, -0.39537037037037037, -0.39537037037037037, -0.39537037037037037, -0.39537037037037037, -0.39537037037037037, -0.39537037037037037, -0.39537037037037037, -0.39537037037037037, -0.39537037037037037, -0.39537037037037037, -0.39537037037037037, -0.39537037037037037, -0.39537037037037037, -0.39537037037037037]"	"[1, 1, 1, 1, 1, 1, 1, 1, 1, 1, 1, 1, 1, 1, 1, 1, 1, 1, 1, 1, 1, 1, 1, 1, 1, 1, 1, 1, 1, 1, 1, 1, 1, 1, 1, 1, 1, 1, 1, 1, 0]"	"[0, 0, 0, 0, 0, 0, 0, 0, 0, 0, 0, 0, 0, 0, 0, 0, 0, 0, 0, 0, 0, 0, 0, 0, 0, 0, 0, 0, 0, 0, 0, 0, 0, 0, 0, 0, 0, 0, 0, 0, 0]"	"[0, 0, 0, 0, 0, 0, 0, 0, 0, 0, 0, 0, 0, 0, 0, 0, 0, 0, 0, 0, 0, 0, 0, 0, 0, 0, 0, 0, 0, 0, 0, 0, 0, 0, 0, 0, 0, 0, 0, 0, 1]"	"[0.6254459000192583, 0.850558599922806, 1.0254857999971136, 1.2256069999421015, 1.4422150999307632, 1.6421987999929115, 1.833863699925132, 2.042345199966803, 2.242250300012529, 2.450563299935311, 2.650585599942133, 2.84230000001844, 3.0589334999676794, 3.3504698999458924, 3.5840667999582365, 3.8090200999286026, 4.000701599987224, 4.175678399973549, 4.3588831999804825, 4.525546199991368, 4.717247199965641, 4.9005799000151455, 5.050746300024912, 5.217438400024548, 5.3925131999421865, 5.550673899939284, 5.725714899948798, 5.9006709000095725, 6.067339099943638, 6.2673825999954715, 6.467379799927585, 6.659344399929978, 6.834216099930927, 7.042571599944495, 7.234244899940677, 7.55925519997254, 7.767592099960893, 7.975983100011945, 8.184314799960703, 8.53417250001803, 8.834357299958356]"	41	"[0.622273400076665, 0.8473822000669315, 1.022306300001219, 1.2224315999774262, 1.4390467000193894, 1.6390243000350893, 1.8306809000205249, 2.0391692999983206, 2.2390689000021666, 2.4473889999790117, 2.647408700082451, 2.8391185000073165, 3.0557600000174716, 3.3472918000770733, 3.5808892999775708, 3.8058407000498846, 3.997522499994375, 4.172497000079602, 4.355704299989156, 4.522367800003849, 4.714064200059511, 4.8973960999865085, 5.047567500034347, 5.214259300031699, 5.389341400004923, 5.547497900086455, 5.722547500045039, 5.897494100034237, 6.064156200038269, 6.2642007999820635, 6.46420200006105, 6.65616430004593, 6.831039300072007, 7.039395000087097, 7.231065000058152, 7.556073400075547, 7.76441300008446, 7.972807900048792, 8.181134000071324, 8.53099740005564, 8.831118100089952]"	"[0.7052793999901041, 0.9136713000480086, 1.1219911000225693, 1.3138085000682622, 1.530358900083229, 1.7220276000443846, 1.9471038000192493, 2.147060999996029, 2.3305187000660226, 2.547108600032516, 2.7304467000067234, 2.930454200017266, 3.1638320999918506, 3.438824800075963, 3.6972436000360176, 3.8972004000097513, 4.088862800039351, 4.263866900000721, 4.438943100045435, 4.630612100008875, 4.788925800006837, 4.957105400040746, 5.130610099993646, 5.280627700034529, 5.47234960005153, 5.6139751999871805, 5.78065470000729, 5.964009099989198, 6.155717400019057, 6.34738589997869, 6.547389100072905, 6.739094700082205, 6.939063400030136, 7.122419700026512, 7.330801000003703, 7.6474484000355005, 7.847574200015515, 8.055805900017731, 8.264160900027491, 8.580881400033832, 8.831122200004756]"	266.979416500079	266.984756999998	268.476658700034	268.484798700083	NA	NA	NA	NA	NA	NA	NA	22	"01"	"2024-02-14_15h04.55.183"	"BART_exp"	"2023.2.3"	119.943482759103	"2024-02-14 15h05.06.716293 +0100"	NA
NA	NA	NA	NA	NA	NA	NA	NA	NA	NA	NA	NA	NA	NA	NA	NA	NA	NA	NA	NA	NA	NA	NA	NA	NA	NA	NA	NA	NA	NA	NA	NA	NA	NA	NA	NA	NA	NA	NA	NA	NA	NA	NA	NA	NA	NA	268.476693200064	268.484798700083	268.484798700083	281.91121540009	"space"	13.4251472000033	"None"	22	"01"	"2024-02-14_15h04.55.183"	"BART_exp"	"2023.2.3"	119.943482759103	"2024-02-14 15h05.06.716293 +0100"	NA
