"diceImage"	"d_number"	"dice_loop.thisRepN"	"dice_loop.thisTrialN"	"dice_loop.thisN"	"dice_loop.thisIndex"	"thisRow.t"	"notes"	"Start.started"	"text_start.started"	"continue_start.started"	"mouse_start.started"	"Start.stopped"	"mouse_start.x"	"mouse_start.y"	"mouse_start.leftButton"	"mouse_start.midButton"	"mouse_start.rightButton"	"mouse_start.time"	"trial.started"	"box_dice.started"	"text_dice_header.started"	"text_gain.started"	"value_gain.started"	"text_bank.started"	"value_bank.started"	"img_dice_1.started"	"img_dice_2.started"	"img_dice_3.started"	"img_dice_4.started"	"img_dice_5.started"	"img_dice_6.started"	"img_dice_1_2.started"	"img_dice_3_4.started"	"img_dice_5_6.started"	"img_dice_1_2_3.started"	"img_dice_4_5_6.started"	"img_dice_1_2_3_4.started"	"img_dice_2_3_4_5.started"	"img_dice_3_4_5_6.started"	"text_value_header.started"	"text_value_1000.started"	"text_value_500.started"	"text_value_200.started"	"text_value_100.started"	"mouse_task.started"	"gain_sound.started"	"img_dice_throw_trials.started"	"gain_sound.stopped"	"img_dice_throw_trials.stopped"	"trial.stopped"	"mouse_task.x"	"mouse_task.y"	"mouse_task.leftButton"	"mouse_task.midButton"	"mouse_task.rightButton"	"mouse_task.time"	"choice"	"gain"	"loss_sound.started"	"End.started"	"text_end.started"	"key_end.started"	"End.stopped"	"key_end.keys"	"key_end.rt"	"key_end.duration"	"participant"	"session"	"date"	"expName"	"psychopyVersion"	"frameRate"	"expStart"	"...75"
NA	NA	NA	NA	NA	NA	NA	NA	0.0404493999958504	0.0523280999914277	0.0523280999914277	0.040794200001983	26.7381703999999	"[0.6638888888888889]"	"[-0.38796296296296295]"	"[1]"	"[0]"	"[0]"	"[26.69680019999214]"	NA	NA	NA	NA	NA	NA	NA	NA	NA	NA	NA	NA	NA	NA	NA	NA	NA	NA	NA	NA	NA	NA	NA	NA	NA	NA	NA	NA	NA	NA	NA	NA	NA	NA	NA	NA	NA	NA	NA	NA	NA	NA	NA	NA	NA	NA	NA	NA	13	"01"	"2024-02-07_13h59.05.496"	"GDT_exp"	"2023.2.3"	119.972118490825	"2024-02-07 13h59.14.604496 +0100"	NA
"dice_1.png"	1	0	0	0	0	26.820908499998	NA	NA	NA	NA	NA	NA	NA	NA	NA	NA	NA	NA	26.7431829999987	26.820908499998	26.820908499998	26.820908499998	26.820908499998	26.820908499998	26.820908499998	26.820908499998	26.820908499998	26.820908499998	26.820908499998	26.820908499998	26.820908499998	26.820908499998	26.820908499998	26.820908499998	26.820908499998	26.820908499998	26.820908499998	26.820908499998	26.820908499998	26.820908499998	26.820908499998	26.820908499998	26.820908499998	26.820908499998	0.0233483999909367	3.80797689998872	30.6295086999889	5.31645359999675	32.1881288000004	32.149074099987	"[-0.6138888888888889, -0.6138888888888889]"	"[-0.34814814814814815, -0.34814814814814815]"	"[1, 0]"	"[0, 0]"	"[0, 1]"	"[3.6159716000111075, 3.749235100010992]"	4	100	NA	NA	NA	NA	NA	NA	NA	NA	13	"01"	"2024-02-07_13h59.05.496"	"GDT_exp"	"2023.2.3"	119.972118490825	"2024-02-07 13h59.14.604496 +0100"	NA
"dice_3.png"	3	0	1	1	2	32.1881288000004	NA	NA	NA	NA	NA	NA	NA	NA	NA	NA	NA	NA	32.1499913000007	32.1881288000004	32.1881288000004	32.1881288000004	32.1881288000004	32.1881288000004	32.1881288000004	32.1881288000004	32.1881288000004	32.1881288000004	32.1881288000004	32.1881288000004	32.1881288000004	32.1881288000004	32.1881288000004	32.1881288000004	32.1881288000004	32.1881288000004	32.1881288000004	32.1881288000004	32.1881288000004	32.1881288000004	32.1881288000004	32.1881288000004	32.1881288000004	32.1881288000004	0.0148670000053244	NA	37.1382680999959	NA	38.6967334999936	38.649582699989	"[-0.10555555555555556, -0.10555555555555556]"	"[-0.25462962962962965, -0.25462962962962965]"	"[1, 0]"	"[0, 0]"	"[0, 1]"	"[4.664856199990027, 4.898211899999296]"	3	-200	4.91341829999874	NA	NA	NA	NA	NA	NA	NA	13	"01"	"2024-02-07_13h59.05.496"	"GDT_exp"	"2023.2.3"	119.972118490825	"2024-02-07 13h59.14.604496 +0100"	NA
"dice_6.png"	6	0	2	2	5	38.6967334999936	NA	NA	NA	NA	NA	NA	NA	NA	NA	NA	NA	NA	38.6501306999999	38.6967334999936	38.6967334999936	38.6967334999936	38.6967334999936	38.6967334999936	38.6967334999936	38.6967334999936	38.6967334999936	38.6967334999936	38.6967334999936	38.6967334999936	38.6967334999936	38.6967334999936	38.6967334999936	38.6967334999936	38.6967334999936	38.6967334999936	38.6967334999936	38.6967334999936	38.6967334999936	38.6967334999936	38.6967334999936	38.6967334999936	38.6967334999936	38.6967334999936	0.0183203000051435	1.31353939999826	40.0386411999934	2.83867979999923	41.5886398000002	41.5497589999868	"[0.02962962962962963, 0.02962962962962963]"	"[-0.35555555555555557, -0.35555555555555557]"	"[1, 0]"	"[0, 0]"	"[0, 1]"	"[0.8279124999971827, 1.2946028000005754]"	4	100	NA	NA	NA	NA	NA	NA	NA	NA	13	"01"	"2024-02-07_13h59.05.496"	"GDT_exp"	"2023.2.3"	119.972118490825	"2024-02-07 13h59.14.604496 +0100"	NA
"dice_5.png"	5	0	3	3	4	41.5886398000002	NA	NA	NA	NA	NA	NA	NA	NA	NA	NA	NA	NA	41.550318900001	41.5886398000002	41.5886398000002	41.5886398000002	41.5886398000002	41.5886398000002	41.5886398000002	41.5886398000002	41.5886398000002	41.5886398000002	41.5886398000002	41.5886398000002	41.5886398000002	41.5886398000002	41.5886398000002	41.5886398000002	41.5886398000002	41.5886398000002	41.5886398000002	41.5886398000002	41.5886398000002	41.5886398000002	41.5886398000002	41.5886398000002	41.5886398000002	41.5886398000002	0.014674100006232	1.68018989999837	43.3054283999954	3.21366710000439	44.880468599993	44.833026399996	"[-0.1398148148148148, -0.1398148148148148]"	"[-0.23796296296296296, -0.23796296296296296]"	"[1, 0]"	"[0, 0]"	"[0, 1]"	"[1.2904344999988098, 1.6654314000043087]"	3	200	NA	NA	NA	NA	NA	NA	NA	NA	13	"01"	"2024-02-07_13h59.05.496"	"GDT_exp"	"2023.2.3"	119.972118490825	"2024-02-07 13h59.14.604496 +0100"	NA
"dice_2.png"	2	0	4	4	1	44.880468599993	NA	NA	NA	NA	NA	NA	NA	NA	NA	NA	NA	NA	44.8335693999979	44.880468599993	44.880468599993	44.880468599993	44.880468599993	44.880468599993	44.880468599993	44.880468599993	44.880468599993	44.880468599993	44.880468599993	44.880468599993	44.880468599993	44.880468599993	44.880468599993	44.880468599993	44.880468599993	44.880468599993	44.880468599993	44.880468599993	44.880468599993	44.880468599993	44.880468599993	44.880468599993	44.880468599993	44.880468599993	0.0179694000107702	NA	46.6389815000002	NA	48.1890346	48.1419312999933	"[-0.26481481481481484, -0.26481481481481484]"	"[-0.15833333333333333, -0.15833333333333333]"	"[1, 0]"	"[0, 0]"	"[0, 1]"	"[1.2705946000060067, 1.7207877000037115]"	2	-500	1.73882920001051	NA	NA	NA	NA	NA	NA	NA	13	"01"	"2024-02-07_13h59.05.496"	"GDT_exp"	"2023.2.3"	119.972118490825	"2024-02-07 13h59.14.604496 +0100"	NA
"dice_4.png"	4	0	5	5	3	48.1890346	NA	NA	NA	NA	NA	NA	NA	NA	NA	NA	NA	NA	48.1425239999953	48.1890346	48.1890346	48.1890346	48.1890346	48.1890346	48.1890346	48.1890346	48.1890346	48.1890346	48.1890346	48.1890346	48.1890346	48.1890346	48.1890346	48.1890346	48.1890346	48.1890346	48.1890346	48.1890346	48.1890346	48.1890346	48.1890346	48.1890346	48.1890346	48.1890346	0.0180108000058681	NA	52.6311346000002	NA	54.1894445999933	54.1501601999917	"[0.07962962962962963, 0.07962962962962963]"	"[-0.1675925925925926, -0.1675925925925926]"	"[1, 0]"	"[0, 0]"	"[0, 1]"	"[4.195341200000257, 4.39539559998957]"	2	-500	4.4136748000019	NA	NA	NA	NA	NA	NA	NA	13	"01"	"2024-02-07_13h59.05.496"	"GDT_exp"	"2023.2.3"	119.972118490825	"2024-02-07 13h59.14.604496 +0100"	NA
"dice_1.png"	1	1	0	6	0	54.1894445999933	NA	NA	NA	NA	NA	NA	NA	NA	NA	NA	NA	NA	54.1506982999999	54.1894445999933	54.1894445999933	54.1894445999933	54.1894445999933	54.1894445999933	54.1894445999933	54.1894445999933	54.1894445999933	54.1894445999933	54.1894445999933	54.1894445999933	54.1894445999933	54.1894445999933	54.1894445999933	54.1894445999933	54.1894445999933	54.1894445999933	54.1894445999933	54.1894445999933	54.1894445999933	54.1894445999933	54.1894445999933	54.1894445999933	54.1894445999933	54.1894445999933	0.0145197999954689	NA	54.8311527999904	NA	56.3896051999909	56.3503762999899	"[0.041666666666666664, 0.041666666666666664]"	"[-0.3425925925925926, -0.3425925925925926]"	"[1, 0]"	"[0, 0]"	"[0, 1]"	"[0.14084629999706522, 0.5910020000010263]"	4	-100	0.605598099995404	NA	NA	NA	NA	NA	NA	NA	13	"01"	"2024-02-07_13h59.05.496"	"GDT_exp"	"2023.2.3"	119.972118490825	"2024-02-07 13h59.14.604496 +0100"	NA
"dice_2.png"	2	1	1	7	1	56.3896051999909	NA	NA	NA	NA	NA	NA	NA	NA	NA	NA	NA	NA	56.3509035999887	56.3896051999909	56.3896051999909	56.3896051999909	56.3896051999909	56.3896051999909	56.3896051999909	56.3896051999909	56.3896051999909	56.3896051999909	56.3896051999909	56.3896051999909	56.3896051999909	56.3896051999909	56.3896051999909	56.3896051999909	56.3896051999909	56.3896051999909	56.3896051999909	56.3896051999909	56.3896051999909	56.3896051999909	56.3896051999909	56.3896051999909	56.3896051999909	56.3896051999909	0.0149426999996649	2.28901409999526	58.706420699993	3.79746919999889	60.2481917999976	60.2094108999881	"[-0.6666666666666666, -0.6666666666666666]"	"[-0.34444444444444444, -0.34444444444444444]"	"[1, 0]"	"[0, 0]"	"[0, 1]"	"[0.07532940000237431, 2.273974299998372]"	4	100	NA	NA	NA	NA	NA	NA	NA	NA	13	"01"	"2024-02-07_13h59.05.496"	"GDT_exp"	"2023.2.3"	119.972118490825	"2024-02-07 13h59.14.604496 +0100"	NA
"dice_5.png"	5	1	2	8	4	60.2481917999976	NA	NA	NA	NA	NA	NA	NA	NA	NA	NA	NA	NA	60.2099833999964	60.2481917999976	60.2481917999976	60.2481917999976	60.2481917999976	60.2481917999976	60.2481917999976	60.2481917999976	60.2481917999976	60.2481917999976	60.2481917999976	60.2481917999976	60.2481917999976	60.2481917999976	60.2481917999976	60.2481917999976	60.2481917999976	60.2481917999976	60.2481917999976	60.2481917999976	60.2481917999976	60.2481917999976	60.2481917999976	60.2481917999976	60.2481917999976	60.2481917999976	0.0149493000062648	3.00529349999852	63.2902185999992	4.52214130001084	64.8486443000002	64.8013829999982	"[-0.34074074074074073, -0.34074074074074073]"	"[-0.35648148148148145, -0.35648148148148145]"	"[1, 0]"	"[0, 0]"	"[0, 1]"	"[2.5153596000018297, 2.9903369000094244]"	4	100	NA	NA	NA	NA	NA	NA	NA	NA	13	"01"	"2024-02-07_13h59.05.496"	"GDT_exp"	"2023.2.3"	119.972118490825	"2024-02-07 13h59.14.604496 +0100"	NA
"dice_3.png"	3	1	3	9	2	64.8486443000002	NA	NA	NA	NA	NA	NA	NA	NA	NA	NA	NA	NA	64.8019777000009	64.8486443000002	64.8486443000002	64.8486443000002	64.8486443000002	64.8486443000002	64.8486443000002	64.8486443000002	64.8486443000002	64.8486443000002	64.8486443000002	64.8486443000002	64.8486443000002	64.8486443000002	64.8486443000002	64.8486443000002	64.8486443000002	64.8486443000002	64.8486443000002	64.8486443000002	64.8486443000002	64.8486443000002	64.8486443000002	64.8486443000002	64.8486443000002	64.8486443000002	0.0180495999957202	2.8552173999924	67.7238705999916	4.37204099999508	69.290605999995	69.2462087999884	"[-0.3212962962962963, -0.3212962962962963]"	"[-0.35555555555555557, -0.35555555555555557]"	"[1, 0]"	"[0, 0]"	"[0, 1]"	"[2.378461899992544, 2.8368064999958733]"	4	100	NA	NA	NA	NA	NA	NA	NA	NA	13	"01"	"2024-02-07_13h59.05.496"	"GDT_exp"	"2023.2.3"	119.972118490825	"2024-02-07 13h59.14.604496 +0100"	NA
"dice_6.png"	6	1	4	10	5	69.290605999995	NA	NA	NA	NA	NA	NA	NA	NA	NA	NA	NA	NA	69.2467890999978	69.290605999995	69.290605999995	69.290605999995	69.290605999995	69.290605999995	69.290605999995	69.290605999995	69.290605999995	69.290605999995	69.290605999995	69.290605999995	69.290605999995	69.290605999995	69.290605999995	69.290605999995	69.290605999995	69.290605999995	69.290605999995	69.290605999995	69.290605999995	69.290605999995	69.290605999995	69.290605999995	69.290605999995	69.290605999995	0.0176219999993918	NA	71.1655276999954	NA	72.7073858999938	72.6682516000001	"[-0.2972222222222222, -0.2972222222222222]"	"[-0.35648148148148145, -0.35648148148148145]"	"[1, 0]"	"[0, 0]"	"[0, 1]"	"[1.2009471000055782, 1.8344489000010071]"	4	-100	1.85230119999324	NA	NA	NA	NA	NA	NA	NA	13	"01"	"2024-02-07_13h59.05.496"	"GDT_exp"	"2023.2.3"	119.972118490825	"2024-02-07 13h59.14.604496 +0100"	NA
"dice_4.png"	4	1	5	11	3	72.7073858999938	NA	NA	NA	NA	NA	NA	NA	NA	NA	NA	NA	NA	72.6688300999958	72.7073858999938	72.7073858999938	72.7073858999938	72.7073858999938	72.7073858999938	72.7073858999938	72.7073858999938	72.7073858999938	72.7073858999938	72.7073858999938	72.7073858999938	72.7073858999938	72.7073858999938	72.7073858999938	72.7073858999938	72.7073858999938	72.7073858999938	72.7073858999938	72.7073858999938	72.7073858999938	72.7073858999938	72.7073858999938	72.7073858999938	72.7073858999938	72.7073858999938	0.0179917000059504	0.947100299992599	73.6824747999926	2.47226799999771	75.2409085999971	75.2018714000005	"[-0.2361111111111111, -0.2361111111111111]"	"[-0.3509259259259259, -0.3509259259259259]"	"[1, 0]"	"[0, 0]"	"[0, 1]"	"[0.48738399999274407, 0.9288818000059109]"	4	100	NA	NA	NA	NA	NA	NA	NA	NA	13	"01"	"2024-02-07_13h59.05.496"	"GDT_exp"	"2023.2.3"	119.972118490825	"2024-02-07 13h59.14.604496 +0100"	NA
"dice_6.png"	6	2	0	12	5	75.2409085999971	NA	NA	NA	NA	NA	NA	NA	NA	NA	NA	NA	NA	75.2024829000002	75.2409085999971	75.2409085999971	75.2409085999971	75.2409085999971	75.2409085999971	75.2409085999971	75.2409085999971	75.2409085999971	75.2409085999971	75.2409085999971	75.2409085999971	75.2409085999971	75.2409085999971	75.2409085999971	75.2409085999971	75.2409085999971	75.2409085999971	75.2409085999971	75.2409085999971	75.2409085999971	75.2409085999971	75.2409085999971	75.2409085999971	75.2409085999971	75.2409085999971	0.0149070000043139	NA	76.0910946999938	NA	77.6410535999894	77.6017087999935	"[-0.2361111111111111, -0.2361111111111111]"	"[-0.3509259259259259, -0.3509259259259259]"	"[1, 0]"	"[0, 0]"	"[0, 1]"	"[0.3982267999963369, 0.8065882999944733]"	4	-100	0.821953100006795	NA	NA	NA	NA	NA	NA	NA	13	"01"	"2024-02-07_13h59.05.496"	"GDT_exp"	"2023.2.3"	119.972118490825	"2024-02-07 13h59.14.604496 +0100"	NA
"dice_3.png"	3	2	1	13	2	77.6410535999894	NA	NA	NA	NA	NA	NA	NA	NA	NA	NA	NA	NA	77.6022319999902	77.6410535999894	77.6410535999894	77.6410535999894	77.6410535999894	77.6410535999894	77.6410535999894	77.6410535999894	77.6410535999894	77.6410535999894	77.6410535999894	77.6410535999894	77.6410535999894	77.6410535999894	77.6410535999894	77.6410535999894	77.6410535999894	77.6410535999894	77.6410535999894	77.6410535999894	77.6410535999894	77.6410535999894	77.6410535999894	77.6410535999894	77.6410535999894	77.6410535999894	0.0145643000141717	1.00568760000169	78.674459899994	2.53918780000822	80.2495640999987	80.2107351999875	"[-0.2388888888888889, -0.2388888888888889]"	"[-0.3509259259259259, -0.3509259259259259]"	"[1, 0]"	"[0, 0]"	"[0, 1]"	"[0.49097720001009293, 0.9907550000061747]"	4	100	NA	NA	NA	NA	NA	NA	NA	NA	13	"01"	"2024-02-07_13h59.05.496"	"GDT_exp"	"2023.2.3"	119.972118490825	"2024-02-07 13h59.14.604496 +0100"	NA
"dice_4.png"	4	2	2	14	3	80.2495640999987	NA	NA	NA	NA	NA	NA	NA	NA	NA	NA	NA	NA	80.2113168999931	80.2495640999987	80.2495640999987	80.2495640999987	80.2495640999987	80.2495640999987	80.2495640999987	80.2495640999987	80.2495640999987	80.2495640999987	80.2495640999987	80.2495640999987	80.2495640999987	80.2495640999987	80.2495640999987	80.2495640999987	80.2495640999987	80.2495640999987	80.2495640999987	80.2495640999987	80.2495640999987	80.2495640999987	80.2495640999987	80.2495640999987	80.2495640999987	80.2495640999987	0.0148513000021921	1.05513100000098	81.3328904999944	2.56362279999303	82.891412099998	82.844242799998	"[-0.07962962962962963, -0.07962962962962963]"	"[-0.25277777777777777, -0.2537037037037037]"	"[1, 0]"	"[0, 0]"	"[0, 1]"	"[0.6566640999953961, 1.0400406999979168]"	3	200	NA	NA	NA	NA	NA	NA	NA	NA	13	"01"	"2024-02-07_13h59.05.496"	"GDT_exp"	"2023.2.3"	119.972118490825	"2024-02-07 13h59.14.604496 +0100"	NA
"dice_1.png"	1	2	3	15	0	82.891412099998	NA	NA	NA	NA	NA	NA	NA	NA	NA	NA	NA	NA	82.8448102999973	82.891412099998	82.891412099998	82.891412099998	82.891412099998	82.891412099998	82.891412099998	82.891412099998	82.891412099998	82.891412099998	82.891412099998	82.891412099998	82.891412099998	82.891412099998	82.891412099998	82.891412099998	82.891412099998	82.891412099998	82.891412099998	82.891412099998	82.891412099998	82.891412099998	82.891412099998	82.891412099998	82.891412099998	82.891412099998	0.0181830000074115	0.638465299998643	83.5581410999876	2.1552931000042	85.1082356999977	85.0609246999957	"[-0.4888888888888889, -0.4888888888888889]"	"[-0.23981481481481481, -0.23981481481481481]"	"[1, 0]"	"[0, 0]"	"[0, 1]"	"[0.22852340000099503, 0.6200599000003422]"	3	200	NA	NA	NA	NA	NA	NA	NA	NA	13	"01"	"2024-02-07_13h59.05.496"	"GDT_exp"	"2023.2.3"	119.972118490825	"2024-02-07 13h59.14.604496 +0100"	NA
"dice_5.png"	5	2	4	16	4	85.1082356999977	NA	NA	NA	NA	NA	NA	NA	NA	NA	NA	NA	NA	85.0615052999929	85.1082356999977	85.1082356999977	85.1082356999977	85.1082356999977	85.1082356999977	85.1082356999977	85.1082356999977	85.1082356999977	85.1082356999977	85.1082356999977	85.1082356999977	85.1082356999977	85.1082356999977	85.1082356999977	85.1082356999977	85.1082356999977	85.1082356999977	85.1082356999977	85.1082356999977	85.1082356999977	85.1082356999977	85.1082356999977	85.1082356999977	85.1082356999977	85.1082356999977	0.017884500004584	NA	86.7667107999878	NA	88.3417868999968	88.3028314999974	"[-0.2833333333333333, -0.2833333333333333]"	"[-0.15185185185185185, -0.1527777777777778]"	"[1, 0]"	"[0, 0]"	"[0, 1]"	"[1.3456034999981057, 1.6205705999891507]"	2	-500	1.63868449999427	NA	NA	NA	NA	NA	NA	NA	13	"01"	"2024-02-07_13h59.05.496"	"GDT_exp"	"2023.2.3"	119.972118490825	"2024-02-07 13h59.14.604496 +0100"	NA
"dice_2.png"	2	2	5	17	1	88.3417868999968	NA	NA	NA	NA	NA	NA	NA	NA	NA	NA	NA	NA	88.3034403999918	88.3417868999968	88.3417868999968	88.3417868999968	88.3417868999968	88.3417868999968	88.3417868999968	88.3417868999968	88.3417868999968	88.3417868999968	88.3417868999968	88.3417868999968	88.3417868999968	88.3417868999968	88.3417868999968	88.3417868999968	88.3417868999968	88.3417868999968	88.3417868999968	88.3417868999968	88.3417868999968	88.3417868999968	88.3417868999968	88.3417868999968	88.3417868999968	88.3417868999968	0.0147136000014143	3.23872169999231	91.6170117000002	4.76386730000377	93.1422311999922	93.1279011000006	"[-0.65, -0.65]"	"[-0.35648148148148145, -0.35648148148148145]"	"[1, 0]"	"[0, 0]"	"[0, 1]"	"[2.923982199994498, 3.223748799995519]"	4	100	NA	NA	NA	NA	NA	NA	NA	NA	13	"01"	"2024-02-07_13h59.05.496"	"GDT_exp"	"2023.2.3"	119.972118490825	"2024-02-07 13h59.14.604496 +0100"	NA
NA	NA	NA	NA	NA	NA	NA	NA	NA	NA	NA	NA	NA	NA	NA	NA	NA	NA	NA	NA	NA	NA	NA	NA	NA	NA	NA	NA	NA	NA	NA	NA	NA	NA	NA	NA	NA	NA	NA	NA	NA	NA	NA	NA	NA	NA	NA	NA	NA	NA	NA	NA	NA	NA	NA	NA	NA	NA	NA	NA	93.1283534999966	93.1422311999922	93.1422311999922	101.401468099997	"space"	8.2537483000051	"None"	13	"01"	"2024-02-07_13h59.05.496"	"GDT_exp"	"2023.2.3"	119.972118490825	"2024-02-07 13h59.14.604496 +0100"	NA
