"image"	"max_pumps"	"pump_loop.thisRepN"	"pump_loop.thisTrialN"	"pump_loop.thisN"	"pump_loop.thisIndex"	"thisRow.t"	"notes"	"Start.started"	"text_start.started"	"continue_start.started"	"mouse_start.started"	"Start.stopped"	"mouse_start.x"	"mouse_start.y"	"mouse_start.leftButton"	"mouse_start.midButton"	"mouse_start.rightButton"	"mouse_start.time"	"trials.started"	"stim_balloon.started"	"stim_balloon_burst.started"	"stim_balloon_burst.stopped"	"text_ballon_value.started"	"text_bank.started"	"mouse.started"	"sound_bang.started"	"sound_bang.stopped"	"button_balloon.started"	"trials.stopped"	"n_pumps"	"earnings"	"popped"	"mouse.x"	"mouse.y"	"mouse.leftButton"	"mouse.midButton"	"mouse.rightButton"	"mouse.time"	"button_balloon.numClicks"	"button_balloon.timesOn"	"button_balloon.timesOff"	"Feedback.started"	"text_feedback.started"	"Feedback.stopped"	"text_feedback.stopped"	"End.started"	"text_end.started"	"key_end.started"	"End.stopped"	"key_end.keys"	"key_end.rt"	"key_end.duration"	"participant"	"session"	"date"	"expName"	"psychopyVersion"	"frameRate"	"expStart"	"...61"
NA	NA	NA	NA	NA	NA	NA	NA	0.0368706999579445	0.0423369999043643	0.0423369999043643	0.0372062999522313	117.801122899982	"[0.7129629629629629]"	"[-0.4083333333333333]"	"[1]"	"[0]"	"[0]"	"[117.76331860001665]"	NA	NA	NA	NA	NA	NA	NA	NA	NA	NA	NA	NA	NA	NA	NA	NA	NA	NA	NA	NA	NA	NA	NA	NA	NA	NA	NA	NA	NA	NA	NA	NA	NA	NA	20	"02"	"2024-02-14_11h21.12.515"	"BART_exp"	"2023.2.3"	119.996448133967	"2024-02-14 11h21.23.995348 +0100"	NA
"balloon.png"	31	0	0	0	7	117.875650999951	NA	NA	NA	NA	NA	NA	NA	NA	NA	NA	NA	NA	117.808697299915	117.875650999951	117.875650999951	117.875650999951	117.875650999951	117.875650999951	0.00915870000608265	0.00915870000608265	0.00915870000608265	117.875650999951	123.91110789997	15	0.75	FALSE	"[0.03611111111111111, 0.03611111111111111, 0.03611111111111111, 0.03611111111111111, 0.03611111111111111, 0.03611111111111111, 0.03611111111111111, 0.03611111111111111, 0.03611111111111111, 0.03611111111111111, 0.03611111111111111, 0.03611111111111111, 0.03611111111111111, 0.03611111111111111, 0.03611111111111111, 0.03611111111111111]"	"[-0.3768518518518518, -0.3768518518518518, -0.3768518518518518, -0.3768518518518518, -0.3768518518518518, -0.3768518518518518, -0.3768518518518518, -0.3768518518518518, -0.3768518518518518, -0.3768518518518518, -0.3768518518518518, -0.3768518518518518, -0.3768518518518518, -0.3768518518518518, -0.3768518518518518, -0.3768518518518518]"	"[1, 1, 1, 1, 1, 1, 1, 1, 1, 1, 1, 1, 1, 1, 1, 0]"	"[0, 0, 0, 0, 0, 0, 0, 0, 0, 0, 0, 0, 0, 0, 0, 0]"	"[0, 0, 0, 0, 0, 0, 0, 0, 0, 0, 0, 0, 0, 0, 0, 1]"	"[1.7927079999353737, 2.0928818999091163, 2.4177921999944374, 2.6011142999632284, 2.8011245999950916, 2.9928565999725834, 3.176143499906175, 3.3678219999419525, 3.559504000004381, 3.759502499946393, 3.9596713999053463, 4.542897599982098, 4.901450400007889, 5.151277799974196, 5.367973999935202, 6.101487800013274]"	16	"[1.7371390999760479, 2.037309200037271, 2.362218700000085, 2.545538700069301, 2.745552400010638, 2.937300299992785, 3.120569200022146, 3.312276200042106, 3.503936400054954, 3.7039361000061035, 3.9041088999947533, 4.487322699977085, 4.845876200008206, 5.095707400003448, 5.312399300048128, 6.045856100041419]"	"[1.8786571000237018, 2.2120228999992833, 2.428713700035587, 2.63704920001328, 2.828809199971147, 3.0204102999996394, 3.2287605999736115, 3.412175100063905, 3.620481100049801, 3.8037849999964237, 4.01213629997801, 4.612215299974196, 4.978876000037417, 5.212227600044571, 5.412233700044453, 6.045860400074162]"	123.912381300004	123.926075599971	125.417883899994	NA	NA	NA	NA	NA	NA	NA	NA	20	"02"	"2024-02-14_11h21.12.515"	"BART_exp"	"2023.2.3"	119.996448133967	"2024-02-14 11h21.23.995348 +0100"	NA
"balloon.png"	66	0	1	1	15	125.434575199964	NA	NA	NA	NA	NA	NA	NA	NA	NA	NA	NA	NA	125.418058699928	125.434575199964	125.434575199964	125.434575199964	125.434575199964	125.434575199964	0.00689610000699758	0.00689610000699758	0.00689610000699758	125.434575199964	130.486609600019	20	1	FALSE	"[0.03611111111111111, 0.03611111111111111, 0.03611111111111111, 0.03611111111111111, 0.03611111111111111, 0.03611111111111111, 0.03611111111111111, 0.03611111111111111, 0.03611111111111111, 0.03611111111111111, 0.03611111111111111, 0.03611111111111111, 0.03611111111111111, 0.03611111111111111, 0.03611111111111111, 0.03611111111111111, 0.03611111111111111, 0.03611111111111111, 0.03611111111111111, 0.03611111111111111, 0.03611111111111111]"	"[-0.37592592592592594, -0.37592592592592594, -0.3768518518518518, -0.3768518518518518, -0.3768518518518518, -0.37592592592592594, -0.375, -0.375, -0.375, -0.375, -0.375, -0.375, -0.375, -0.375, -0.375, -0.375, -0.375, -0.375, -0.3731481481481482, -0.3685185185185185, -0.3685185185185185]"	"[1, 1, 1, 1, 1, 1, 1, 1, 1, 1, 1, 1, 1, 1, 1, 1, 1, 1, 1, 1, 0]"	"[0, 0, 0, 0, 0, 0, 0, 0, 0, 0, 0, 0, 0, 0, 0, 0, 0, 0, 0, 0, 0]"	"[0, 0, 0, 0, 0, 0, 0, 0, 0, 0, 0, 0, 0, 0, 0, 0, 0, 0, 0, 0, 1]"	"[0.3754832000704482, 0.5921884000999853, 0.800664700102061, 0.9922977000242099, 1.1838561000768095, 1.3755538000259548, 1.5839005000889301, 1.7672839000588283, 1.9339212999911979, 2.117274400079623, 2.300891400082037, 2.4841003000037745, 2.659285100060515, 2.8425046000629663, 3.009119400056079, 3.1841157000744715, 3.367421100032516, 3.559039800078608, 3.7424291000934318, 4.192666199989617, 5.067648100084625]"	20	"[0.36957320000510663, 0.7947599000763148, 0.9863855000585318, 1.1779397999634966, 1.3696449999697506, 1.5779938000487164, 1.7613698999630287, 1.9280194999882951, 2.111361899995245, 2.2949848000425845, 2.478185100015253, 2.6533699000719935, 2.836596400011331, 3.0032107000006363, 3.1782061000121757, 3.3615128999808803, 3.553123899968341, 3.7365139999892563, 4.186778199975379, 5.061680700047873]"	"[0.7112741000019014, 0.9027808000100777, 1.0944664999842644, 1.2861337000504136, 1.4695927000138909, 1.6612027999944985, 1.8445101999677718, 2.0113305000122637, 2.2114223999669775, 2.4028936000540853, 2.586266800062731, 2.7697824999922886, 2.93627110007219, 3.111356900073588, 3.286295300000347, 3.469664299977012, 3.6612906999653205, 3.836379299988039, 4.303052500006743, 5.0616849999642]"	130.487754100002	130.493223099969	131.985189299914	131.993303700001	NA	NA	NA	NA	NA	NA	NA	20	"02"	"2024-02-14_11h21.12.515"	"BART_exp"	"2023.2.3"	119.996448133967	"2024-02-14 11h21.23.995348 +0100"	NA
"balloon.png"	110	0	2	2	25	131.993303700001	NA	NA	NA	NA	NA	NA	NA	NA	NA	NA	NA	NA	131.985379499965	131.993303700001	131.993303700001	131.993303700001	131.993303700001	131.993303700001	0.00560969999060034	0.00560969999060034	0.00560969999060034	131.993303700001	135.053553099977	13	0.65	FALSE	"[0.03611111111111111, 0.03611111111111111, 0.037037037037037035, 0.037037037037037035, 0.037037037037037035, 0.037037037037037035, 0.037037037037037035, 0.037037037037037035, 0.037037037037037035, 0.03796296296296296, 0.03796296296296296, 0.03796296296296296, 0.03796296296296296, 0.03796296296296296]"	"[-0.3685185185185185, -0.3685185185185185, -0.3685185185185185, -0.3685185185185185, -0.3685185185185185, -0.3685185185185185, -0.36944444444444446, -0.37037037037037035, -0.37037037037037035, -0.37222222222222223, -0.3712962962962963, -0.3712962962962963, -0.3712962962962963, -0.3712962962962963]"	"[1, 1, 1, 1, 1, 1, 1, 1, 1, 1, 1, 1, 1, 0]"	"[0, 0, 0, 0, 0, 0, 0, 0, 0, 0, 0, 0, 0, 0]"	"[0, 0, 0, 0, 0, 0, 0, 0, 0, 0, 0, 0, 0, 1]"	"[0.4087183999363333, 0.5836287999991328, 0.7586346999742091, 0.9254725999198854, 1.083846699912101, 1.250482799950987, 1.4171071999007836, 1.567094299942255, 1.7171978999394923, 1.8755709999240935, 2.033913999912329, 2.20886079990305, 2.3754493999294937, 3.0672726999036968]"	14	"[0.4068902999861166, 0.5817999000428244, 0.7568029999965802, 0.9236423000693321, 1.0820157000562176, 1.2486498000798747, 1.4152759000426158, 1.565266599995084, 1.715362000046298, 1.8737425999715924, 2.0320803000358865, 2.207030300050974, 2.3736129000317305, 3.0653771000215784]"	"[0.5067331000464037, 0.6899741999804974, 0.8649954000720754, 1.0316896999720484, 1.1900996000040323, 1.3566951000830159, 1.5066878000507131, 1.640067100059241, 1.8067343999864534, 1.9817348000360653, 2.140076300012879, 2.290099799982272, 2.4734459000173956, 3.0653816000558436]"	135.054381800001	135.060187399969	136.552184299915	136.57695909997	NA	NA	NA	NA	NA	NA	NA	20	"02"	"2024-02-14_11h21.12.515"	"BART_exp"	"2023.2.3"	119.996448133967	"2024-02-14 11h21.23.995348 +0100"	NA
"balloon.png"	27	0	3	3	6	136.57695909997	NA	NA	NA	NA	NA	NA	NA	NA	NA	NA	NA	NA	136.552361899987	136.57695909997	136.57695909997	136.57695909997	136.57695909997	136.57695909997	-0.00078430003486573	-0.00078430003486573	-0.00078430003486573	136.57695909997	142.937610699912	28	1.35	TRUE	"[0.040740740740740744, 0.040740740740740744, 0.040740740740740744, 0.040740740740740744, 0.040740740740740744, 0.040740740740740744, 0.040740740740740744, 0.040740740740740744, 0.040740740740740744, 0.040740740740740744, 0.040740740740740744, 0.040740740740740744, 0.040740740740740744, 0.040740740740740744, 0.040740740740740744, 0.040740740740740744, 0.040740740740740744, 0.040740740740740744, 0.040740740740740744, 0.040740740740740744, 0.040740740740740744, 0.040740740740740744, 0.040740740740740744, 0.040740740740740744, 0.040740740740740744, 0.040740740740740744, 0.040740740740740744, 0.040740740740740744]"	"[-0.3685185185185185, -0.3685185185185185, -0.3685185185185185, -0.3685185185185185, -0.3685185185185185, -0.3685185185185185, -0.3685185185185185, -0.3685185185185185, -0.3685185185185185, -0.3685185185185185, -0.3685185185185185, -0.3685185185185185, -0.3685185185185185, -0.3685185185185185, -0.3685185185185185, -0.3685185185185185, -0.3685185185185185, -0.3685185185185185, -0.3685185185185185, -0.3685185185185185, -0.3685185185185185, -0.3675925925925926, -0.3675925925925926, -0.3675925925925926, -0.3675925925925926, -0.3675925925925926, -0.3675925925925926, -0.3675925925925926]"	"[1, 1, 1, 1, 1, 1, 1, 1, 1, 1, 1, 1, 1, 1, 1, 1, 1, 1, 1, 1, 1, 1, 1, 1, 1, 1, 1, 1]"	"[0, 0, 0, 0, 0, 0, 0, 0, 0, 0, 0, 0, 0, 0, 0, 0, 0, 0, 0, 0, 0, 0, 0, 0, 0, 0, 0, 0]"	"[0, 0, 0, 0, 0, 0, 0, 0, 0, 0, 0, 0, 0, 0, 0, 0, 0, 0, 0, 0, 0, 0, 0, 0, 0, 0, 0, 0]"	"[0.06707809993531555, 0.25882389990147203, 0.45036709995474666, 0.6253739999374375, 0.7836839999072254, 0.9505045999540016, 1.1171721999999136, 1.2923281999537721, 1.4671952999196947, 1.6421828999882564, 1.8186170998960733, 2.0170816999161616, 2.2087391999084502, 2.4338463000021875, 2.6504358999663964, 2.850600400008261, 3.067340199952014, 3.258965199929662, 3.483990599983372, 3.6756603999529034, 3.8673210999695584, 4.35063659993466, 4.534076699987054, 4.734168499941006, 5.225629900000058, 5.417299799970351, 5.892520800000057, 6.242549299960956]"	28	"[0.055465999990701675, 0.2472116999560967, 0.4387611999409273, 0.6137638000072911, 0.7720727999694645, 0.9388960999203846, 1.1055669999914244, 1.2807332000229508, 1.455584799987264, 1.6305695999180898, 1.8071760999737307, 2.0054661999456584, 2.197124999947846, 2.422238599974662, 2.6388216000050306, 2.838985599926673, 3.0557294000172988, 3.2473517999751493, 3.4723784999223426, 3.664045999990776, 3.8557107999222353, 4.33902820001822, 4.522468699957244, 4.722555499989539, 5.214016799931414, 5.405689099919982, 5.88091299997177, 6.230934799998067]"	"[0.11349389993119985, 0.3636248999973759, 0.5385178999276832, 0.7218882999150082, 0.8719188999384642, 1.0302448999136686, 1.2052527000196278, 1.3635925999842584, 1.546931599965319, 1.738624699995853, 1.9136495999991894, 2.1053212999831885, 2.3053250999655575, 2.513661199947819, 2.7553557999199256, 2.947029299917631, 3.1720488999271765, 3.355381599976681, 3.588810299988836, 3.780556399957277, 3.9721402999712154, 4.438807799946517, 4.630484899971634, 4.805518499924801, 5.322202599956654, 5.555545500013977, 6.022287799976766, 6.363941099960357]"	142.938709700014	142.952408200013	144.444238799973	NA	NA	NA	NA	NA	NA	NA	NA	20	"02"	"2024-02-14_11h21.12.515"	"BART_exp"	"2023.2.3"	119.996448133967	"2024-02-14 11h21.23.995348 +0100"	NA
"balloon.png"	10	0	4	4	2	144.460884899949	NA	NA	NA	NA	NA	NA	NA	NA	NA	NA	NA	NA	144.444413799909	144.460884899949	144.460884899949	144.460884899949	144.460884899949	144.460884899949	0.00699949997942894	0.00699949997942894	0.00699949997942894	144.460884899949	147.088020099909	11	0.5	TRUE	"[0.040740740740740744, 0.040740740740740744, 0.040740740740740744, 0.040740740740740744, 0.040740740740740744, 0.040740740740740744, 0.040740740740740744, 0.041666666666666664, 0.041666666666666664, 0.041666666666666664, 0.041666666666666664]"	"[-0.36666666666666664, -0.36666666666666664, -0.36666666666666664, -0.36666666666666664, -0.36666666666666664, -0.36666666666666664, -0.36666666666666664, -0.36666666666666664, -0.36666666666666664, -0.36666666666666664, -0.36666666666666664]"	"[1, 1, 1, 1, 1, 1, 1, 1, 1, 1, 1]"	"[0, 0, 0, 0, 0, 0, 0, 0, 0, 0, 0]"	"[0, 0, 0, 0, 0, 0, 0, 0, 0, 0, 0]"	"[0.4839664999162778, 0.742151299957186, 0.9591632999945432, 1.142338000005111, 1.3757610999746248, 1.575713999918662, 1.775728499982506, 1.984081899980083, 2.184105799999088, 2.3590578999137506, 2.534063300001435]"	11	"[0.47389139991719276, 0.7320713999215513, 0.9490861999802291, 1.132265800028108, 1.3656877999892458, 1.5656362000154331, 1.7656458999263123, 1.9739971000235528, 2.1740283999824896, 2.3489768999861553, 2.523986699990928]"	"[0.640229900018312, 0.8319210999179631, 1.0320509999291971, 1.2569496999494731, 1.4819691999582574, 1.681989699951373, 1.8819864999968559, 2.082027000025846, 2.275004499941133, 2.4403807999333367, 2.6237096999539062]"	147.088816699921	147.094364299905	148.586368399905	148.602807199932	NA	NA	NA	NA	NA	NA	NA	20	"02"	"2024-02-14_11h21.12.515"	"BART_exp"	"2023.2.3"	119.996448133967	"2024-02-14 11h21.23.995348 +0100"	NA
"balloon.png"	23	0	5	5	5	148.602807199932	NA	NA	NA	NA	NA	NA	NA	NA	NA	NA	NA	NA	148.586558699957	148.602807199932	148.602807199932	148.602807199932	148.602807199932	148.602807199932	-0.00086380005814135	-0.00086380005814135	-0.00086380005814135	148.602807199932	152.43810629996	14	0.7	FALSE	"[0.03981481481481482, 0.03981481481481482, 0.03981481481481482, 0.03981481481481482, 0.03981481481481482, 0.03981481481481482, 0.03981481481481482, 0.03981481481481482, 0.03981481481481482, 0.03981481481481482, 0.03981481481481482, 0.03981481481481482, 0.03981481481481482, 0.03981481481481482, 0.03981481481481482]"	"[-0.39537037037037037, -0.39537037037037037, -0.39537037037037037, -0.39537037037037037, -0.39537037037037037, -0.39537037037037037, -0.39537037037037037, -0.39537037037037037, -0.39537037037037037, -0.39537037037037037, -0.39537037037037037, -0.39537037037037037, -0.3962962962962963, -0.3962962962962963, -0.3962962962962963]"	"[1, 1, 1, 1, 1, 1, 1, 1, 1, 1, 1, 1, 1, 1, 0]"	"[0, 0, 0, 0, 0, 0, 0, 0, 0, 0, 0, 0, 0, 0, 0]"	"[0, 0, 0, 0, 0, 0, 0, 0, 0, 0, 0, 0, 0, 0, 1]"	"[0.6088711000047624, 0.8337806999916211, 1.0421345999930054, 1.2504866999806836, 1.4588066000724211, 1.6504953000694513, 1.8421717000892386, 2.0338592000771314, 2.233881900086999, 2.4255662000505254, 2.6255445000715554, 2.8257161000510678, 3.018659600056708, 3.200784799992107, 3.8506281999871135]"	15	"[0.6012017999310046, 0.8261029999703169, 1.034459299989976, 1.2428110999753699, 1.4511324999621138, 1.6428195999469608, 1.8344911999301985, 2.0261809999356046, 2.2262021999340504, 2.4178877000231296, 2.6178693999536335, 2.8180435999529436, 3.0111450999975204, 3.1931063999654725, 3.842886499944143]"	"[0.7760216000024229, 0.9675173999276012, 1.1425045999931172, 1.3508692999603227, 1.5592728999909014, 1.750845699920319, 1.9508377999300137, 2.1342380000278354, 2.3342228999827057, 2.53426300000865, 2.750921299913898, 2.9342917000176385, 3.1259356000227854, 3.309327899944037, 3.8428905999753624]"	152.438942899927	152.444739999948	153.936712799943	153.953185499995	NA	NA	NA	NA	NA	NA	NA	20	"02"	"2024-02-14_11h21.12.515"	"BART_exp"	"2023.2.3"	119.996448133967	"2024-02-14 11h21.23.995348 +0100"	NA
"balloon.png"	88	0	6	6	20	153.953185499995	NA	NA	NA	NA	NA	NA	NA	NA	NA	NA	NA	NA	153.936889400007	153.953185499995	153.953185499995	153.953185499995	153.953185499995	153.953185499995	-0.00079340010415762	-0.00079340010415762	-0.00079340010415762	153.953185499995	159.930133999907	20	1	FALSE	"[0.03518518518518519, 0.03518518518518519, 0.03518518518518519, 0.03518518518518519, 0.03518518518518519, 0.03518518518518519, 0.03518518518518519, 0.03518518518518519, 0.03518518518518519, 0.03518518518518519, 0.03518518518518519, 0.03518518518518519, 0.03518518518518519, 0.03518518518518519, 0.03518518518518519, 0.03518518518518519, 0.03518518518518519, 0.03518518518518519, 0.03518518518518519, 0.03518518518518519, 0.03518518518518519]"	"[-0.39351851851851855, -0.39444444444444443, -0.39444444444444443, -0.39444444444444443, -0.39444444444444443, -0.39444444444444443, -0.39444444444444443, -0.39444444444444443, -0.39444444444444443, -0.39444444444444443, -0.39444444444444443, -0.39444444444444443, -0.39444444444444443, -0.39444444444444443, -0.39444444444444443, -0.39444444444444443, -0.39537037037037037, -0.39537037037037037, -0.39537037037037037, -0.39537037037037037, -0.39537037037037037]"	"[1, 1, 1, 1, 1, 1, 1, 1, 1, 1, 1, 1, 1, 1, 1, 1, 1, 1, 1, 1, 0]"	"[0, 0, 0, 0, 0, 0, 0, 0, 0, 0, 0, 0, 0, 0, 0, 0, 0, 0, 0, 0, 0]"	"[0, 0, 0, 0, 0, 0, 0, 0, 0, 0, 0, 0, 0, 0, 0, 0, 0, 0, 0, 0, 1]"	"[0.23414050007704645, 0.47549380001146346, 0.6671346999937668, 0.8588177000638098, 1.0755027000559494, 1.2671708000125363, 1.4755822999868542, 1.6588791999965906, 1.8505394000094384, 2.0672301000449806, 2.275595900020562, 2.4589563000481576, 2.642326300032437, 2.98382980003953, 3.1755928000202402, 3.3921728000277653, 3.633847000077367, 3.900695300078951, 5.2341081000631675, 5.450780100072734, 5.99233020003885]"	21	"[0.22671389998868108, 0.4680464999983087, 0.6596872999798506, 0.8513780999928713, 1.0680547000374645, 1.259722499991767, 1.4681354999775067, 1.6514304999727756, 1.8430919999955222, 2.0597798000089824, 2.2681468999944627, 2.45151020004414, 2.6348806000314653, 2.976382700027898, 3.168159499997273, 3.3847221999894828, 3.626400899956934, 3.893255200004205, 5.226664799964055, 5.443326200009324, 5.984820400015451]"	"[0.40105680003762245, 0.5844889000291005, 0.7844101999653503, 0.9844041999895126, 1.184434299939312, 1.3844209000235423, 1.5761216999962926, 1.7511254999553785, 1.9513419000431895, 2.1680461999494582, 2.384499300038442, 2.576200500014238, 2.8762050999794155, 3.076223099953495, 3.267926099942997, 3.501242500031367, 3.801268000039272, 5.209790299995802, 5.418067799997516, 5.60973569995258, 5.984824599931017]"	159.931227199966	159.936940199928	161.428918199963	161.44544349995	NA	NA	NA	NA	NA	NA	NA	20	"02"	"2024-02-14_11h21.12.515"	"BART_exp"	"2023.2.3"	119.996448133967	"2024-02-14 11h21.23.995348 +0100"	NA
"balloon.png"	18	0	7	7	4	161.44544349995	NA	NA	NA	NA	NA	NA	NA	NA	NA	NA	NA	NA	161.429095399915	161.44544349995	161.44544349995	161.44544349995	161.44544349995	161.44544349995	-0.00088509998749941	-0.00088509998749941	-0.00088509998749941	161.44544349995	165.947412699927	18	0.9	FALSE	"[0.03518518518518519, 0.03518518518518519, 0.03518518518518519, 0.03518518518518519, 0.03518518518518519, 0.03518518518518519, 0.03518518518518519, 0.03518518518518519, 0.03518518518518519, 0.03518518518518519, 0.03518518518518519, 0.03518518518518519, 0.03518518518518519, 0.03518518518518519, 0.03518518518518519, 0.03518518518518519, 0.03518518518518519, 0.03518518518518519, 0.03518518518518519]"	"[-0.39537037037037037, -0.39537037037037037, -0.39537037037037037, -0.39537037037037037, -0.39537037037037037, -0.39537037037037037, -0.39537037037037037, -0.39537037037037037, -0.39537037037037037, -0.39537037037037037, -0.39537037037037037, -0.39537037037037037, -0.39537037037037037, -0.39537037037037037, -0.39537037037037037, -0.39537037037037037, -0.39537037037037037, -0.39537037037037037, -0.39537037037037037]"	"[1, 1, 1, 1, 1, 1, 1, 1, 1, 1, 1, 1, 1, 1, 1, 1, 1, 1, 0]"	"[0, 0, 0, 0, 0, 0, 0, 0, 0, 0, 0, 0, 0, 0, 0, 0, 0, 0, 0]"	"[0, 0, 0, 0, 0, 0, 0, 0, 0, 0, 0, 0, 0, 0, 0, 0, 0, 0, 1]"	"[0.30865110002923757, 0.5254072999814525, 0.7170017999596894, 0.9003104999428615, 1.1003935999469832, 1.3170039999531582, 1.5253632999956608, 1.7337211000267416, 1.9505456000333652, 2.1338539000134915, 2.3339106999337673, 2.5422317000338808, 2.7506289000157267, 2.9506004999857396, 3.1506595999235287, 3.342293699970469, 3.550684400019236, 4.06722179998178, 4.517392199952155]"	19	"[0.30325719993561506, 0.5200148000149056, 0.7116133000236005, 0.8949227000121027, 1.0949986999621615, 1.3116158000193536, 1.5199729999294505, 1.7283339999848977, 1.94515980000142, 2.128461099928245, 2.32851609995123, 2.5368413999676704, 2.7452328000217676, 2.945204999996349, 3.1452672999585047, 3.3368959999643266, 3.5452926999423653, 4.061828000005335, 4.511935599963181]"	"[0.44480709999334067, 0.6364417999284342, 0.8448057000059634, 1.0198097999673337, 1.2367269999813288, 1.444861299940385, 1.6365356999449432, 1.8448412999277934, 2.061610499978997, 2.2532655999530107, 2.445210999925621, 2.6532489999663085, 2.8615937000140548, 3.069959399988875, 3.2699550999095663, 3.4533129999181256, 3.6533026999095455, 4.111664599971846, 4.511939799995162]"	165.948283899925	165.954026899999	167.44599649997	167.462491399958	NA	NA	NA	NA	NA	NA	NA	20	"02"	"2024-02-14_11h21.12.515"	"BART_exp"	"2023.2.3"	119.996448133967	"2024-02-14 11h21.23.995348 +0100"	NA
"balloon.png"	57	0	8	8	13	167.462491399958	NA	NA	NA	NA	NA	NA	NA	NA	NA	NA	NA	NA	167.446175599936	167.462491399958	167.462491399958	167.462491399958	167.462491399958	167.462491399958	-0.0008513000793755	-0.0008513000793755	-0.0008513000793755	167.462491399958	173.03953379998	20	1	FALSE	"[0.03518518518518519, 0.03518518518518519, 0.03518518518518519, 0.03518518518518519, 0.03518518518518519, 0.03518518518518519, 0.03518518518518519, 0.03518518518518519, 0.03518518518518519, 0.03518518518518519, 0.03518518518518519, 0.03518518518518519, 0.03518518518518519, 0.03425925925925926, 0.03333333333333333, 0.03333333333333333, 0.032407407407407406, 0.032407407407407406, 0.03148148148148148, 0.03148148148148148, 0.03148148148148148]"	"[-0.39537037037037037, -0.39537037037037037, -0.39537037037037037, -0.39537037037037037, -0.39537037037037037, -0.39537037037037037, -0.39537037037037037, -0.39537037037037037, -0.39537037037037037, -0.39537037037037037, -0.39537037037037037, -0.39537037037037037, -0.39537037037037037, -0.3962962962962963, -0.3962962962962963, -0.3972222222222222, -0.3972222222222222, -0.3990740740740741, -0.3990740740740741, -0.3990740740740741, -0.3990740740740741]"	"[1, 1, 1, 1, 1, 1, 1, 1, 1, 1, 1, 1, 1, 1, 1, 1, 1, 1, 1, 1, 0]"	"[0, 0, 0, 0, 0, 0, 0, 0, 0, 0, 0, 0, 0, 0, 0, 0, 0, 0, 0, 0, 0]"	"[0, 0, 0, 0, 0, 0, 0, 0, 0, 0, 0, 0, 0, 0, 0, 0, 0, 0, 0, 0, 1]"	"[0.150501599884592, 0.45864379999693483, 0.650322699919343, 0.8753903999458998, 1.083740699919872, 1.2921274999389425, 1.4920581999467686, 1.7004678999073803, 1.9005224999273196, 2.133901899913326, 2.3756018999265507, 2.6004480998963118, 2.817289499915205, 3.0421607999596745, 3.242189999902621, 3.458832799922675, 3.675688899937086, 3.8923731999238953, 4.10074959998019, 4.558916499954648, 5.592441299930215]"	21	"[0.14285459998063743, 0.45098809991031885, 0.642675600014627, 0.8677519999910146, 1.0760941000189632, 1.2844812999246642, 1.4844084999058396, 1.6928161999676377, 1.892877799924463, 2.126252999994904, 2.3679511999944225, 2.592794799944386, 2.8096353999571875, 3.0345123999286443, 3.2345421999925748, 3.4511847000103444, 3.6680437999311835, 3.8847211999818683, 4.093153299996629, 4.551262799999677, 5.584728799993172]"	"[0.37583519995678216, 0.5508315999759361, 0.7425284999189898, 0.9591789999976754, 1.159272399963811, 1.3675430999137461, 1.584298999980092, 1.7842537999385968, 2.0092856999253854, 2.24260829994455, 2.4676263999426737, 2.700982899987139, 2.9259848999790847, 3.134354199981317, 3.3510519999545068, 3.5593671000096947, 3.776113700005226, 4.00108169997111, 4.201089899986982, 4.676225399947725, 5.584732999908738]"	173.040551999933	173.046191099915	174.538146600011	174.554628300015	NA	NA	NA	NA	NA	NA	NA	20	"02"	"2024-02-14_11h21.12.515"	"BART_exp"	"2023.2.3"	119.996448133967	"2024-02-14 11h21.23.995348 +0100"	NA
"balloon.png"	105	0	9	9	24	174.554628300015	NA	NA	NA	NA	NA	NA	NA	NA	NA	NA	NA	NA	174.538320499938	174.554628300015	174.554628300015	174.554628300015	174.554628300015	174.554628300015	-0.00099190010223537	-0.00099190010223537	-0.00099190010223537	174.554628300015	177.43150289997	10	0.5	FALSE	"[0.03148148148148148, 0.03148148148148148, 0.03148148148148148, 0.03148148148148148, 0.03148148148148148, 0.03148148148148148, 0.03148148148148148, 0.03148148148148148, 0.03148148148148148, 0.03148148148148148, 0.03148148148148148]"	"[-0.3972222222222222, -0.3972222222222222, -0.3972222222222222, -0.3972222222222222, -0.3972222222222222, -0.3972222222222222, -0.3972222222222222, -0.3972222222222222, -0.3972222222222222, -0.3972222222222222, -0.3972222222222222]"	"[1, 1, 1, 1, 1, 1, 1, 1, 1, 1, 0]"	"[0, 0, 0, 0, 0, 0, 0, 0, 0, 0, 0]"	"[0, 0, 0, 0, 0, 0, 0, 0, 0, 0, 1]"	"[0.42556239990517497, 0.6255119999404997, 0.8088433999801055, 1.00883999990765, 1.2089348000008613, 1.4005823999177665, 1.6088756999233738, 1.8005421999841928, 1.9922410999424756, 2.4922983999131247, 2.8922931000124663]"	11	"[0.41936890000943094, 0.6193109999876469, 0.8026427999138832, 1.0026461000088602, 1.2027326999232173, 1.3943781999405473, 1.6026714999461547, 1.7943379000062123, 1.9860440000193194, 2.486098499968648, 2.886026499909349]"	"[0.552314699976705, 0.7273702999809757, 0.919038699939847, 1.1190358999883756, 1.3024214999750257, 1.5107524999184534, 1.7107209999812767, 1.9023979000048712, 2.0691215000115335, 2.619129200000316, 2.8860308999428526]"	177.432246199925	177.438161699916	178.930178700015	178.946604499943	NA	NA	NA	NA	NA	NA	NA	20	"02"	"2024-02-14_11h21.12.515"	"BART_exp"	"2023.2.3"	119.996448133967	"2024-02-14 11h21.23.995348 +0100"	NA
"balloon.png"	101	0	10	10	23	178.946604499943	NA	NA	NA	NA	NA	NA	NA	NA	NA	NA	NA	NA	178.930363999913	178.946604499943	178.946604499943	178.946604499943	178.946604499943	178.946604499943	-0.00051969999913126	-0.00051969999913126	-0.00051969999913126	178.946604499943	185.907063099905	30	1.5	FALSE	"[0.03148148148148148, 0.03148148148148148, 0.03148148148148148, 0.03148148148148148, 0.03148148148148148, 0.03148148148148148, 0.03148148148148148, 0.03148148148148148, 0.03148148148148148, 0.03148148148148148, 0.03148148148148148, 0.03148148148148148, 0.03148148148148148, 0.03148148148148148, 0.03148148148148148, 0.03148148148148148, 0.03148148148148148, 0.03148148148148148, 0.03148148148148148, 0.03148148148148148, 0.03148148148148148, 0.03148148148148148, 0.03333333333333333, 0.03333333333333333, 0.03333333333333333, 0.03333333333333333, 0.03333333333333333, 0.03333333333333333, 0.03333333333333333, 0.03333333333333333, 0.03333333333333333]"	"[-0.3972222222222222, -0.3972222222222222, -0.3972222222222222, -0.3972222222222222, -0.3972222222222222, -0.3972222222222222, -0.3972222222222222, -0.3972222222222222, -0.3972222222222222, -0.3972222222222222, -0.3972222222222222, -0.3972222222222222, -0.3972222222222222, -0.3972222222222222, -0.3972222222222222, -0.3972222222222222, -0.3972222222222222, -0.3972222222222222, -0.3972222222222222, -0.3972222222222222, -0.3972222222222222, -0.3972222222222222, -0.3972222222222222, -0.3972222222222222, -0.3972222222222222, -0.3972222222222222, -0.3972222222222222, -0.3972222222222222, -0.3972222222222222, -0.3972222222222222, -0.3972222222222222]"	"[1, 1, 1, 1, 1, 1, 1, 1, 1, 1, 1, 1, 1, 1, 1, 1, 1, 1, 1, 1, 1, 1, 1, 1, 1, 1, 1, 1, 1, 1, 0]"	"[0, 0, 0, 0, 0, 0, 0, 0, 0, 0, 0, 0, 0, 0, 0, 0, 0, 0, 0, 0, 0, 0, 0, 0, 0, 0, 0, 0, 0, 0, 0]"	"[0, 0, 0, 0, 0, 0, 0, 0, 0, 0, 0, 0, 0, 0, 0, 0, 0, 0, 0, 0, 0, 0, 0, 0, 0, 0, 0, 0, 0, 0, 1]"	"[0.10858130000997335, 0.3003559000790119, 0.5085582000901923, 0.7098955000983551, 0.8920713000698015, 1.1004108000779524, 1.2837927000364289, 1.4837937999982387, 1.7003047000616789, 1.908655200037174, 2.1171395001001656, 2.3255743000190705, 2.533697500010021, 2.7253892000298947, 2.9088311000959948, 3.0838724999921396, 3.250576800084673, 3.4256058000028133, 3.6005805000895634, 3.758837900008075, 3.908777700038627, 4.075746800052002, 4.284084100043401, 4.508818100090139, 4.692260900046676, 5.075688100070693, 5.350711400038563, 5.867434100015089, 6.092455700039864, 6.5506628000875935, 6.975749000092037]"	31	"[0.10472179995849729, 0.2964853000594303, 0.5046870999503881, 0.7061595000559464, 0.8882050999673083, 1.0965397000545636, 1.279928799951449, 1.4799286000197753, 1.6964408999774605, 1.904789000051096, 2.113270999980159, 2.3217118000611663, 2.529833700042218, 2.7215216000331566, 2.9049614999676123, 3.080002799979411, 3.246708399965428, 3.42173990001902, 3.5967102999566123, 3.754969700006768, 3.9049105000449345, 4.071877700043842, 4.280220399959944, 4.504946200060658, 4.6883951999479905, 5.071817800053395, 5.346842500031926, 5.863566400017589, 6.088588800048456, 6.54679449996911, 6.971820299979299]"	"[0.2128379000350833, 0.40452039998490363, 0.5961895999498665, 0.7962326999986544, 0.996266599977389, 1.1962799000320956, 1.3879412000533193, 1.587922399980016, 1.796292999992147, 2.0129714000504464, 2.221311999950558, 2.429749900009483, 2.638002800056711, 2.8297028000233695, 3.0047479999484494, 3.1798007000470534, 3.3547431000042707, 3.5297880000434816, 3.7131266000214964, 3.854787699994631, 4.013108400045894, 4.171486199949868, 4.413113699993119, 4.613193699973635, 4.788165900041349, 5.204847899964079, 5.463197399978526, 5.988253799965605, 6.204924499965273, 6.671636700048111, 6.971824700012803]"	185.908293499961	185.913776499918	187.405777000007	187.422226299997	NA	NA	NA	NA	NA	NA	NA	20	"02"	"2024-02-14_11h21.12.515"	"BART_exp"	"2023.2.3"	119.996448133967	"2024-02-14 11h21.23.995348 +0100"	NA
"balloon.png"	5	0	11	11	1	187.422226299997	NA	NA	NA	NA	NA	NA	NA	NA	NA	NA	NA	NA	187.405955799972	187.422226299997	187.422226299997	187.422226299997	187.422226299997	187.422226299997	-0.00096380000468343	-0.00096380000468343	-0.00096380000468343	187.422226299997	188.90748449997	6	0.25	TRUE	"[0.03333333333333333, 0.03333333333333333, 0.03333333333333333, 0.03333333333333333, 0.03333333333333333, 0.03333333333333333]"	"[-0.3972222222222222, -0.3972222222222222, -0.3972222222222222, -0.3972222222222222, -0.3972222222222222, -0.3972222222222222]"	"[1, 1, 1, 1, 1, 1]"	"[0, 0, 0, 0, 0, 0]"	"[0, 0, 0, 0, 0, 0]"	"[0.27523660007864237, 0.4835733000654727, 0.6919282000744715, 0.9255867000902072, 1.1587906000204384, 1.3754650000482798]"	6	"[0.2670034000184387, 0.47533560008741915, 0.6836868000682443, 0.9173541000345722, 1.1505539000499994, 1.3672258000588045]"	"[0.4001905000768602, 0.6002071000402793, 0.8086729000788182, 1.0335612000199035, 1.2585913999937475, 1.4836195000680164]"	188.908169499948	188.913968799985	190.405925199972	190.422411500011	NA	NA	NA	NA	NA	NA	NA	20	"02"	"2024-02-14_11h21.12.515"	"BART_exp"	"2023.2.3"	119.996448133967	"2024-02-14 11h21.23.995348 +0100"	NA
"balloon.png"	114	0	12	12	26	190.422411500011	NA	NA	NA	NA	NA	NA	NA	NA	NA	NA	NA	NA	190.406108099967	190.422411500011	190.422411500011	190.422411500011	190.422411500011	190.422411500011	-0.00074309995397925	-0.00074309995397925	-0.00074309995397925	190.422411500011	195.34120029991	16	0.8	FALSE	"[0.03333333333333333, 0.03333333333333333, 0.03333333333333333, 0.03333333333333333, 0.03333333333333333, 0.03333333333333333, 0.03333333333333333, 0.03333333333333333, 0.03333333333333333, 0.03333333333333333, 0.03333333333333333, 0.03333333333333333, 0.03333333333333333, 0.03333333333333333, 0.03333333333333333, 0.03333333333333333, 0.03333333333333333]"	"[-0.3972222222222222, -0.3972222222222222, -0.3972222222222222, -0.3972222222222222, -0.3972222222222222, -0.3972222222222222, -0.3972222222222222, -0.3972222222222222, -0.3972222222222222, -0.3972222222222222, -0.3972222222222222, -0.3972222222222222, -0.3972222222222222, -0.3972222222222222, -0.3972222222222222, -0.3972222222222222, -0.3972222222222222]"	"[1, 1, 1, 1, 1, 1, 1, 1, 1, 1, 1, 1, 1, 1, 1, 1, 0]"	"[0, 0, 0, 0, 0, 0, 0, 0, 0, 0, 0, 0, 0, 0, 0, 0, 0]"	"[0, 0, 0, 0, 0, 0, 0, 0, 0, 0, 0, 0, 0, 0, 0, 0, 1]"	"[0.2587787000229582, 0.45867029996588826, 0.6586809000000358, 0.8587103000609204, 1.0587052999762818, 1.258826700039208, 1.458730599959381, 1.6254448000108823, 1.8171522000338882, 2.167287899996154, 2.3672884000698105, 2.9006264000199735, 3.092285400023684, 3.292343100067228, 3.9257525000721216, 4.225626299972646, 4.934188300045207]"	17	"[0.25051230005919933, 0.4503923000302166, 0.650405399966985, 0.8504268999677151, 1.0504227000055835, 1.2505469999741763, 1.4504474999848753, 1.6171672999626026, 1.808871699962765, 2.1590073000406846, 2.359003599965945, 2.8923467999557033, 3.0840070999693125, 3.2840606999816373, 3.9174672999652103, 4.217348100035451, 4.925849299994297]"	"[0.3585923999780789, 0.5669793999986723, 0.7752646000590175, 0.9669289999874309, 1.150273000006564, 1.3337183999828994, 1.533645199961029, 1.7003201000625268, 1.8919944000663236, 2.2670413999585435, 2.4670460000634193, 2.9753920000512153, 3.1837548000039533, 3.3340151000302285, 4.000631500035524, 4.350510300020687, 4.9258538000285625]"	195.342100000009	195.347757400014	196.83972119994	196.856210800004	NA	NA	NA	NA	NA	NA	NA	20	"02"	"2024-02-14_11h21.12.515"	"BART_exp"	"2023.2.3"	119.996448133967	"2024-02-14 11h21.23.995348 +0100"	NA
"balloon.png"	44	0	13	13	10	196.856210800004	NA	NA	NA	NA	NA	NA	NA	NA	NA	NA	NA	NA	196.839901099913	196.856210800004	196.856210800004	196.856210800004	196.856210800004	196.856210800004	-0.00095630006399005	-0.00095630006399005	-0.00095630006399005	196.856210800004	204.058260199963	18	0.9	FALSE	"[0.03333333333333333, 0.03333333333333333, 0.03333333333333333, 0.03333333333333333, 0.03333333333333333, 0.03333333333333333, 0.03333333333333333, 0.03333333333333333, 0.03333333333333333, 0.03333333333333333, 0.03333333333333333, 0.03425925925925926, 0.03425925925925926, 0.03425925925925926, 0.03425925925925926, 0.03425925925925926, 0.03425925925925926, 0.03425925925925926, 0.03425925925925926]"	"[-0.3972222222222222, -0.3972222222222222, -0.3972222222222222, -0.3972222222222222, -0.3972222222222222, -0.3972222222222222, -0.3972222222222222, -0.3972222222222222, -0.39814814814814814, -0.39814814814814814, -0.39814814814814814, -0.39814814814814814, -0.39814814814814814, -0.39814814814814814, -0.39814814814814814, -0.39814814814814814, -0.39814814814814814, -0.39814814814814814, -0.39814814814814814]"	"[1, 1, 1, 1, 1, 1, 1, 1, 1, 1, 1, 1, 1, 1, 1, 1, 1, 1, 0]"	"[0, 0, 0, 0, 0, 0, 0, 0, 0, 0, 0, 0, 0, 0, 0, 0, 0, 0, 0]"	"[0, 0, 0, 0, 0, 0, 0, 0, 0, 0, 0, 0, 0, 0, 0, 0, 0, 0, 1]"	"[0.6087459999835119, 0.8253744000103325, 1.0086824999889359, 1.7921071000164375, 2.058873699977994, 2.292261500027962, 2.5090238000266254, 2.717309799976647, 2.925899700028822, 3.175563900033012, 3.4423821000382304, 3.675870200037025, 4.450618100003339, 4.684089299989864, 4.950803600018844, 5.234023299999535, 5.459280499955639, 5.992582599981688, 7.217453200020827]"	19	"[0.6042674999916926, 0.8208938000025228, 1.0042039999971166, 1.7876289000269026, 2.0543940000934526, 2.2877843000460416, 2.504540599999018, 2.712827500072308, 2.9214160999981686, 3.17107829998713, 3.4378960999893025, 3.67139200004749, 4.446138500003144, 4.679603100055829, 4.9463194001000375, 5.229544300003909, 5.454802200081758, 5.988097100052983, 7.212906900094822]"	"[0.7040315000340343, 0.9124042000621557, 1.1053879000246525, 1.8874587999889627, 2.170873200055212, 2.379162300028838, 2.5960862000938505, 2.821037200046703, 3.03754440008197, 3.2708800000837073, 3.5293329000705853, 3.770937400055118, 4.595969700021669, 4.820973200025037, 5.046158400014974, 5.287723500048742, 5.62105350010097, 6.112797100096941, 7.212911400012672]"	204.059168200009	204.065038900007	205.557035199949	205.573475799989	NA	NA	NA	NA	NA	NA	NA	20	"02"	"2024-02-14_11h21.12.515"	"BART_exp"	"2023.2.3"	119.996448133967	"2024-02-14 11h21.23.995348 +0100"	NA
"balloon.png"	14	0	14	14	3	205.573475799989	NA	NA	NA	NA	NA	NA	NA	NA	NA	NA	NA	NA	205.557220499963	205.573475799989	205.573475799989	205.573475799989	205.573475799989	205.573475799989	-0.00067970005329698	-0.00067970005329698	-0.00067970005329698	205.573475799989	210.258650099975	8	0.4	FALSE	"[0.03425925925925926, 0.03425925925925926, 0.03425925925925926, 0.03425925925925926, 0.03425925925925926, 0.03425925925925926, 0.03425925925925926, 0.03425925925925926, 0.03425925925925926]"	"[-0.39814814814814814, -0.39814814814814814, -0.39814814814814814, -0.39814814814814814, -0.4, -0.4, -0.4, -0.4, -0.4]"	"[1, 1, 1, 1, 1, 1, 1, 1, 0]"	"[0, 0, 0, 0, 0, 0, 0, 0, 0]"	"[0, 0, 0, 0, 0, 0, 0, 0, 1]"	"[0.7589013000251725, 1.2503120999317616, 1.525426400010474, 1.7671852000057697, 2.350592299946584, 2.592357399989851, 3.1756051999982446, 3.9339630999602377, 4.700520599959418]"	9	"[0.752012100070715, 1.2434116000076756, 1.5101212000008672, 1.760286399978213, 2.3436986000742763, 2.5854588000802323, 3.1687060999684036, 3.9270684000803158, 4.693557000020519]"	"[0.8932255000108853, 1.3599774000467733, 1.6183532000286505, 1.868292300030589, 2.4433480000589043, 2.701732399989851, 3.310074600041844, 4.068506699986756, 4.693561300053261]"	210.259332599933	210.265473000007	211.75743379991	211.773909599986	NA	NA	NA	NA	NA	NA	NA	20	"02"	"2024-02-14_11h21.12.515"	"BART_exp"	"2023.2.3"	119.996448133967	"2024-02-14 11h21.23.995348 +0100"	NA
"balloon.png"	118	0	15	15	27	211.773909599986	NA	NA	NA	NA	NA	NA	NA	NA	NA	NA	NA	NA	211.757610399975	211.773909599986	211.773909599986	211.773909599986	211.773909599986	211.773909599986	-0.00047609989996999	-0.00047609989996999	-0.00047609989996999	211.773909599986	217.834273500019	20	1	FALSE	"[0.03518518518518519, 0.03518518518518519, 0.03518518518518519, 0.03518518518518519, 0.03518518518518519, 0.03518518518518519, 0.03518518518518519, 0.03518518518518519, 0.03518518518518519, 0.03518518518518519, 0.03518518518518519, 0.03518518518518519, 0.03611111111111111, 0.03611111111111111, 0.03611111111111111, 0.03611111111111111, 0.03611111111111111, 0.03611111111111111, 0.03611111111111111, 0.03611111111111111, 0.03611111111111111]"	"[-0.4, -0.4, -0.4, -0.4, -0.4, -0.4, -0.4, -0.4, -0.4, -0.4, -0.4, -0.4, -0.4, -0.4, -0.4, -0.4, -0.4, -0.4, -0.4, -0.4, -0.4]"	"[1, 1, 1, 1, 1, 1, 1, 1, 1, 1, 1, 1, 1, 1, 1, 1, 1, 1, 1, 1, 0]"	"[0, 0, 0, 0, 0, 0, 0, 0, 0, 0, 0, 0, 0, 0, 0, 0, 0, 0, 0, 0, 0]"	"[0, 0, 0, 0, 0, 0, 0, 0, 0, 0, 0, 0, 0, 0, 0, 0, 0, 0, 0, 0, 1]"	"[0.25036740000359714, 0.4586330000311136, 0.6922272000228986, 0.9087129000108689, 1.1338746000546962, 1.3422651001019403, 1.5588871000800282, 1.7839444000273943, 2.008946800022386, 2.2255870000226423, 2.458891300018877, 2.7340061001013964, 2.975670700077899, 3.19217270007357, 3.417327900067903, 3.6597648001043126, 3.8922173000173643, 4.342547600041144, 4.667294700047933, 5.234322000062093, 6.075750700081699]"	21	"[0.24367640004493296, 0.45194709999486804, 0.685537000070326, 0.9020195000339299, 1.1271839000983164, 1.3355852999957278, 1.5521950999973342, 1.7772562000900507, 2.0022557000629604, 2.2188974000746384, 2.452204800094478, 2.7273128000088036, 2.968974700081162, 3.185484500019811, 3.4106396000133827, 3.653250600094907, 3.885524300043471, 4.335868900059722, 4.660611300030723, 5.227804800029844, 6.06900170003064]"	"[0.36013650009408593, 0.576818700064905, 0.793532200041227, 1.0018449000781402, 1.2185886000515893, 1.4435595000395551, 1.660214800038375, 1.8936067000031471, 2.1102491000201553, 2.3269832000369206, 2.56864170008339, 2.843652700074017, 3.0771504000294954, 3.285355200059712, 3.5187020000303164, 3.7603525000158697, 3.993740100064315, 4.477117900038138, 4.793774400022812, 5.377152900095098, 6.069006300065666]"	217.835251200013	217.841010999982	219.333002600004	219.357777799945	NA	NA	NA	NA	NA	NA	NA	20	"02"	"2024-02-14_11h21.12.515"	"BART_exp"	"2023.2.3"	119.996448133967	"2024-02-14 11h21.23.995348 +0100"	NA
"balloon.png"	71	0	16	16	16	219.357777799945	NA	NA	NA	NA	NA	NA	NA	NA	NA	NA	NA	NA	219.333181299968	219.357777799945	219.357777799945	219.357777799945	219.357777799945	219.357777799945	-0.00080609996803104	-0.00080609996803104	-0.00080609996803104	219.357777799945	224.25156819995	18	0.9	FALSE	"[0.03611111111111111, 0.03611111111111111, 0.03611111111111111, 0.03611111111111111, 0.03611111111111111, 0.03611111111111111, 0.03611111111111111, 0.03611111111111111, 0.03611111111111111, 0.03611111111111111, 0.03611111111111111, 0.03611111111111111, 0.03611111111111111, 0.03611111111111111, 0.03611111111111111, 0.03611111111111111, 0.03611111111111111, 0.03611111111111111, 0.03611111111111111]"	"[-0.4, -0.4, -0.4, -0.4, -0.4, -0.4, -0.4, -0.4, -0.4, -0.4, -0.4, -0.4, -0.4, -0.4, -0.4, -0.4, -0.4, -0.4, -0.4]"	"[1, 1, 1, 1, 1, 1, 1, 1, 1, 1, 1, 1, 1, 1, 1, 1, 1, 1, 0]"	"[0, 0, 0, 0, 0, 0, 0, 0, 0, 0, 0, 0, 0, 0, 0, 0, 0, 0, 0]"	"[0, 0, 0, 0, 0, 0, 0, 0, 0, 0, 0, 0, 0, 0, 0, 0, 0, 0, 1]"	"[0.2669084999943152, 0.5086019999580458, 0.716956099960953, 0.9254145999439061, 1.1505420999601483, 1.3671467000385746, 1.5838290000101551, 1.8005189000396058, 1.9922070000320673, 2.2005671999650076, 2.4172218999592587, 2.64210059994366, 2.8504407999571413, 3.08379409997724, 3.442252999986522, 3.7340168999508023, 4.108863599947654, 4.434079300030135, 4.9174355999566615]"	19	"[0.2558714000042528, 0.49756729998625815, 0.7059213999891654, 0.9143794999690726, 1.1395098000066355, 1.3561074999161065, 1.5728144999593496, 1.7894809999270365, 1.9811727999476716, 2.1895263999467716, 2.406186499982141, 2.6310674999840558, 2.839415399939753, 3.0727670999476686, 3.431221199920401, 3.722982699982822, 4.097832700004801, 4.423047999967821, 4.906342800008133]"	"[0.3725159999448806, 0.6140983999939635, 0.8391138999722898, 1.0307874999707565, 1.2558037999551743, 1.4558184000197798, 1.680830099969171, 1.8809024000074714, 2.089207799988799, 2.2975640000076964, 2.5157113999594003, 2.730909299920313, 2.9392398999771103, 3.1810707999393344, 3.589300199993886, 3.8476432999596, 4.23936349991709, 4.556026799953543, 4.906347399926744]"	224.252441599965	224.258167699911	225.750156099908	225.766565999947	NA	NA	NA	NA	NA	NA	NA	20	"02"	"2024-02-14_11h21.12.515"	"BART_exp"	"2023.2.3"	119.996448133967	"2024-02-14 11h21.23.995348 +0100"	NA
"balloon.png"	40	0	17	17	9	225.766565999947	NA	NA	NA	NA	NA	NA	NA	NA	NA	NA	NA	NA	225.750342299929	225.766565999947	225.766565999947	225.766565999947	225.766565999947	225.766565999947	-0.00074149994179606	-0.00074149994179606	-0.00074149994179606	225.766565999947	232.360412999988	22	1.1	FALSE	"[0.03611111111111111, 0.03611111111111111, 0.03611111111111111, 0.03611111111111111, 0.03611111111111111, 0.03611111111111111, 0.03611111111111111, 0.03611111111111111, 0.03611111111111111, 0.03611111111111111, 0.03611111111111111, 0.03611111111111111, 0.037037037037037035, 0.03796296296296296, 0.03796296296296296, 0.03796296296296296, 0.03796296296296296, 0.03796296296296296, 0.03796296296296296, 0.03796296296296296, 0.037037037037037035, 0.037037037037037035, 0.037037037037037035]"	"[-0.4, -0.4, -0.4, -0.4, -0.4, -0.4, -0.4, -0.4, -0.4, -0.4, -0.4, -0.4, -0.4, -0.4, -0.4, -0.4, -0.4, -0.4, -0.4, -0.4, -0.4009259259259259, -0.4009259259259259, -0.4009259259259259]"	"[1, 1, 1, 1, 1, 1, 1, 1, 1, 1, 1, 1, 1, 1, 1, 1, 1, 1, 1, 1, 1, 1, 0]"	"[0, 0, 0, 0, 0, 0, 0, 0, 0, 0, 0, 0, 0, 0, 0, 0, 0, 0, 0, 0, 0, 0, 0]"	"[0, 0, 0, 0, 0, 0, 0, 0, 0, 0, 0, 0, 0, 0, 0, 0, 0, 0, 0, 0, 0, 0, 1]"	"[0.23353430000133812, 0.43355859990697354, 0.6432633999502286, 0.8336206999374554, 1.0502268999116495, 1.2754039999563247, 1.49193529994227, 1.72550289996434, 1.9421621999936178, 2.167141699930653, 2.3921841999981552, 2.6170973998960108, 2.8754662999417633, 3.092183699947782, 3.3172484999522567, 3.542238499969244, 3.7755861999467015, 4.008942599990405, 4.250458599999547, 4.483856699895114, 4.7173027999233454, 5.417353699915111, 6.609106999938376]"	23	"[0.22959060000721365, 0.4296121000079438, 0.6394748999737203, 0.8296824999852106, 1.046282000024803, 1.2714538000291213, 1.4879826999967918, 1.7215511000249535, 1.9382122999522835, 2.1631950000301003, 2.388238299987279, 2.613148399977945, 2.871522399946116, 3.088235400035046, 3.313302099937573, 3.5382934999652207, 3.771642499952577, 4.004999099997804, 4.246510199969634, 4.47991200000979, 4.713357100030407, 5.413406200008467, 6.605094200000167]"	"[0.2877798000117764, 0.5294564999639988, 0.7378182000247762, 0.937822200008668, 1.1463056999491528, 1.3794944999972358, 1.5880074000451714, 1.8128735999343917, 2.0462311999872327, 2.279600100009702, 2.4879104000283405, 2.7213630999904126, 2.9629483999451622, 3.1879799999296665, 3.4129996999399737, 3.6546433999901637, 3.871344899991527, 4.113037499948405, 4.346369600039907, 4.579715400002897, 4.763152400031686, 5.571457999991253, 6.605098400032148]"	232.36141449993	232.367055199924	233.85901549994	233.875488999998	NA	NA	NA	NA	NA	NA	NA	20	"02"	"2024-02-14_11h21.12.515"	"BART_exp"	"2023.2.3"	119.996448133967	"2024-02-14 11h21.23.995348 +0100"	NA
"balloon.png"	79	0	18	18	18	233.875488999998	NA	NA	NA	NA	NA	NA	NA	NA	NA	NA	NA	NA	233.859212499927	233.875488999998	233.875488999998	233.875488999998	233.875488999998	233.875488999998	-0.00077700009569525	-0.00077700009569525	-0.00077700009569525	233.875488999998	238.744193699909	16	0.8	FALSE	"[0.037037037037037035, 0.037037037037037035, 0.037037037037037035, 0.037037037037037035, 0.037037037037037035, 0.037037037037037035, 0.037037037037037035, 0.037037037037037035, 0.037037037037037035, 0.037037037037037035, 0.037037037037037035, 0.037037037037037035, 0.03425925925925926, 0.03333333333333333, 0.032407407407407406, 0.03148148148148148, 0.03148148148148148]"	"[-0.4009259259259259, -0.4009259259259259, -0.4009259259259259, -0.4009259259259259, -0.4009259259259259, -0.4009259259259259, -0.4009259259259259, -0.4, -0.4, -0.4, -0.4, -0.4, -0.3962962962962963, -0.3962962962962963, -0.39537037037037037, -0.3972222222222222, -0.3972222222222222]"	"[1, 1, 1, 1, 1, 1, 1, 1, 1, 1, 1, 1, 1, 1, 1, 1, 0]"	"[0, 0, 0, 0, 0, 0, 0, 0, 0, 0, 0, 0, 0, 0, 0, 0, 0]"	"[0, 0, 0, 0, 0, 0, 0, 0, 0, 0, 0, 0, 0, 0, 0, 0, 1]"	"[0.14191260002553463, 0.36712619999889284, 0.5671089000534266, 0.8086191000184044, 1.025454799993895, 1.2421328000491485, 1.4755112000275403, 1.7004031999967992, 1.9421236000489444, 2.183717899955809, 2.3921911000506952, 2.6505566999549046, 2.8837594999931753, 3.1505121999653056, 3.717191500007175, 4.217369799967855, 4.884050299995579]"	17	"[0.13663659989833832, 0.36185469990596175, 0.5618335999315605, 0.8033480999292806, 1.0201825998956338, 1.2368615999585018, 1.4702472999924794, 1.6951262999791652, 1.9368471999187022, 2.1784434999572113, 2.3869167999364436, 2.6452861999860033, 2.878480099956505, 3.1452359999530017, 3.7119379999348894, 4.2120980999898165, 4.878715500002727]"	"[0.24478909990284592, 0.46153649990446866, 0.6782365998951718, 0.9115269999019802, 1.11985639994964, 1.3532210999401286, 1.569927499978803, 1.811631599906832, 2.053268799907528, 2.2866101999534294, 2.5033509999047965, 2.745001500006765, 2.9950129999779165, 3.253364000003785, 3.8534623999148607, 4.353460899903439, 4.878720099921338]"	238.745094800019	238.750809099991	240.242817499908	240.267579599982	NA	NA	NA	NA	NA	NA	NA	20	"02"	"2024-02-14_11h21.12.515"	"BART_exp"	"2023.2.3"	119.996448133967	"2024-02-14 11h21.23.995348 +0100"	NA
"balloon.png"	53	0	19	19	12	240.267579599982	NA	NA	NA	NA	NA	NA	NA	NA	NA	NA	NA	NA	240.243003499927	240.267579599982	240.267579599982	240.267579599982	240.267579599982	240.267579599982	-0.00081220001447945	-0.00081220001447945	-0.00081220001447945	240.267579599982	241.385924699949	2	0.1	FALSE	"[0.030555555555555555, 0.030555555555555555, 0.03148148148148148]"	"[-0.4, -0.4, -0.4]"	"[1, 1, 0]"	"[0, 0, 0]"	"[0, 0, 1]"	"[0.5335775000276044, 0.7335827000206336, 1.1419633000623435]"	3	"[0.5225168000906706, 0.7225177000509575, 1.1308424000162631]"	"[0.6224115000804886, 0.8390453000320122, 1.130846800049767]"	241.386551799951	241.392663899926	242.884628899978	242.901136899949	NA	NA	NA	NA	NA	NA	NA	20	"02"	"2024-02-14_11h21.12.515"	"BART_exp"	"2023.2.3"	119.996448133967	"2024-02-14 11h21.23.995348 +0100"	NA
"balloon.png"	92	0	20	20	21	242.901136899949	NA	NA	NA	NA	NA	NA	NA	NA	NA	NA	NA	NA	242.88480609993	242.901136899949	242.901136899949	242.901136899949	242.901136899949	242.901136899949	-0.00051539996638894	-0.00051539996638894	-0.00051539996638894	242.901136899949	248.219914599904	20	1	FALSE	"[0.03148148148148148, 0.03148148148148148, 0.03148148148148148, 0.03148148148148148, 0.03148148148148148, 0.03333333333333333, 0.03333333333333333, 0.03333333333333333, 0.03333333333333333, 0.03333333333333333, 0.03333333333333333, 0.03333333333333333, 0.03148148148148148, 0.03148148148148148, 0.030555555555555555, 0.02962962962962963, 0.02962962962962963, 0.02962962962962963, 0.02962962962962963, 0.02962962962962963, 0.02962962962962963]"	"[-0.3990740740740741, -0.3990740740740741, -0.3990740740740741, -0.3990740740740741, -0.3990740740740741, -0.3990740740740741, -0.3990740740740741, -0.3990740740740741, -0.3990740740740741, -0.3990740740740741, -0.3990740740740741, -0.3990740740740741, -0.3990740740740741, -0.3990740740740741, -0.4, -0.4009259259259259, -0.4009259259259259, -0.4009259259259259, -0.4009259259259259, -0.4009259259259259, -0.4009259259259259]"	"[1, 1, 1, 1, 1, 1, 1, 1, 1, 1, 1, 1, 1, 1, 1, 1, 1, 1, 1, 1, 0]"	"[0, 0, 0, 0, 0, 0, 0, 0, 0, 0, 0, 0, 0, 0, 0, 0, 0, 0, 0, 0, 0]"	"[0, 0, 0, 0, 0, 0, 0, 0, 0, 0, 0, 0, 0, 0, 0, 0, 0, 0, 0, 0, 1]"	"[0.20048849994782358, 0.45870079996529967, 0.68367269996088, 0.8921952999662608, 1.1086918000364676, 1.3170866000000387, 1.5253905999707058, 1.7254141999874264, 1.933760300045833, 2.175572599982843, 2.4089746000245214, 2.617310700006783, 2.834275700035505, 3.050559900002554, 3.267214099992998, 3.458880400052294, 3.858942999970168, 4.1840766000095755, 4.525643700035289, 4.883959400001913, 5.334189599961974]"	21	"[0.1910215999232605, 0.44923519995063543, 0.6742087999591604, 0.8827262999257073, 1.0992304999381304, 1.3076202999800444, 1.5159319998929277, 1.715950099984184, 1.924297699937597, 2.166109999991022, 2.399512599920854, 2.6078423999715596, 2.8248147999402136, 3.0410986999049783, 3.2577473999699578, 3.449414399918169, 3.849476999952458, 4.174614399904385, 4.5161758998874575, 4.8744889999506995, 5.324665199965239]"	"[0.3407028999645263, 0.5407018999103457, 0.7490926999598742, 0.9824484999990091, 1.1991003999719396, 1.4075221999082714, 1.6074615999823436, 1.8158355999039486, 2.0241419998928905, 2.274206699919887, 2.4825163999339566, 2.7075379999587312, 2.9242827999405563, 3.141013199929148, 3.3575720998924226, 3.5576365999877453, 3.9828318998916075, 4.299299699952826, 4.624550899956375, 4.991134199895896, 5.324669299996458]"	248.220889299992	248.226477599936	249.718453999958	249.726580100018	NA	NA	NA	NA	NA	NA	NA	20	"02"	"2024-02-14_11h21.12.515"	"BART_exp"	"2023.2.3"	119.996448133967	"2024-02-14 11h21.23.995348 +0100"	NA
"balloon.png"	97	0	21	21	22	249.726580100018	NA	NA	NA	NA	NA	NA	NA	NA	NA	NA	NA	NA	249.718643700005	249.726580100018	249.726580100018	249.726580100018	249.726580100018	249.726580100018	0.00575500004924833	0.00575500004924833	0.00575500004924833	249.726580100018	257.912025499973	22	1.1	FALSE	"[0.02962962962962963, 0.02962962962962963, 0.02962962962962963, 0.02962962962962963, 0.02962962962962963, 0.02962962962962963, 0.02962962962962963, 0.02962962962962963, 0.02962962962962963, 0.02962962962962963, 0.02962962962962963, 0.028703703703703703, 0.028703703703703703, 0.028703703703703703, 0.028703703703703703, 0.028703703703703703, 0.028703703703703703, 0.028703703703703703, 0.028703703703703703, 0.028703703703703703, 0.028703703703703703, 0.028703703703703703, 0.028703703703703703]"	"[-0.4009259259259259, -0.4009259259259259, -0.4009259259259259, -0.4009259259259259, -0.4009259259259259, -0.4009259259259259, -0.4009259259259259, -0.4009259259259259, -0.4009259259259259, -0.4009259259259259, -0.4009259259259259, -0.4009259259259259, -0.4009259259259259, -0.4009259259259259, -0.4009259259259259, -0.4009259259259259, -0.4009259259259259, -0.4009259259259259, -0.4009259259259259, -0.4009259259259259, -0.4009259259259259, -0.4009259259259259, -0.4009259259259259]"	"[1, 1, 1, 1, 1, 1, 1, 1, 1, 1, 1, 1, 1, 1, 1, 1, 1, 1, 1, 1, 1, 1, 0]"	"[0, 0, 0, 0, 0, 0, 0, 0, 0, 0, 0, 0, 0, 0, 0, 0, 0, 0, 0, 0, 0, 0, 0]"	"[0, 0, 0, 0, 0, 0, 0, 0, 0, 0, 0, 0, 0, 0, 0, 0, 0, 0, 0, 0, 0, 0, 1]"	"[0.06709409994073212, 0.283652100013569, 0.5004727999912575, 0.717153099947609, 0.9340066999429837, 1.1674137999070808, 1.3755696999141946, 1.6254566999850795, 1.8753934999695048, 2.1088992999866605, 2.3424202000023797, 2.5922929999651387, 3.700671499944292, 4.100728199933656, 4.559103399980813, 4.833930899971165, 5.058967699995264, 5.309134399984032, 5.817386899958365, 6.267375499941409, 6.959624000010081, 7.726003799936734, 8.192487499909475]"	23	"[0.06524790008552372, 0.28180730005260557, 0.498624200001359, 0.7153046000748873, 0.9321580000687391, 1.1655850000679493, 1.3737238000612706, 1.6236158000538126, 1.8735450999811292, 2.107047100085765, 2.340575300040655, 2.5904411000665277, 3.6988221000647172, 4.098880500067025, 4.5572592000244185, 4.832081900094636, 5.057118600001559, 5.307289200020023, 5.815538700087927, 6.265524200047366, 6.957935900078155, 7.724152900045738, 8.190574200008996]"	"[0.18162050005048513, 0.39013050007633865, 0.5982963000424206, 0.8316451000282541, 1.0485451000276953, 1.273556200088933, 1.481731600011699, 1.7317419000901282, 1.965077600092627, 2.2152298000874, 2.448458000086248, 2.6818211000645533, 3.8402610000921413, 4.2152356000151485, 4.681978999986313, 4.931948599987663, 5.156965000089258, 5.4236468999879435, 5.9237032000673935, 6.390410299994983, 7.098774200072512, 7.865551499999128, 8.190578400040977]"	257.913037299993	257.918848100002	259.410790900001	259.427261499921	NA	NA	NA	NA	NA	NA	NA	20	"02"	"2024-02-14_11h21.12.515"	"BART_exp"	"2023.2.3"	119.996448133967	"2024-02-14 11h21.23.995348 +0100"	NA
"balloon.png"	62	0	22	22	14	259.427261499921	NA	NA	NA	NA	NA	NA	NA	NA	NA	NA	NA	NA	259.41096889996	259.427261499921	259.427261499921	259.427261499921	259.427261499921	259.427261499921	-0.00079479999840259	-0.00079479999840259	-0.00079479999840259	259.427261499921	264.804380699992	18	0.9	FALSE	"[0.028703703703703703, 0.028703703703703703, 0.028703703703703703, 0.028703703703703703, 0.028703703703703703, 0.028703703703703703, 0.028703703703703703, 0.028703703703703703, 0.028703703703703703, 0.027777777777777776, 0.027777777777777776, 0.027777777777777776, 0.027777777777777776, 0.027777777777777776, 0.027777777777777776, 0.027777777777777776, 0.027777777777777776, 0.027777777777777776, 0.027777777777777776]"	"[-0.4009259259259259, -0.4009259259259259, -0.4009259259259259, -0.4009259259259259, -0.4009259259259259, -0.4009259259259259, -0.4009259259259259, -0.4009259259259259, -0.4009259259259259, -0.4009259259259259, -0.4009259259259259, -0.4009259259259259, -0.4009259259259259, -0.4009259259259259, -0.4009259259259259, -0.4009259259259259, -0.4009259259259259, -0.4009259259259259, -0.4009259259259259]"	"[1, 1, 1, 1, 1, 1, 1, 1, 1, 1, 1, 1, 1, 1, 1, 1, 1, 1, 0]"	"[0, 0, 0, 0, 0, 0, 0, 0, 0, 0, 0, 0, 0, 0, 0, 0, 0, 0, 0]"	"[0, 0, 0, 0, 0, 0, 0, 0, 0, 0, 0, 0, 0, 0, 0, 0, 0, 0, 1]"	"[0.2922254999866709, 0.5003114000428468, 0.733650500071235, 0.9671222000615671, 1.1837951000779867, 1.4172557999845594, 1.6338650999823585, 1.8672325999941677, 2.1338002000702545, 2.3421084000729024, 2.5504426000406966, 2.775708500063047, 2.992357900016941, 3.2173466000240296, 3.4590043000644073, 4.308898300048895, 4.567273200023919, 5.009169100085273, 5.392481500050053]"	19	"[0.2890992999309674, 0.49717250000685453, 0.7305091999005526, 0.9639845999190584, 1.180658399942331, 1.4141233999980614, 1.6307233999250457, 1.8640980999916792, 2.1306591999018565, 2.338972899946384, 2.5473001999780536, 2.772572899935767, 2.9892251999117434, 3.2142067999811843, 3.4558650999097154, 4.305754999979399, 4.564132499974221, 5.006033399957232, 5.38927759998478]"	"[0.3887810999294743, 0.597003799979575, 0.8220318999374285, 1.0720468999352306, 1.2970457999035716, 1.5221756999380887, 1.7472807999001816, 1.9804449999937788, 2.238998399931006, 2.4471633000066504, 2.6638725999509916, 2.888845899957232, 3.105574299930595, 3.3305409000022337, 3.5390165999997407, 4.413957999902777, 4.672322899918072, 5.122343799914233, 5.3892817999003455]"	264.805341099971	264.810976899927	266.302950299927	266.327757799998	NA	NA	NA	NA	NA	NA	NA	20	"02"	"2024-02-14_11h21.12.515"	"BART_exp"	"2023.2.3"	119.996448133967	"2024-02-14 11h21.23.995348 +0100"	NA
"balloon.png"	84	0	23	23	19	266.327757799998	NA	NA	NA	NA	NA	NA	NA	NA	NA	NA	NA	NA	266.303128500003	266.327757799998	266.327757799998	266.327757799998	266.327757799998	266.327757799998	-0.00098709994927048	-0.00098709994927048	-0.00098709994927048	266.327757799998	273.504805199918	22	1.1	FALSE	"[0.027777777777777776, 0.027777777777777776, 0.027777777777777776, 0.027777777777777776, 0.027777777777777776, 0.027777777777777776, 0.027777777777777776, 0.027777777777777776, 0.027777777777777776, 0.027777777777777776, 0.027777777777777776, 0.027777777777777776, 0.027777777777777776, 0.027777777777777776, 0.027777777777777776, 0.027777777777777776, 0.027777777777777776, 0.027777777777777776, 0.027777777777777776, 0.027777777777777776, 0.027777777777777776, 0.027777777777777776, 0.027777777777777776]"	"[-0.4009259259259259, -0.4009259259259259, -0.4009259259259259, -0.4009259259259259, -0.4009259259259259, -0.4009259259259259, -0.4009259259259259, -0.4009259259259259, -0.4009259259259259, -0.4009259259259259, -0.4009259259259259, -0.4009259259259259, -0.4009259259259259, -0.4009259259259259, -0.4009259259259259, -0.4009259259259259, -0.4009259259259259, -0.4009259259259259, -0.4009259259259259, -0.4009259259259259, -0.4009259259259259, -0.4009259259259259, -0.4009259259259259]"	"[1, 1, 1, 1, 1, 1, 1, 1, 1, 1, 1, 1, 1, 1, 1, 1, 1, 1, 1, 1, 1, 1, 0]"	"[0, 0, 0, 0, 0, 0, 0, 0, 0, 0, 0, 0, 0, 0, 0, 0, 0, 0, 0, 0, 0, 0, 0]"	"[0, 0, 0, 0, 0, 0, 0, 0, 0, 0, 0, 0, 0, 0, 0, 0, 0, 0, 0, 0, 0, 0, 1]"	"[0.3837925000116229, 0.6753412999678403, 0.9255316000198945, 1.1673005999764428, 1.3839474000269547, 1.9505837999749929, 2.1340082000242546, 2.325625899946317, 2.525673000025563, 2.717287899926305, 2.9089819999644533, 3.184038499952294, 3.3839820999419317, 3.5756863999413326, 3.7840218000346795, 4.084034399944358, 4.284046299988404, 4.567447499954142, 5.00062569999136, 5.709194499999285, 5.925859299954027, 6.702307399944402, 7.200777199934237]"	23	"[0.3726208999287337, 0.6559124999912456, 0.9143586999271065, 1.1561287000076845, 1.3727762999478728, 1.939416699926369, 2.1228428999893367, 2.314456899999641, 2.5145041999639943, 2.7061210999963805, 2.897813600022346, 3.1728703000117093, 3.372809899970889, 3.564517299993895, 3.7728466999251395, 4.072861899971031, 4.272885299986228, 4.556275799986906, 4.989451300003566, 5.698027699952945, 5.914689500001259, 6.691301899962127, 7.189545399975032]"	"[0.5389847999904305, 0.780727699981071, 1.014016899978742, 1.2557220000308007, 1.4808189999312162, 2.0391125000314787, 2.230831400025636, 2.4224567000055686, 2.6141227999469265, 2.8141441999468952, 3.0655884000007063, 3.272530199959874, 3.4641916999826208, 3.6642341000260785, 3.8739642000291497, 4.181048700003885, 4.372589399921708, 4.681299099931493, 5.064318499993533, 5.789454799960367, 6.031041299924254, 6.847784099983983, 7.189549800008535]"	273.505772199947	273.511585299973	275.003570299945	275.0283605	NA	NA	NA	NA	NA	NA	NA	20	"02"	"2024-02-14_11h21.12.515"	"BART_exp"	"2023.2.3"	119.996448133967	"2024-02-14 11h21.23.995348 +0100"	NA
"balloon.png"	36	0	24	24	8	275.0283605	NA	NA	NA	NA	NA	NA	NA	NA	NA	NA	NA	NA	275.003748699906	275.0283605	275.0283605	275.0283605	275.0283605	275.0283605	-0.00068449997343122	-0.00068449997343122	-0.00068449997343122	275.0283605	281.055454200017	18	0.9	FALSE	"[0.025925925925925925, 0.025925925925925925, 0.025925925925925925, 0.025925925925925925, 0.025925925925925925, 0.025925925925925925, 0.025925925925925925, 0.025925925925925925, 0.025925925925925925, 0.025925925925925925, 0.025925925925925925, 0.025925925925925925, 0.025925925925925925, 0.025925925925925925, 0.025925925925925925, 0.025925925925925925, 0.025925925925925925, 0.025925925925925925, 0.025925925925925925]"	"[-0.39537037037037037, -0.39537037037037037, -0.39537037037037037, -0.39537037037037037, -0.39537037037037037, -0.39537037037037037, -0.39537037037037037, -0.39537037037037037, -0.39537037037037037, -0.39537037037037037, -0.39537037037037037, -0.39537037037037037, -0.39537037037037037, -0.39537037037037037, -0.39537037037037037, -0.39537037037037037, -0.39537037037037037, -0.39537037037037037, -0.39537037037037037]"	"[1, 1, 1, 1, 1, 1, 1, 1, 1, 1, 1, 1, 1, 1, 1, 1, 1, 1, 0]"	"[0, 0, 0, 0, 0, 0, 0, 0, 0, 0, 0, 0, 0, 0, 0, 0, 0, 0, 0]"	"[0, 0, 0, 0, 0, 0, 0, 0, 0, 0, 0, 0, 0, 0, 0, 0, 0, 0, 1]"	"[0.567096299957484, 0.7921351999975741, 1.0171609000535682, 1.2171665000496432, 1.4421875000698492, 1.63384170003701, 1.842211400042288, 2.0422835999634117, 2.250770300044678, 2.4671028000302613, 2.6756123000523075, 3.133798300055787, 3.3756145000224933, 3.625664500053972, 4.0673931000055745, 4.45905840001069, 4.892467700061388, 5.325644299970008, 6.05080770002678]"	19	"[0.556209700065665, 0.781241700053215, 1.0062672999920323, 1.2062765000155196, 1.4312973000342026, 1.6229476000880823, 1.8313221000134945, 2.0313939000479877, 2.239891300094314, 2.4562186000403017, 2.664733499987051, 3.122910500038415, 3.3647228000918403, 3.614769000094384, 4.056497900048271, 4.448166800080799, 4.881579600041732, 5.314753000042401, 6.039854500093497]"	"[0.7059802000876516, 0.8893094999948516, 1.089279800071381, 1.3226345999864861, 1.5226823000703007, 1.722664300003089, 1.9227369000436738, 2.131123200058937, 2.339416400063783, 2.539402400027029, 2.7560660000890493, 3.2227608000393957, 3.4727844999870285, 3.7144994999980554, 4.189499400090426, 4.564548399997875, 4.981240099994466, 5.423028100049123, 6.039858700009063]"	281.056525899912	281.062155999942	282.554069499951	282.562226300011	NA	NA	NA	NA	NA	NA	NA	20	"02"	"2024-02-14_11h21.12.515"	"BART_exp"	"2023.2.3"	119.996448133967	"2024-02-14 11h21.23.995348 +0100"	NA
"balloon.png"	49	0	25	25	11	282.562226300011	NA	NA	NA	NA	NA	NA	NA	NA	NA	NA	NA	NA	282.554244700004	282.562226300011	282.562226300011	282.562226300011	282.562226300011	282.562226300011	0.00576149998232722	0.00576149998232722	0.00576149998232722	282.562226300011	288.597670999938	20	1	FALSE	"[0.025925925925925925, 0.025925925925925925, 0.025925925925925925, 0.025925925925925925, 0.025925925925925925, 0.025925925925925925, 0.025925925925925925, 0.025925925925925925, 0.025925925925925925, 0.025925925925925925, 0.025925925925925925, 0.025925925925925925, 0.025925925925925925, 0.025, 0.024074074074074074, 0.025, 0.025, 0.025, 0.025, 0.025, 0.025]"	"[-0.39537037037037037, -0.39537037037037037, -0.39537037037037037, -0.39537037037037037, -0.39537037037037037, -0.39537037037037037, -0.39537037037037037, -0.39537037037037037, -0.39537037037037037, -0.39537037037037037, -0.39537037037037037, -0.39537037037037037, -0.39537037037037037, -0.39537037037037037, -0.39537037037037037, -0.39537037037037037, -0.39537037037037037, -0.39537037037037037, -0.39537037037037037, -0.39537037037037037, -0.39537037037037037]"	"[1, 1, 1, 1, 1, 1, 1, 1, 1, 1, 1, 1, 1, 1, 1, 1, 1, 1, 1, 1, 0]"	"[0, 0, 0, 0, 0, 0, 0, 0, 0, 0, 0, 0, 0, 0, 0, 0, 0, 0, 0, 0, 0]"	"[0, 0, 0, 0, 0, 0, 0, 0, 0, 0, 0, 0, 0, 0, 0, 0, 0, 0, 0, 0, 1]"	"[0.7503519000019878, 0.9836855999892578, 1.208832799922675, 1.433865699917078, 1.6589336999459192, 1.8673212999710813, 2.083988199941814, 2.308815099997446, 2.500624699983746, 2.700646899989806, 2.900815699947998, 3.10056990000885, 3.3008629999822006, 3.4924134999746457, 3.7007238999940455, 4.008897799998522, 4.284075999981724, 4.617424999945797, 5.034206799929962, 5.4591939999954775, 6.042529999976978]"	21	"[0.7484906000318006, 0.9818194000981748, 1.2069709000643343, 1.4320004000328481, 1.6570729000959545, 1.8654610000085086, 2.0821299001108855, 2.3069618000881746, 2.4987615001155064, 2.698788100038655, 2.898992000031285, 3.0987079000333324, 3.2990029000211507, 3.490551900002174, 3.6988653000444174, 3.99892380007077, 4.282213000115007, 4.615564300096594, 5.032344600069337, 5.457331900019199, 6.040603500092402]"	"[0.8567040000343695, 1.0983595000579953, 1.3150395000120625, 1.5317654000828043, 1.7567313000326976, 1.9817715000826865, 2.190139100071974, 2.398458000039682, 2.5985100000398234, 2.7901658000191674, 2.9901741000358015, 3.1819311000872403, 3.3902316000312567, 3.5902168001048267, 3.7987144000362605, 4.115300600067712, 4.390263000037521, 4.723602400044911, 5.16531730000861, 5.581998000037856, 6.040607600007206]"	288.598569099908	288.604324399959	290.096264599939	290.11275719991	NA	NA	NA	NA	NA	NA	NA	20	"02"	"2024-02-14_11h21.12.515"	"BART_exp"	"2023.2.3"	119.996448133967	"2024-02-14 11h21.23.995348 +0100"	NA
"balloon.png"	123	0	26	26	28	290.11275719991	NA	NA	NA	NA	NA	NA	NA	NA	NA	NA	NA	NA	290.096439699992	290.11275719991	290.11275719991	290.11275719991	290.11275719991	290.11275719991	-0.00010840001050382	-0.00010840001050382	-0.00010840001050382	290.11275719991	295.989868499921	20	1	FALSE	"[0.025, 0.025, 0.025, 0.025, 0.025, 0.025, 0.025, 0.025, 0.025, 0.025, 0.025, 0.025, 0.025, 0.025925925925925925, 0.025925925925925925, 0.025925925925925925, 0.025925925925925925, 0.026851851851851852, 0.026851851851851852, 0.026851851851851852, 0.026851851851851852]"	"[-0.39537037037037037, -0.39537037037037037, -0.39537037037037037, -0.39537037037037037, -0.39537037037037037, -0.39537037037037037, -0.39537037037037037, -0.39537037037037037, -0.39537037037037037, -0.39537037037037037, -0.39537037037037037, -0.39537037037037037, -0.39537037037037037, -0.39537037037037037, -0.39537037037037037, -0.39537037037037037, -0.39537037037037037, -0.39444444444444443, -0.39444444444444443, -0.39444444444444443, -0.39444444444444443]"	"[1, 1, 1, 1, 1, 1, 1, 1, 1, 1, 1, 1, 1, 1, 1, 1, 1, 1, 1, 1, 0]"	"[0, 0, 0, 0, 0, 0, 0, 0, 0, 0, 0, 0, 0, 0, 0, 0, 0, 0, 0, 0, 0]"	"[0, 0, 0, 0, 0, 0, 0, 0, 0, 0, 0, 0, 0, 0, 0, 0, 0, 0, 0, 0, 1]"	"[0.4168247999623418, 0.6417531999759376, 0.8586593000218272, 1.0919226999394596, 1.3751775999553502, 1.608530699973926, 1.83367179997731, 2.083657499984838, 2.3254924999782816, 2.583699499955401, 2.842003499972634, 3.075425499933772, 3.3170760999200866, 3.5587620999431238, 3.8336083999602124, 4.067137099918909, 4.317158399964683, 4.592050499981269, 4.917285199975595, 5.267280299915001, 5.892247500014491]"	21	"[0.40930000005755574, 0.6342278000665829, 0.8511332999914885, 1.0843959000194445, 1.367656399961561, 1.6010142000159249, 1.826147299958393, 2.07612980005797, 2.3179674999555573, 2.576173400040716, 2.8344721000175923, 3.067898100009188, 3.3095522000221536, 3.5512424999615178, 3.826081700040959, 4.059608799987473, 4.3096311000408605, 4.584525499958545, 4.9097755999537185, 5.259756800020114, 5.884657399961725]"	"[0.5258133000461385, 0.7424160999944434, 0.9674189999932423, 1.1924861000152305, 1.4341110000386834, 1.6924572000280023, 1.9341810999903828, 2.1925684000598267, 2.434227199992165, 2.7175829999614507, 2.9425659000407904, 3.1676258000079542, 3.4175931999925524, 3.6592856000643224, 3.934290700010024, 4.175972600001842, 4.425992800039239, 4.701027299975976, 5.034389300039038, 5.392760999966413, 5.884661599993706]"	295.990769999917	295.996501799906	297.488498799969	297.504947699956	NA	NA	NA	NA	NA	NA	NA	20	"02"	"2024-02-14_11h21.12.515"	"BART_exp"	"2023.2.3"	119.996448133967	"2024-02-14 11h21.23.995348 +0100"	NA
"balloon.png"	1	0	27	27	0	297.504947699956	NA	NA	NA	NA	NA	NA	NA	NA	NA	NA	NA	NA	297.488680899958	297.504947699956	297.504947699956	297.504947699956	297.504947699956	297.504947699956	-0.00083410006482154	-0.00083410006482154	-0.00083410006482154	297.504947699956	297.923500299919	2	0.05	TRUE	"[0.026851851851851852, 0.026851851851851852]"	"[-0.39444444444444443, -0.39444444444444443]"	"[1, 1]"	"[0, 0]"	"[0, 0]"	"[0.08375830005388707, 0.30873970000538975]"	2	"[0.07838310010265559, 0.3033872999949381]"	"[0.19497760001104325, 0.41973720001988113]"	297.92407529999	297.93000459997	299.421948499978	299.438427699963	NA	NA	NA	NA	NA	NA	NA	20	"02"	"2024-02-14_11h21.12.515"	"BART_exp"	"2023.2.3"	119.996448133967	"2024-02-14 11h21.23.995348 +0100"	NA
"balloon.png"	127	0	28	28	29	299.438427699963	NA	NA	NA	NA	NA	NA	NA	NA	NA	NA	NA	NA	299.422127899947	299.438427699963	299.438427699963	299.438427699963	299.438427699963	299.438427699963	-0.0006448000203818	-0.0006448000203818	-0.0006448000203818	299.438427699963	305.482032499975	20	1	FALSE	"[0.026851851851851852, 0.026851851851851852, 0.026851851851851852, 0.026851851851851852, 0.026851851851851852, 0.026851851851851852, 0.026851851851851852, 0.026851851851851852, 0.026851851851851852, 0.026851851851851852, 0.026851851851851852, 0.026851851851851852, 0.026851851851851852, 0.026851851851851852, 0.026851851851851852, 0.026851851851851852, 0.026851851851851852, 0.026851851851851852, 0.026851851851851852, 0.026851851851851852, 0.026851851851851852]"	"[-0.39444444444444443, -0.39444444444444443, -0.39444444444444443, -0.39444444444444443, -0.39444444444444443, -0.39444444444444443, -0.39444444444444443, -0.39444444444444443, -0.39444444444444443, -0.39444444444444443, -0.39444444444444443, -0.39444444444444443, -0.39444444444444443, -0.39444444444444443, -0.39444444444444443, -0.39444444444444443, -0.39444444444444443, -0.39444444444444443, -0.39444444444444443, -0.39444444444444443, -0.39444444444444443]"	"[1, 1, 1, 1, 1, 1, 1, 1, 1, 1, 1, 1, 1, 1, 1, 1, 1, 1, 1, 1, 0]"	"[0, 0, 0, 0, 0, 0, 0, 0, 0, 0, 0, 0, 0, 0, 0, 0, 0, 0, 0, 0, 0]"	"[0, 0, 0, 0, 0, 0, 0, 0, 0, 0, 0, 0, 0, 0, 0, 0, 0, 0, 0, 0, 1]"	"[0.29209939995780587, 0.5754869999364018, 0.8004654999822378, 1.0171430999180302, 1.2005032999441028, 1.3921703998930752, 1.5838615999091417, 1.767194899963215, 1.9505886998958886, 2.1255504000000656, 2.3172340999590233, 2.892178599955514, 3.600661899894476, 3.8171918999869376, 4.02557399997022, 4.208932599984109, 4.400723799946718, 4.61725419992581, 5.142494799918495, 5.367464899900369, 6.0589978999923915]"	21	"[0.289655499975197, 0.5730508000124246, 0.7980191999813542, 1.0146961000282317, 1.1980585000710562, 1.389722099993378, 1.5814209000673145, 1.7647571000270545, 1.9481440000236034, 2.1231030999915674, 2.314787400071509, 2.889745100052096, 3.5982156000100076, 3.8147423000773415, 4.023125900072046, 4.206489400006831, 4.398279300075956, 4.61480640002992, 5.140055699972436, 5.365019100019708, 6.056491900002584]"	"[0.4227251000702381, 0.6977623000275344, 0.9144006000133231, 1.114434999995865, 1.3060859000543132, 1.497755300020799, 1.6894945000531152, 1.8644573000492528, 2.0479561000829563, 2.222878900007345, 2.431205000029877, 2.9811868000542745, 3.706297100055963, 3.9146094999741763, 4.106282200082205, 4.297953400062397, 4.49798099999316, 4.689664700068533, 5.248038200079463, 5.456376500078477, 6.056496100034565]"	305.482993999962	305.488912999979	306.980785499909	306.997273299959	NA	NA	NA	NA	NA	NA	NA	20	"02"	"2024-02-14_11h21.12.515"	"BART_exp"	"2023.2.3"	119.996448133967	"2024-02-14 11h21.23.995348 +0100"	NA
"balloon.png"	75	0	29	29	17	306.997273299959	NA	NA	NA	NA	NA	NA	NA	NA	NA	NA	NA	NA	306.980962299975	306.997273299959	306.997273299959	306.997273299959	306.997273299959	306.997273299959	-0.00073259999044239	-0.00073259999044239	-0.00073259999044239	306.997273299959	310.990912199952	12	0.6	FALSE	"[0.026851851851851852, 0.026851851851851852, 0.026851851851851852, 0.026851851851851852, 0.026851851851851852, 0.026851851851851852, 0.026851851851851852, 0.025925925925925925, 0.025, 0.024074074074074074, 0.023148148148148147, 0.022222222222222223, 0.022222222222222223]"	"[-0.39444444444444443, -0.39444444444444443, -0.39444444444444443, -0.39444444444444443, -0.39444444444444443, -0.39444444444444443, -0.39351851851851855, -0.39166666666666666, -0.39166666666666666, -0.39166666666666666, -0.39166666666666666, -0.39166666666666666, -0.39166666666666666]"	"[1, 1, 1, 1, 1, 1, 1, 1, 1, 1, 1, 1, 0]"	"[0, 0, 0, 0, 0, 0, 0, 0, 0, 0, 0, 0, 0]"	"[0, 0, 0, 0, 0, 0, 0, 0, 0, 0, 0, 0, 1]"	"[0.3838048001052812, 0.6254823000635952, 0.8588366000913084, 1.0837146000703797, 1.3255749000236392, 1.5672417000168934, 1.8172581000253558, 2.0837859000312164, 2.3172041000798345, 2.5422933000372723, 2.8257017000578344, 3.3840260000433773, 4.009039100026712]"	13	"[0.380264800041914, 0.6219373000785708, 0.8552902000956237, 1.0801701000891626, 1.3220331000629812, 1.5636992000509053, 1.8137138000456616, 2.080246000085026, 2.3136609999928623, 2.538753400091082, 2.822156500071287, 3.380483900080435, 4.005431700032204]"	"[0.5049573000287637, 0.7299688000930473, 0.9647980000590906, 1.1883696999866515, 1.4301185000222176, 1.6716940000187606, 1.913424800033681, 2.1967760000843555, 2.4135598000139, 2.646873400080949, 2.9135639000451192, 3.5052086000796407, 4.00543620006647]"	310.991735999938	310.99755510001	312.489532299922	312.497664899915	NA	NA	NA	NA	NA	NA	NA	20	"02"	"2024-02-14_11h21.12.515"	"BART_exp"	"2023.2.3"	119.996448133967	"2024-02-14 11h21.23.995348 +0100"	NA
NA	NA	NA	NA	NA	NA	NA	NA	NA	NA	NA	NA	NA	NA	NA	NA	NA	NA	NA	NA	NA	NA	NA	NA	NA	NA	NA	NA	NA	NA	NA	NA	NA	NA	NA	NA	NA	NA	NA	NA	NA	NA	NA	NA	NA	NA	312.489568099962	312.497664899915	312.497664899915	323.832253600005	"space"	11.3288898000028	"None"	20	"02"	"2024-02-14_11h21.12.515"	"BART_exp"	"2023.2.3"	119.996448133967	"2024-02-14 11h21.23.995348 +0100"	NA
