"image"	"max_pumps"	"pump_loop.thisRepN"	"pump_loop.thisTrialN"	"pump_loop.thisN"	"pump_loop.thisIndex"	"thisRow.t"	"notes"	"Start.started"	"text_start.started"	"continue_start.started"	"mouse_start.started"	"Start.stopped"	"mouse_start.x"	"mouse_start.y"	"mouse_start.leftButton"	"mouse_start.midButton"	"mouse_start.rightButton"	"mouse_start.time"	"trials.started"	"stim_balloon.started"	"stim_balloon_burst.started"	"stim_balloon_burst.stopped"	"text_ballon_value.started"	"text_bank.started"	"mouse.started"	"sound_bang.started"	"sound_bang.stopped"	"button_balloon.started"	"trials.stopped"	"n_pumps"	"earnings"	"popped"	"mouse.x"	"mouse.y"	"mouse.leftButton"	"mouse.midButton"	"mouse.rightButton"	"mouse.time"	"button_balloon.numClicks"	"button_balloon.timesOn"	"button_balloon.timesOff"	"Feedback.started"	"text_feedback.started"	"Feedback.stopped"	"text_feedback.stopped"	"End.started"	"text_end.started"	"key_end.started"	"End.stopped"	"key_end.keys"	"key_end.rt"	"key_end.duration"	"participant"	"session"	"date"	"expName"	"psychopyVersion"	"frameRate"	"expStart"	"...61"
NA	NA	NA	NA	NA	NA	NA	NA	0.04222820000723	0.0473695999244228	0.0473695999244228	0.0425490000052378	34.9171487999847	"[0.687962962962963]"	"[-0.387037037037037]"	"[1]"	"[0]"	"[0]"	"[34.87388249998912]"	NA	NA	NA	NA	NA	NA	NA	NA	NA	NA	NA	NA	NA	NA	NA	NA	NA	NA	NA	NA	NA	NA	NA	NA	NA	NA	NA	NA	NA	NA	NA	NA	NA	NA	20	"03"	"2024-02-14_11h31.28.597"	"BART_exp"	"2023.2.3"	119.990688707531	"2024-02-14 11h31.37.639341 +0100"	NA
"balloon.png"	110	0	0	0	25	34.983224799973	NA	NA	NA	NA	NA	NA	NA	NA	NA	NA	NA	NA	34.923237400013	34.983224799973	34.983224799973	34.983224799973	34.983224799973	34.983224799973	0.00783829996362328	0.00783829996362328	0.00783829996362328	34.983224799973	41.2269268999808	20	1	FALSE	"[0.012037037037037037, 0.012037037037037037, 0.013888888888888888, 0.014814814814814815, 0.014814814814814815, 0.014814814814814815, 0.014814814814814815, 0.014814814814814815, 0.014814814814814815, 0.014814814814814815, 0.014814814814814815, 0.014814814814814815, 0.014814814814814815, 0.014814814814814815, 0.014814814814814815, 0.014814814814814815, 0.014814814814814815, 0.014814814814814815, 0.014814814814814815, 0.014814814814814815, 0.014814814814814815]"	"[-0.36666666666666664, -0.36666666666666664, -0.3685185185185185, -0.37222222222222223, -0.37592592592592594, -0.37592592592592594, -0.37592592592592594, -0.37592592592592594, -0.37592592592592594, -0.37592592592592594, -0.37592592592592594, -0.37592592592592594, -0.37592592592592594, -0.37592592592592594, -0.37777777777777777, -0.3814814814814815, -0.3814814814814815, -0.3814814814814815, -0.3814814814814815, -0.3814814814814815, -0.3814814814814815]"	"[1, 1, 1, 1, 1, 1, 1, 1, 1, 1, 1, 1, 1, 1, 1, 1, 1, 1, 1, 1, 0]"	"[0, 0, 0, 0, 0, 0, 0, 0, 0, 0, 0, 0, 0, 0, 0, 0, 0, 0, 0, 0, 0]"	"[0, 0, 0, 0, 0, 0, 0, 0, 0, 0, 0, 0, 0, 0, 0, 0, 0, 0, 0, 0, 1]"	"[1.2692296999739483, 1.494244399946183, 1.6942547999788076, 1.8859284999780357, 2.044307600008324, 2.2192659999709576, 2.386114399996586, 2.5524764000438154, 2.686004600021988, 2.827670400030911, 2.9859535000286996, 3.152578299981542, 3.3191989000188187, 3.5275799999944866, 3.710886799963191, 3.910913100000471, 4.702651700004935, 5.052814899943769, 5.419479200034402, 5.802826300030574, 6.302755199954845]"	21	"[1.219467099988833, 1.4444816999603063, 1.6445044999709353, 1.8361719999229535, 1.994551599957049, 2.169510299921967, 2.336362399975769, 2.502714099944569, 2.636249399976805, 2.777908199932426, 2.936191999935545, 3.102820099913515, 3.269441799959168, 3.4778221999295056, 3.66112899989821, 3.861150199896656, 4.652896999963559, 5.003059099894017, 5.3697200999595225, 5.753068699967116, 6.252930499962531]"	"[1.3191433999454603, 1.5525861999485642, 1.727643399965018, 1.9192521999357268, 2.102521499968134, 2.260922999936156, 2.419213499990292, 2.5442252999637276, 2.71092369989492, 2.8526711999438703, 3.0275955999968573, 3.177627999917604, 3.352633100003004, 3.560961499926634, 3.7526794999139383, 3.95283619989641, 4.711057599983178, 5.111077299923636, 5.477774699917063, 5.852792199933901, 6.252934899996035]"	41.2282932000235	41.2420019999845	42.7338071999839	NA	NA	NA	NA	NA	NA	NA	NA	20	"03"	"2024-02-14_11h31.28.597"	"BART_exp"	"2023.2.3"	119.990688707531	"2024-02-14 11h31.37.639341 +0100"	NA
"balloon.png"	62	0	1	1	14	42.7504540999653	NA	NA	NA	NA	NA	NA	NA	NA	NA	NA	NA	NA	42.7339790000115	42.7504540999653	42.7504540999653	42.7504540999653	42.7504540999653	42.7504540999653	0.00688799994532018	0.00688799994532018	0.00688799994532018	42.7504540999653	47.7942575999768	26	1.3	FALSE	"[0.014814814814814815, 0.014814814814814815, 0.014814814814814815, 0.014814814814814815, 0.014814814814814815, 0.014814814814814815, 0.014814814814814815, 0.014814814814814815, 0.014814814814814815, 0.014814814814814815, 0.014814814814814815, 0.014814814814814815, 0.014814814814814815, 0.014814814814814815, 0.014814814814814815, 0.014814814814814815, 0.014814814814814815, 0.014814814814814815, 0.014814814814814815, 0.014814814814814815, 0.014814814814814815, 0.014814814814814815, 0.014814814814814815, 0.014814814814814815, 0.014814814814814815, 0.014814814814814815, 0.014814814814814815]"	"[-0.3814814814814815, -0.3814814814814815, -0.3814814814814815, -0.3814814814814815, -0.3814814814814815, -0.3814814814814815, -0.3814814814814815, -0.3814814814814815, -0.3814814814814815, -0.3814814814814815, -0.3814814814814815, -0.3814814814814815, -0.3814814814814815, -0.3814814814814815, -0.3814814814814815, -0.3814814814814815, -0.3814814814814815, -0.3814814814814815, -0.3814814814814815, -0.3814814814814815, -0.3814814814814815, -0.3814814814814815, -0.3814814814814815, -0.3814814814814815, -0.3814814814814815, -0.3814814814814815, -0.3814814814814815]"	"[1, 1, 1, 1, 1, 1, 1, 1, 1, 1, 1, 1, 1, 1, 1, 1, 1, 1, 1, 1, 1, 1, 1, 1, 1, 1, 0]"	"[0, 0, 0, 0, 0, 0, 0, 0, 0, 0, 0, 0, 0, 0, 0, 0, 0, 0, 0, 0, 0, 0, 0, 0, 0, 0, 0]"	"[0, 0, 0, 0, 0, 0, 0, 0, 0, 0, 0, 0, 0, 0, 0, 0, 0, 0, 0, 0, 0, 0, 0, 0, 0, 0, 1]"	"[0.24229600001126528, 0.4256579000502825, 0.6173240999924019, 0.7757607999956235, 0.9590629000449553, 1.167200000025332, 1.3422129999380559, 1.5089119999902323, 1.683938100002706, 1.8674013999989256, 2.05918159999419, 2.250825499999337, 2.4424970999825746, 2.6258109000045806, 2.8008196000009775, 2.9759586999425665, 3.1590162999927998, 3.334040299989283, 3.492540100007318, 3.667518600006588, 3.8342286000261083, 3.9925579000264406, 4.175882500014268, 4.3342628999380395, 4.467461599968374, 4.617608799948357, 5.059344899957068]"	27	"[0.23325379996094853, 0.4166129999794066, 0.6082841999595985, 0.7667207999620587, 0.9500220000045374, 1.1581585999811068, 1.333170900004916, 1.4998684999300167, 1.6748976999660954, 1.8583606999600306, 2.050140199949965, 2.2417840999551117, 2.4334576999535784, 2.616767799947411, 2.79178149998188, 2.966919400030747, 3.1499684000154957, 3.3249972999328747, 3.4835049000103027, 3.6584713000338525, 3.8251838999567553, 3.983520400011912, 4.166833800030872, 4.3252198999980465, 4.45841510000173, 4.608567000017501, 5.0502438000403345]"	"[0.34131769998930395, 0.5079558999277651, 0.6829865999752656, 0.8746462999843061, 1.0496688999701291, 1.2330154000082985, 1.4246971999527887, 1.6080498000374064, 1.7747606999473646, 1.9497377999359742, 2.1664037000155076, 2.3497708999784663, 2.541479400009848, 2.724808400031179, 2.9081224999390543, 3.0748118000337854, 3.258177599986084, 3.4331788000417873, 3.5748923999490216, 3.7415389999514446, 3.916671499959193, 4.074914199998602, 4.241555999964476, 4.391638100030832, 4.541642599971965, 4.724964199936949, 5.050247899955139]"	47.795365100028	47.8008750999579	49.2927418999607	49.3008911999641	NA	NA	NA	NA	NA	NA	NA	20	"03"	"2024-02-14_11h31.28.597"	"BART_exp"	"2023.2.3"	119.990688707531	"2024-02-14 11h31.37.639341 +0100"	NA
"balloon.png"	5	0	2	2	1	49.3008911999641	NA	NA	NA	NA	NA	NA	NA	NA	NA	NA	NA	NA	49.2929168000119	49.3008911999641	49.3008911999641	49.3008911999641	49.3008911999641	49.3008911999641	0.00559059996157884	0.00559059996157884	0.00559059996157884	49.3008911999641	51.4862347999588	6	0.25	TRUE	"[0.014814814814814815, 0.014814814814814815, 0.014814814814814815, 0.014814814814814815, 0.014814814814814815, 0.014814814814814815]"	"[-0.3814814814814815, -0.3814814814814815, -0.3814814814814815, -0.3814814814814815, -0.3814814814814815, -0.3814814814814815]"	"[1, 1, 1, 1, 1, 1]"	"[0, 0, 0, 0, 0, 0]"	"[0, 0, 0, 0, 0, 0]"	"[1.1005374999949709, 1.3337139000650495, 1.5254081999883056, 1.7170941000804305, 1.908762300037779, 2.0922609000699595]"	6	"[1.0987120000645518, 1.331886600004509, 1.5235833000624552, 1.715268800035119, 1.906936400104314, 2.090436000027694]"	"[1.2233957001008093, 1.4317807001061738, 1.631767800077796, 1.7984543000347912, 1.998502800008282, 2.1818343000486493]"	51.4868526000064	51.5010530999862	52.9927983999951	NA	NA	NA	NA	NA	NA	NA	NA	20	"03"	"2024-02-14_11h31.28.597"	"BART_exp"	"2023.2.3"	119.990688707531	"2024-02-14 11h31.37.639341 +0100"	NA
"balloon.png"	92	0	3	3	21	53.0092778999824	NA	NA	NA	NA	NA	NA	NA	NA	NA	NA	NA	NA	52.9930090999696	53.0092778999824	53.0092778999824	53.0092778999824	53.0092778999824	53.0092778999824	0.00754649995360523	0.00754649995360523	0.00754649995360523	53.0092778999824	58.3280357000185	21	1.05	FALSE	"[0.013888888888888888, 0.013888888888888888, 0.013888888888888888, 0.013888888888888888, 0.013888888888888888, 0.013888888888888888, 0.013888888888888888, 0.013888888888888888, 0.013888888888888888, 0.013888888888888888, 0.013888888888888888, 0.013888888888888888, 0.013888888888888888, 0.013888888888888888, 0.013888888888888888, 0.013888888888888888, 0.013888888888888888, 0.013888888888888888, 0.013888888888888888, 0.013888888888888888, 0.013888888888888888, 0.013888888888888888]"	"[-0.37962962962962965, -0.3814814814814815, -0.3814814814814815, -0.3814814814814815, -0.3814814814814815, -0.3814814814814815, -0.3814814814814815, -0.3814814814814815, -0.3814814814814815, -0.3814814814814815, -0.3814814814814815, -0.3824074074074074, -0.3824074074074074, -0.3824074074074074, -0.3824074074074074, -0.3824074074074074, -0.3824074074074074, -0.3824074074074074, -0.3824074074074074, -0.3824074074074074, -0.3824074074074074, -0.3824074074074074]"	"[1, 1, 1, 1, 1, 1, 1, 1, 1, 1, 1, 1, 1, 1, 1, 1, 1, 1, 1, 1, 1, 0]"	"[0, 0, 0, 0, 0, 0, 0, 0, 0, 0, 0, 0, 0, 0, 0, 0, 0, 0, 0, 0, 0, 0]"	"[0, 0, 0, 0, 0, 0, 0, 0, 0, 0, 0, 0, 0, 0, 0, 0, 0, 0, 0, 0, 0, 1]"	"[0.37534949998371303, 0.5837271999334916, 0.75873080000747, 0.9672803999856114, 1.167055599973537, 1.3670574999414384, 1.5754322999855503, 1.7671627999516204, 1.9754531999351457, 2.1754690000088885, 2.4086535000242293, 2.6088377999840304, 2.8253294000169262, 3.200400899979286, 3.4921707999892533, 3.892331999959424, 4.067087900009938, 4.242117999936454, 4.4254490999737754, 4.608817099942826, 4.78398730000481, 5.333996300003491]"	22	"[0.3658663999522105, 0.5742404999909922, 0.7492430999409407, 0.9577945999335498, 1.157565400004387, 1.3575653999578208, 1.5659444999182597, 1.7576775999041274, 1.9659618999576196, 2.1659812999423593, 2.399164699949324, 2.5993479999015108, 2.815832299995236, 3.1909074999857694, 3.4826815999113023, 3.8828396999742836, 4.057595299906097, 4.232624899945222, 4.415954799973406, 4.599323399947025, 4.774498999933712, 5.324444499914534]"	"[0.4488695999607444, 0.665550599922426, 0.8572105999337509, 1.065630599972792, 1.2655894999625161, 1.4489460999611765, 1.6656167999608442, 1.8656271999934688, 2.0739643999841064, 2.2739785999292508, 2.499145899899304, 2.708815399906598, 2.915724299964495, 3.299099399941042, 3.5990826999768615, 3.9574313999619335, 4.140809399890713, 4.332469599903561, 4.507477599894628, 4.707488799933344, 4.899149199947715, 5.324448599945754]"	58.3290418999968	58.3429828999797	59.8348088000203	NA	NA	NA	NA	NA	NA	NA	NA	20	"03"	"2024-02-14_11h31.28.597"	"BART_exp"	"2023.2.3"	119.990688707531	"2024-02-14 11h31.37.639341 +0100"	NA
"balloon.png"	27	0	4	4	6	59.8514243999962	NA	NA	NA	NA	NA	NA	NA	NA	NA	NA	NA	NA	59.8349849999649	59.8514243999962	59.8514243999962	59.8514243999962	59.8514243999962	59.8514243999962	0.00724810000974684	0.00724810000974684	0.00724810000974684	59.8514243999962	64.5286242000293	24	1.2	FALSE	"[0.013888888888888888, 0.013888888888888888, 0.013888888888888888, 0.013888888888888888, 0.013888888888888888, 0.013888888888888888, 0.013888888888888888, 0.013888888888888888, 0.013888888888888888, 0.013888888888888888, 0.013888888888888888, 0.013888888888888888, 0.013888888888888888, 0.013888888888888888, 0.013888888888888888, 0.013888888888888888, 0.013888888888888888, 0.013888888888888888, 0.013888888888888888, 0.013888888888888888, 0.013888888888888888, 0.013888888888888888, 0.013888888888888888, 0.013888888888888888]"	"[-0.3824074074074074, -0.3824074074074074, -0.3824074074074074, -0.3824074074074074, -0.3824074074074074, -0.3824074074074074, -0.3824074074074074, -0.3824074074074074, -0.3824074074074074, -0.3824074074074074, -0.3824074074074074, -0.3824074074074074, -0.3824074074074074, -0.3824074074074074, -0.3824074074074074, -0.3824074074074074, -0.3824074074074074, -0.3824074074074074, -0.3824074074074074, -0.3824074074074074, -0.3824074074074074, -0.3824074074074074, -0.3824074074074074, -0.3824074074074074]"	"[1, 1, 1, 1, 1, 1, 1, 1, 1, 1, 1, 1, 1, 1, 1, 1, 1, 1, 1, 1, 1, 1, 1, 0]"	"[0, 0, 0, 0, 0, 0, 0, 0, 0, 0, 0, 0, 0, 0, 0, 0, 0, 0, 0, 0, 0, 0, 0, 0]"	"[0, 0, 0, 0, 0, 0, 0, 0, 0, 0, 0, 0, 0, 0, 0, 0, 0, 0, 0, 0, 0, 0, 0, 1]"	"[0.17546559998299927, 0.3671452000271529, 0.5589788000797853, 0.7339664000319317, 0.9090024000033736, 1.1006968000438064, 1.2842335000168532, 1.4757985000032932, 1.667577699990943, 1.8508251000894234, 2.042536500026472, 2.267523600021377, 2.459186000050977, 2.6925602999981493, 2.8759197000181302, 3.059231900027953, 3.227383300079964, 3.417484400095418, 3.6091975000454113, 3.7674829000607133, 3.959281900082715, 4.175888400059193, 4.375939000048675, 4.692727499990724]"	24	"[0.16792649996932596, 0.3596057000104338, 0.5514473000075668, 0.7264267000136897, 0.9014685000292957, 1.0931576000293717, 1.2767057999735698, 1.4682636000216007, 1.6600387999787927, 1.8432926000095904, 2.0349951999960467, 2.2599871000275016, 2.4516506999498233, 2.6850223999936134, 2.8683803000021726, 3.0516980999382213, 3.2200076000299305, 3.4099412999348715, 3.601659799925983, 3.7599459999473765, 3.9517472999868914, 4.168354099965654, 4.368400299921632, 4.685128999990411]"	"[0.2760967999929562, 0.4594388999976218, 0.6511245999718085, 0.826123800012283, 1.0094826000276953, 1.1929181999294087, 1.384628999978304, 1.5679625000339001, 1.7763130000093952, 1.9596427999204025, 2.1679789000190794, 2.359671799931675, 2.5763602999504656, 2.776606300030835, 2.9763815000187606, 3.1514293999643996, 3.3264487999258563, 3.5014015999622643, 3.676423499942757, 3.859784899977967, 4.0848618999589235, 4.259868799941614, 4.434867299976759, 4.685133000020869]"	64.5296624000184	64.5353104999522	66.0272575999843	66.0353937000036	NA	NA	NA	NA	NA	NA	NA	20	"03"	"2024-02-14_11h31.28.597"	"BART_exp"	"2023.2.3"	119.990688707531	"2024-02-14 11h31.37.639341 +0100"	NA
"balloon.png"	14	0	5	5	3	66.0353937000036	NA	NA	NA	NA	NA	NA	NA	NA	NA	NA	NA	NA	66.0274394999724	66.0353937000036	66.0353937000036	66.0353937000036	66.0353937000036	66.0353937000036	0.00579269998706877	0.00579269998706877	0.00579269998706877	66.0353937000036	69.5626694000093	15	0.7	TRUE	"[0.013888888888888888, 0.013888888888888888, 0.013888888888888888, 0.013888888888888888, 0.013888888888888888, 0.013888888888888888, 0.013888888888888888, 0.013888888888888888, 0.013888888888888888, 0.013888888888888888, 0.013888888888888888, 0.013888888888888888, 0.013888888888888888, 0.013888888888888888, 0.013888888888888888]"	"[-0.37777777777777777, -0.37777777777777777, -0.37777777777777777, -0.37777777777777777, -0.37777777777777777, -0.37777777777777777, -0.37777777777777777, -0.37777777777777777, -0.37777777777777777, -0.37777777777777777, -0.37777777777777777, -0.37777777777777777, -0.37777777777777777, -0.37777777777777777, -0.37777777777777777]"	"[1, 1, 1, 1, 1, 1, 1, 1, 1, 1, 1, 1, 1, 1, 1]"	"[0, 0, 0, 0, 0, 0, 0, 0, 0, 0, 0, 0, 0, 0, 0]"	"[0, 0, 0, 0, 0, 0, 0, 0, 0, 0, 0, 0, 0, 0, 0]"	"[0.24207819998264313, 0.4504780999850482, 0.6672229000832886, 0.8504886000882834, 1.0421863000374287, 1.2253879000199959, 1.4087189000565559, 1.6004251000704244, 2.092258100048639, 2.250437100068666, 2.4422931000590324, 2.633942999993451, 3.0338658000109717, 3.2257350999861956, 3.408855100045912]"	15	"[0.2402738000964746, 0.4486728000920266, 0.6654204000951722, 0.8486793000483885, 1.0403768001124263, 1.223577400087379, 1.4069097000174224, 1.59861860005185, 2.0904487000079826, 2.24862910003867, 2.4404836000176147, 2.632134500076063, 3.032053300063126, 3.2239345000125468, 3.4070481000235304]"	"[0.33166610007174313, 0.548348700045608, 0.765114700072445, 0.9318030000431463, 1.1234294000314549, 1.306747000082396, 1.5150879001012072, 1.6901359000476077, 2.106803600094281, 2.3484769000206143, 2.5568426001118496, 2.7665986000793055, 3.1153203001013026, 3.2903384000528604, 3.5235596999991685]"	69.5634836999234	69.5690222999547	71.060954399989	71.0691142999567	NA	NA	NA	NA	NA	NA	NA	20	"03"	"2024-02-14_11h31.28.597"	"BART_exp"	"2023.2.3"	119.990688707531	"2024-02-14 11h31.37.639341 +0100"	NA
"balloon.png"	40	0	6	6	9	71.0691142999567	NA	NA	NA	NA	NA	NA	NA	NA	NA	NA	NA	NA	71.0611347999657	71.0691142999567	71.0691142999567	71.0691142999567	71.0691142999567	71.0691142999567	0.00569169991649687	NA	NA	71.0691142999567	76.9627202999545	19	0.95	FALSE	"[0.013888888888888888, 0.013888888888888888, 0.013888888888888888, 0.013888888888888888, 0.013888888888888888, 0.013888888888888888, 0.013888888888888888, 0.013888888888888888, 0.013888888888888888, 0.013888888888888888, 0.013888888888888888, 0.013888888888888888, 0.013888888888888888, 0.013888888888888888, 0.013888888888888888, 0.013888888888888888, 0.013888888888888888, 0.013888888888888888, 0.013888888888888888, 0.013888888888888888]"	"[-0.3768518518518518, -0.3768518518518518, -0.3768518518518518, -0.3768518518518518, -0.3768518518518518, -0.3768518518518518, -0.3768518518518518, -0.3768518518518518, -0.3768518518518518, -0.3768518518518518, -0.3768518518518518, -0.3768518518518518, -0.3768518518518518, -0.3768518518518518, -0.3768518518518518, -0.3768518518518518, -0.3768518518518518, -0.3768518518518518, -0.3768518518518518, -0.3768518518518518]"	"[1, 1, 1, 1, 1, 1, 1, 1, 1, 1, 1, 1, 1, 1, 1, 1, 1, 1, 1, 0]"	"[0, 0, 0, 0, 0, 0, 0, 0, 0, 0, 0, 0, 0, 0, 0, 0, 0, 0, 0, 0]"	"[0, 0, 0, 0, 0, 0, 0, 0, 0, 0, 0, 0, 0, 0, 0, 0, 0, 0, 0, 1]"	"[1.483909000060521, 1.6838962000329047, 1.92541969998274, 2.142203400027938, 2.350452500046231, 2.5756036000093445, 2.8089522999944165, 3.025656700017862, 3.225729300058447, 3.4506883000722155, 3.667397000011988, 3.859062100062147, 4.0674042999744415, 4.275825900025666, 4.475757900043391, 4.659126800019294, 4.842437200015411, 5.050803899997845, 5.259355399990454, 5.900705700041726]"	20	"[1.4820367000065744, 1.6820183999370784, 1.9235384999774396, 2.140332099981606, 2.3485755999572575, 2.5737240000162274, 2.807077100034803, 3.0237825999502093, 3.223855899996124, 3.4488148000091314, 3.665520600043237, 3.857187299989164, 4.06552920001559, 4.273952499963343, 4.473877500044182, 4.657246800023131, 4.840568899991922, 5.048944500042126, 5.257477500010282, 5.89876260003075]"	"[1.606717300019227, 1.8234049000311643, 2.0151220000116155, 2.206745299976319, 2.4484259999589995, 2.681809699977748, 2.923452500021085, 3.123481299960986, 3.331852599978447, 3.5651638000272214, 3.7652651999378577, 3.956874500028789, 4.165442000026815, 4.381929700030014, 4.565250899991952, 4.748626000015065, 4.948635200038552, 5.148781499941833, 5.357059399946593, 5.898766699945554]"	76.9637525000144	76.9695183000294	78.4614669999573	78.4863058000337	NA	NA	NA	NA	NA	NA	NA	20	"03"	"2024-02-14_11h31.28.597"	"BART_exp"	"2023.2.3"	119.990688707531	"2024-02-14 11h31.37.639341 +0100"	NA
"balloon.png"	84	0	7	7	19	78.4863058000337	NA	NA	NA	NA	NA	NA	NA	NA	NA	NA	NA	NA	78.4616409000009	78.4863058000337	78.4863058000337	78.4863058000337	78.4863058000337	78.4863058000337	-0.00089070003014057	-0.00089070003014057	-0.00089070003014057	78.4863058000337	83.2216473999433	20	1	FALSE	"[0.013888888888888888, 0.013888888888888888, 0.013888888888888888, 0.013888888888888888, 0.013888888888888888, 0.013888888888888888, 0.013888888888888888, 0.013888888888888888, 0.013888888888888888, 0.013888888888888888, 0.013888888888888888, 0.013888888888888888, 0.013888888888888888, 0.013888888888888888, 0.013888888888888888, 0.013888888888888888, 0.013888888888888888, 0.013888888888888888, 0.013888888888888888, 0.013888888888888888, 0.013888888888888888]"	"[-0.3768518518518518, -0.3768518518518518, -0.3768518518518518, -0.3768518518518518, -0.3768518518518518, -0.3768518518518518, -0.3768518518518518, -0.3768518518518518, -0.3768518518518518, -0.3768518518518518, -0.3768518518518518, -0.3768518518518518, -0.3768518518518518, -0.3768518518518518, -0.3768518518518518, -0.3768518518518518, -0.3768518518518518, -0.3768518518518518, -0.3768518518518518, -0.3768518518518518, -0.3768518518518518]"	"[1, 1, 1, 1, 1, 1, 1, 1, 1, 1, 1, 1, 1, 1, 1, 1, 1, 1, 1, 1, 0]"	"[0, 0, 0, 0, 0, 0, 0, 0, 0, 0, 0, 0, 0, 0, 0, 0, 0, 0, 0, 0, 0]"	"[0, 0, 0, 0, 0, 0, 0, 0, 0, 0, 0, 0, 0, 0, 0, 0, 0, 0, 0, 0, 1]"	"[0.28378900000825524, 0.5336531000211835, 0.7254740000935271, 0.9170809000497684, 1.1254659000551328, 1.3420534000033513, 1.5337071000831202, 1.725414999993518, 1.925411400035955, 2.125425499980338, 2.342096999986097, 2.842375300009735, 3.0673321000067517, 3.242385199991986, 3.425686200032942, 3.6090547000057995, 3.7924568000016734, 3.9924210000317544, 4.200784699991345, 4.375811500009149, 4.75907630007714]"	21	"[0.27248649997636676, 0.5223453000653535, 0.7141618999885395, 0.905777300009504, 1.1141562999691814, 1.330741100013256, 1.5223977999994531, 1.7141071000369266, 1.9141030999599025, 2.1141115999780595, 2.330789600033313, 2.8310725999763235, 3.0560265000676736, 3.231086099985987, 3.41438139998354, 3.5977538999868557, 3.781146500026807, 3.9811148999724537, 4.189485499984585, 4.364502500044182, 4.747707200003788]"	"[0.3888441000599414, 0.5972446000669152, 0.8055256999796256, 1.0139062000671402, 1.2222281000576913, 1.4389660999877378, 1.6223050999687985, 1.8140488000353798, 2.013954699970782, 2.2222865000367165, 2.4306443000677973, 2.930687800049782, 3.130748499999754, 3.3390382999787107, 3.5224026000360027, 3.7057448000414297, 3.8974191000452265, 4.089094300055876, 4.297458800021559, 4.480841999989934, 4.747711200034246]"	83.2226085999282	83.2282941000303	84.7202597999712	84.7284662999446	NA	NA	NA	NA	NA	NA	NA	20	"03"	"2024-02-14_11h31.28.597"	"BART_exp"	"2023.2.3"	119.990688707531	"2024-02-14 11h31.37.639341 +0100"	NA
"balloon.png"	57	0	8	8	13	84.7284662999446	NA	NA	NA	NA	NA	NA	NA	NA	NA	NA	NA	NA	84.7204366000369	84.7284662999446	84.7284662999446	84.7284662999446	84.7284662999446	84.7284662999446	-0.00097839999943971	-0.00097839999943971	-0.00097839999943971	84.7284662999446	89.3804503999418	20	1	FALSE	"[0.013888888888888888, 0.013888888888888888, 0.013888888888888888, 0.013888888888888888, 0.013888888888888888, 0.013888888888888888, 0.013888888888888888, 0.013888888888888888, 0.013888888888888888, 0.013888888888888888, 0.013888888888888888, 0.013888888888888888, 0.013888888888888888, 0.013888888888888888, 0.013888888888888888, 0.013888888888888888, 0.013888888888888888, 0.013888888888888888, 0.013888888888888888, 0.013888888888888888, 0.013888888888888888]"	"[-0.3768518518518518, -0.3768518518518518, -0.3768518518518518, -0.3768518518518518, -0.3768518518518518, -0.3768518518518518, -0.3768518518518518, -0.3768518518518518, -0.3768518518518518, -0.3768518518518518, -0.3768518518518518, -0.3768518518518518, -0.3768518518518518, -0.3768518518518518, -0.3768518518518518, -0.3768518518518518, -0.3768518518518518, -0.3768518518518518, -0.3768518518518518, -0.3768518518518518, -0.3768518518518518]"	"[1, 1, 1, 1, 1, 1, 1, 1, 1, 1, 1, 1, 1, 1, 1, 1, 1, 1, 1, 1, 0]"	"[0, 0, 0, 0, 0, 0, 0, 0, 0, 0, 0, 0, 0, 0, 0, 0, 0, 0, 0, 0, 0]"	"[0, 0, 0, 0, 0, 0, 0, 0, 0, 0, 0, 0, 0, 0, 0, 0, 0, 0, 0, 0, 1]"	"[0.31696179998107255, 0.5087429999839514, 0.6836561999516562, 0.8836981999920681, 1.0920288999332115, 1.3004393000155687, 1.500493000028655, 1.7006999999284744, 1.9422693999949843, 2.1422643000259995, 2.35893450002186, 2.5589480999624357, 2.7339534999337047, 2.942427400033921, 3.158995599951595, 3.5423520000185817, 3.7592892999527976, 3.9507328999461606, 4.134047899977304, 4.3924080999568105, 4.659112100023776]"	21	"[0.31484280002769083, 0.5066213000100106, 0.6815428999252617, 0.8815792000386864, 1.0899132000049576, 1.2983222999610007, 1.4983783999923617, 1.6985939999576658, 1.9401595999952406, 2.140144699951634, 2.3568204999901354, 2.5568283000029624, 2.731839600019157, 2.9403190999291837, 3.1568833999335766, 3.540233999956399, 3.757177699939348, 3.948614599998109, 4.131927100010216, 4.390292400028557, 4.656933099962771]"	"[0.3813686999492347, 0.564719200017862, 0.7814231000375003, 0.9897528999717906, 1.1980987000279129, 1.4086313999723643, 1.6067154000047594, 1.8232506000204012, 2.056495500029996, 2.2564951999811456, 2.4731858000159264, 2.656545100035146, 2.848210299969651, 3.064983099931851, 3.2732497999677435, 3.690029999939725, 3.8650985999265686, 4.048311799997464, 4.273299899999984, 4.498373199952766, 4.656937299994752]"	89.3815934000304	89.3870516000316	90.8790290999459	90.8871808999684	NA	NA	NA	NA	NA	NA	NA	20	"03"	"2024-02-14_11h31.28.597"	"BART_exp"	"2023.2.3"	119.990688707531	"2024-02-14 11h31.37.639341 +0100"	NA
"balloon.png"	66	0	9	9	15	90.8871808999684	NA	NA	NA	NA	NA	NA	NA	NA	NA	NA	NA	NA	90.8792114999378	90.8871808999684	90.8871808999684	90.8871808999684	90.8871808999684	90.8871808999684	0.00566979998257011	0.00566979998257011	0.00566979998257011	90.8871808999684	94.9806569999782	12	0.6	FALSE	"[0.013888888888888888, 0.013888888888888888, 0.013888888888888888, 0.013888888888888888, 0.013888888888888888, 0.013888888888888888, 0.013888888888888888, 0.013888888888888888, 0.013888888888888888, 0.013888888888888888, 0.013888888888888888, 0.013888888888888888, 0.013888888888888888]"	"[-0.3768518518518518, -0.3768518518518518, -0.3768518518518518, -0.3768518518518518, -0.3768518518518518, -0.3768518518518518, -0.3768518518518518, -0.3768518518518518, -0.3768518518518518, -0.3768518518518518, -0.3768518518518518, -0.3768518518518518, -0.3768518518518518]"	"[1, 1, 1, 1, 1, 1, 1, 1, 1, 1, 1, 1, 0]"	"[0, 0, 0, 0, 0, 0, 0, 0, 0, 0, 0, 0, 0]"	"[0, 0, 0, 0, 0, 0, 0, 0, 0, 0, 0, 0, 1]"	"[0.8671477000461891, 1.0338527000276372, 1.2255114000290632, 1.4088851000415161, 1.5922014999669045, 1.8004344999790192, 1.9840492999646813, 2.183913000044413, 2.35895729996264, 2.793857399956323, 3.0422951000509784, 3.7508473000489175, 4.100559600046836]"	13	"[0.8653183000860736, 1.032021400053054, 1.2236752000171691, 1.4070461000083014, 1.5903630000539124, 1.798600900103338, 1.9822167000966147, 2.1820805000606924, 2.357123500085436, 2.7921437000622973, 3.040459100040607, 3.7490085000172257, 4.0986603000201285]"	"[0.9316748999990523, 1.1233575000660494, 1.3067408000351861, 1.5067206000676379, 1.6817261000396684, 1.8900759000098333, 2.0817744000814855, 2.2734403000213206, 2.4568207000847906, 2.890145800076425, 3.173520000069402, 3.856874500052072, 4.098664700053632]"	94.981455400004	94.9875189999584	96.4794644999784	96.4958838999737	NA	NA	NA	NA	NA	NA	NA	20	"03"	"2024-02-14_11h31.28.597"	"BART_exp"	"2023.2.3"	119.990688707531	"2024-02-14 11h31.37.639341 +0100"	NA
"balloon.png"	18	0	10	10	4	96.4958838999737	NA	NA	NA	NA	NA	NA	NA	NA	NA	NA	NA	NA	96.4796417999314	96.4958838999737	96.4958838999737	96.4958838999737	96.4958838999737	96.4958838999737	-0.00049530004616826	-0.00049530004616826	-0.00049530004616826	96.4958838999737	100.539752200013	19	0.9	TRUE	"[0.013888888888888888, 0.013888888888888888, 0.013888888888888888, 0.013888888888888888, 0.013888888888888888, 0.013888888888888888, 0.013888888888888888, 0.013888888888888888, 0.013888888888888888, 0.013888888888888888, 0.013888888888888888, 0.013888888888888888, 0.013888888888888888, 0.013888888888888888, 0.013888888888888888, 0.013888888888888888, 0.013888888888888888, 0.013888888888888888, 0.013888888888888888]"	"[-0.3768518518518518, -0.3768518518518518, -0.3768518518518518, -0.3768518518518518, -0.3768518518518518, -0.3768518518518518, -0.3768518518518518, -0.3768518518518518, -0.3768518518518518, -0.3768518518518518, -0.3768518518518518, -0.3768518518518518, -0.3768518518518518, -0.3768518518518518, -0.3768518518518518, -0.3768518518518518, -0.3768518518518518, -0.3768518518518518, -0.3768518518518518]"	"[1, 1, 1, 1, 1, 1, 1, 1, 1, 1, 1, 1, 1, 1, 1, 1, 1, 1, 1]"	"[0, 0, 0, 0, 0, 0, 0, 0, 0, 0, 0, 0, 0, 0, 0, 0, 0, 0, 0]"	"[0, 0, 0, 0, 0, 0, 0, 0, 0, 0, 0, 0, 0, 0, 0, 0, 0, 0, 0]"	"[0.24198639998212457, 0.5001622999552637, 0.7085106999147683, 0.9253674999345094, 1.1420004999963567, 1.3587299999780953, 1.542066999943927, 1.7338399000000209, 1.925457299919799, 2.1338654999854043, 2.3504546999465674, 2.5588065999327227, 2.759017299977131, 2.958928099949844, 3.1518673999235034, 3.35053399996832, 3.5337496999418363, 3.725542499916628, 3.9423332000151277]"	19	"[0.23890489991754293, 0.49707959999796003, 0.7054243999300525, 0.9222862999886274, 1.1389224999584258, 1.3556492999196053, 1.538983599981293, 1.7307634999742731, 1.9223774999845773, 2.130784099921584, 2.34737520001363, 2.5557261999929324, 2.75593789992854, 2.9558601999888197, 3.1489498999435455, 3.3474540999159217, 3.5306714000180364, 3.722460399963893, 3.939263799926266]"	"[0.3219048000173643, 0.5719595999689773, 0.7886559999315068, 1.0136864999076352, 1.2470226999139413, 1.4553228999720886, 1.638709699967876, 1.8303612999152392, 2.030369999934919, 2.2387974999146536, 2.4472880999092013, 2.6554824999766424, 2.8637864999473095, 3.047188699943945, 3.2554547999752685, 3.4555050999624655, 3.638836900005117, 3.822147300001234, 4.047288200003095]"	100.540656800033	100.546163999941	102.038131900015	102.046268500038	NA	NA	NA	NA	NA	NA	NA	20	"03"	"2024-02-14_11h31.28.597"	"BART_exp"	"2023.2.3"	119.990688707531	"2024-02-14 11h31.37.639341 +0100"	NA
"balloon.png"	127	0	11	11	29	102.046268500038	NA	NA	NA	NA	NA	NA	NA	NA	NA	NA	NA	NA	102.038315000013	102.046268500038	102.046268500038	102.046268500038	102.046268500038	102.046268500038	0.00567049998790025	NA	NA	102.046268500038	107.473364999983	18	0.9	FALSE	"[0.013888888888888888, 0.013888888888888888, 0.013888888888888888, 0.013888888888888888, 0.013888888888888888, 0.013888888888888888, 0.013888888888888888, 0.013888888888888888, 0.013888888888888888, 0.013888888888888888, 0.013888888888888888, 0.013888888888888888, 0.013888888888888888, 0.013888888888888888, 0.013888888888888888, 0.013888888888888888, 0.013888888888888888, 0.013888888888888888, 0.013888888888888888]"	"[-0.3768518518518518, -0.3768518518518518, -0.3768518518518518, -0.3768518518518518, -0.3768518518518518, -0.3768518518518518, -0.3768518518518518, -0.3768518518518518, -0.3768518518518518, -0.3768518518518518, -0.3768518518518518, -0.3768518518518518, -0.3768518518518518, -0.3768518518518518, -0.3768518518518518, -0.3768518518518518, -0.3768518518518518, -0.3768518518518518, -0.3768518518518518]"	"[1, 1, 1, 1, 1, 1, 1, 1, 1, 1, 1, 1, 1, 1, 1, 1, 1, 1, 0]"	"[0, 0, 0, 0, 0, 0, 0, 0, 0, 0, 0, 0, 0, 0, 0, 0, 0, 0, 0]"	"[0, 0, 0, 0, 0, 0, 0, 0, 0, 0, 0, 0, 0, 0, 0, 0, 0, 0, 1]"	"[0.2920962000498548, 0.5087532000616193, 0.7087361000012606, 0.8921676999889314, 1.067186100059189, 1.2505288999527693, 1.442210500012152, 1.9171373000135645, 2.1004383000545204, 2.2838154999772087, 2.4590484000509605, 2.6506610000506043, 2.84236080001574, 3.0173725000349805, 3.2173162000253797, 3.5923378999577835, 3.9588950000470504, 4.308918399969116, 5.434157700045034]"	19	"[0.29022189998067915, 0.506876099971123, 0.7068600000347942, 0.8902939999243245, 1.0653113999869674, 1.2486522999824956, 1.4403298000106588, 1.9152626999421045, 2.0985590999480337, 2.281937299994752, 2.4571759999962524, 2.6487859999760985, 2.840487499954179, 3.0154983999673277, 3.2154421999584883, 3.5904598999768496, 3.957019399967976, 4.307046200032346, 5.432217799942009]"	"[0.39827030000742525, 0.5899441000074148, 0.7733107999665663, 0.9650213000131771, 1.1566684999270365, 1.3567179000237957, 1.540020399959758, 1.990049000014551, 2.1900733000366017, 2.373420499963686, 2.5484916999703273, 2.7317690999479964, 2.9317896999418736, 3.1234769999282435, 3.3235083000035957, 3.6901722999755293, 4.065220299991779, 4.415351100033149, 5.432221899973229]"	107.474254100001	107.479982599965	108.971944199991	108.996759600006	NA	NA	NA	NA	NA	NA	NA	20	"03"	"2024-02-14_11h31.28.597"	"BART_exp"	"2023.2.3"	119.990688707531	"2024-02-14 11h31.37.639341 +0100"	NA
"balloon.png"	101	0	12	12	23	108.996759600006	NA	NA	NA	NA	NA	NA	NA	NA	NA	NA	NA	NA	108.972122099949	108.996759600006	108.996759600006	108.996759600006	108.996759600006	108.996759600006	-0.00092509994283318	-0.00092509994283318	-0.00092509994283318	108.996759600006	114.465538999997	20	1	FALSE	"[0.013888888888888888, 0.013888888888888888, 0.013888888888888888, 0.013888888888888888, 0.013888888888888888, 0.013888888888888888, 0.013888888888888888, 0.013888888888888888, 0.013888888888888888, 0.013888888888888888, 0.013888888888888888, 0.013888888888888888, 0.013888888888888888, 0.013888888888888888, 0.013888888888888888, 0.013888888888888888, 0.013888888888888888, 0.013888888888888888, 0.013888888888888888, 0.013888888888888888, 0.013888888888888888]"	"[-0.3768518518518518, -0.3768518518518518, -0.3768518518518518, -0.3768518518518518, -0.3768518518518518, -0.3768518518518518, -0.3768518518518518, -0.3768518518518518, -0.3768518518518518, -0.3768518518518518, -0.3768518518518518, -0.3768518518518518, -0.3768518518518518, -0.3768518518518518, -0.3768518518518518, -0.3768518518518518, -0.3768518518518518, -0.3768518518518518, -0.3768518518518518, -0.3768518518518518, -0.3768518518518518]"	"[1, 1, 1, 1, 1, 1, 1, 1, 1, 1, 1, 1, 1, 1, 1, 1, 1, 1, 1, 1, 0]"	"[0, 0, 0, 0, 0, 0, 0, 0, 0, 0, 0, 0, 0, 0, 0, 0, 0, 0, 0, 0, 0]"	"[0, 0, 0, 0, 0, 0, 0, 0, 0, 0, 0, 0, 0, 0, 0, 0, 0, 0, 0, 0, 1]"	"[0.6421631000703201, 0.883835899992846, 1.1005190999712795, 1.31722730002366, 1.5338465999811888, 1.7504762000171468, 1.958768600015901, 2.183787200017832, 2.408783599967137, 2.625499499961734, 2.817341399961151, 3.033967799972743, 3.25068439997267, 3.475688899983652, 3.7007288000313565, 3.9271712000481784, 4.158914300031029, 4.367263699998148, 4.58397719997447, 5.034140500007197, 5.492514400044456]"	21	"[0.631113399984315, 0.8727801999775693, 1.089468799997121, 1.3061717000091448, 1.5228046999545768, 1.7394224000163376, 1.9477180999238044, 2.17273250001017, 2.397728899959475, 2.6144462999654934, 2.80629749991931, 3.022933700005524, 3.239632699987851, 3.464636899996549, 3.6896817999659106, 3.9162742999615148, 4.147862099925987, 4.356217999942601, 4.572923099971376, 5.0230870000086725, 5.481400099932216]"	"[0.7474910999881104, 0.9725032999413088, 1.1975162000162527, 1.4225212999153882, 1.6308960999595001, 1.8475230999756604, 2.0559314999263734, 2.2809053999371827, 2.506151899928227, 2.6978373000165448, 2.8976796999340877, 3.1309716999530792, 3.3643224999541417, 3.5811604999471456, 3.7977990999352187, 4.031055499915965, 4.2560620999429375, 4.447739499970339, 4.672728699981235, 5.131150999921374, 5.481404099962674]"	114.466592399986	114.472166499938	115.964154399931	115.972260199953	NA	NA	NA	NA	NA	NA	NA	20	"03"	"2024-02-14_11h31.28.597"	"BART_exp"	"2023.2.3"	119.990688707531	"2024-02-14 11h31.37.639341 +0100"	NA
"balloon.png"	88	0	13	13	20	115.972260199953	NA	NA	NA	NA	NA	NA	NA	NA	NA	NA	NA	NA	115.964336700039	115.972260199953	115.972260199953	115.972260199953	115.972260199953	115.972260199953	0.0057289000833407	0.0057289000833407	0.0057289000833407	115.972260199953	120.240963199991	20	1	FALSE	"[0.013888888888888888, 0.013888888888888888, 0.013888888888888888, 0.013888888888888888, 0.013888888888888888, 0.013888888888888888, 0.013888888888888888, 0.013888888888888888, 0.013888888888888888, 0.013888888888888888, 0.013888888888888888, 0.013888888888888888, 0.013888888888888888, 0.013888888888888888, 0.013888888888888888, 0.013888888888888888, 0.013888888888888888, 0.013888888888888888, 0.013888888888888888, 0.013888888888888888, 0.013888888888888888]"	"[-0.3768518518518518, -0.3768518518518518, -0.3768518518518518, -0.3768518518518518, -0.3768518518518518, -0.3768518518518518, -0.3768518518518518, -0.3768518518518518, -0.3768518518518518, -0.3768518518518518, -0.3768518518518518, -0.3768518518518518, -0.3768518518518518, -0.3768518518518518, -0.3768518518518518, -0.3768518518518518, -0.3768518518518518, -0.3768518518518518, -0.3768518518518518, -0.3768518518518518, -0.3768518518518518]"	"[1, 1, 1, 1, 1, 1, 1, 1, 1, 1, 1, 1, 1, 1, 1, 1, 1, 1, 1, 1, 0]"	"[0, 0, 0, 0, 0, 0, 0, 0, 0, 0, 0, 0, 0, 0, 0, 0, 0, 0, 0, 0, 0]"	"[0, 0, 0, 0, 0, 0, 0, 0, 0, 0, 0, 0, 0, 0, 0, 0, 0, 0, 0, 0, 1]"	"[0.08376130007673055, 0.26710940001066774, 0.467084200005047, 0.6671314000850543, 0.8671134000178427, 1.0837944999802858, 1.2754667000845075, 1.4838139000348747, 1.6838509000372142, 1.8588846999919042, 2.042269300087355, 2.225610100082122, 2.4170572999864817, 2.6172001999802887, 2.8256038000108674, 3.0005401000380516, 3.1837866000132635, 3.3754631000338122, 3.5505361000541598, 3.742375100031495, 4.275685200002044]"	21	"[0.08191960002295673, 0.26526939996983856, 0.46523299999535084, 0.6652803999604657, 0.8652635000180453, 1.0819463999941945, 1.2736160999629647, 1.4819616000168025, 1.6819996000267565, 1.8570398000301793, 2.040418199962005, 2.2237584999529645, 2.4152027999516577, 2.615351299988106, 2.823753400007263, 2.998687700019218, 3.1819347999989986, 3.37361599993892, 3.5486918999813497, 3.7405229000141844, 4.2737759000156075]"	"[0.18155759992077947, 0.37325840000994503, 0.5732781999977306, 0.7733060999307781, 0.973279400030151, 1.1900463999481872, 1.3816961999982595, 1.573359000030905, 1.7817175999516621, 1.9566890000132844, 2.1317377999657765, 2.315057500032708, 2.5246288999915123, 2.7235440999502316, 2.9068165000062436, 3.0984743000008166, 3.2735026000300422, 3.4651613000314683, 3.648480199975893, 3.8401322999270633, 4.273779999930412]"	120.241922199959	120.247551799985	121.73957919993	121.755992899998	NA	NA	NA	NA	NA	NA	NA	20	"03"	"2024-02-14_11h31.28.597"	"BART_exp"	"2023.2.3"	119.990688707531	"2024-02-14 11h31.37.639341 +0100"	NA
"balloon.png"	53	0	14	14	12	121.755992899998	NA	NA	NA	NA	NA	NA	NA	NA	NA	NA	NA	NA	121.739758400014	121.755992899998	121.755992899998	121.755992899998	121.755992899998	121.755992899998	-0.00094319996424019	-0.00094319996424019	-0.00094319996424019	121.755992899998	128.258147299988	30	1.5	FALSE	"[0.013888888888888888, 0.013888888888888888, 0.013888888888888888, 0.013888888888888888, 0.013888888888888888, 0.013888888888888888, 0.013888888888888888, 0.013888888888888888, 0.014814814814814815, 0.014814814814814815, 0.014814814814814815, 0.014814814814814815, 0.014814814814814815, 0.014814814814814815, 0.014814814814814815, 0.014814814814814815, 0.014814814814814815, 0.014814814814814815, 0.014814814814814815, 0.014814814814814815, 0.014814814814814815, 0.014814814814814815, 0.014814814814814815, 0.014814814814814815, 0.014814814814814815, 0.014814814814814815, 0.014814814814814815, 0.014814814814814815, 0.014814814814814815, 0.014814814814814815, 0.014814814814814815]"	"[-0.3768518518518518, -0.3768518518518518, -0.3768518518518518, -0.3768518518518518, -0.3768518518518518, -0.3768518518518518, -0.3768518518518518, -0.3768518518518518, -0.3768518518518518, -0.3768518518518518, -0.3768518518518518, -0.3768518518518518, -0.3768518518518518, -0.3768518518518518, -0.3768518518518518, -0.3768518518518518, -0.3768518518518518, -0.3768518518518518, -0.3768518518518518, -0.3768518518518518, -0.3768518518518518, -0.3768518518518518, -0.3768518518518518, -0.3768518518518518, -0.3768518518518518, -0.3768518518518518, -0.3768518518518518, -0.3768518518518518, -0.3768518518518518, -0.3768518518518518, -0.3768518518518518]"	"[1, 1, 1, 1, 1, 1, 1, 1, 1, 1, 1, 1, 1, 1, 1, 1, 1, 1, 1, 1, 1, 1, 1, 1, 1, 1, 1, 1, 1, 1, 0]"	"[0, 0, 0, 0, 0, 0, 0, 0, 0, 0, 0, 0, 0, 0, 0, 0, 0, 0, 0, 0, 0, 0, 0, 0, 0, 0, 0, 0, 0, 0, 0]"	"[0, 0, 0, 0, 0, 0, 0, 0, 0, 0, 0, 0, 0, 0, 0, 0, 0, 0, 0, 0, 0, 0, 0, 0, 0, 0, 0, 0, 0, 0, 1]"	"[0.1254673000657931, 0.3585791999939829, 0.5669995000353083, 0.7836009999737144, 0.9752913999836892, 1.166955600026995, 1.3503545999992639, 1.5503745999885723, 1.7670367000391707, 1.9670220999978483, 2.158798399963416, 2.3838280000491068, 2.6087495000101626, 2.8339623999781907, 3.0422370999585837, 3.217227700049989, 3.4171486999839544, 3.6172526000300422, 3.8172576000215486, 3.9922758999746293, 4.158841100055724, 4.3423953000456095, 4.534071500063874, 4.74223139998503, 4.934093000018038, 5.133988699992187, 5.325867500039749, 5.5174545999616385, 5.733961799996905, 6.167311100056395, 6.517464500037022]"	31	"[0.12255470000673085, 0.35566410003229976, 0.5640910000074655, 0.780683399992995, 0.9723793000448495, 1.1640416999580339, 1.3474397000391036, 1.5474635000573471, 1.7641304000280797, 1.9641104999464005, 2.155927399988286, 2.380922600044869, 2.605838599964045, 2.831050500040874, 3.039325700025074, 3.214315799996257, 3.414243399980478, 3.6143422999884933, 3.8143423000583425, 3.9894286999478936, 4.155928699998185, 4.339484800002538, 4.531165400054306, 4.739319000043906, 4.931194099946879, 5.131087200017646, 5.322953799972311, 5.514547500060871, 5.7310718999942765, 6.16439970000647, 6.514485500054434]"	"[0.23891790001653135, 0.43051350000314415, 0.655521500040777, 0.863878499949351, 1.0805638000601903, 1.2722769000101835, 1.447322400053963, 1.6557220000540838, 1.863958999980241, 2.0556262000463903, 2.263971099979244, 2.497332000057213, 2.705677399993874, 2.9473496000282466, 3.1390400000382215, 3.314047100022435, 3.505754300043918, 3.714072600007057, 3.8974117999896407, 4.0808624000055715, 4.264126499998383, 4.439157700049691, 4.647472099983133, 4.839170500054024, 5.030828200047836, 5.231007599970326, 5.422547900001518, 5.630915999994613, 5.814216600032523, 6.272587400046177, 6.514489499968477]"	128.259237600025	128.264782299986	129.756830899976	129.77322949993	NA	NA	NA	NA	NA	NA	NA	20	"03"	"2024-02-14_11h31.28.597"	"BART_exp"	"2023.2.3"	119.990688707531	"2024-02-14 11h31.37.639341 +0100"	NA
"balloon.png"	36	0	15	15	8	129.77322949993	NA	NA	NA	NA	NA	NA	NA	NA	NA	NA	NA	NA	129.757015199983	129.77322949993	129.77322949993	129.77322949993	129.77322949993	129.77322949993	-0.00096920004580169	-0.00096920004580169	-0.00096920004580169	129.77322949993	133.191842500004	11	0.55	FALSE	"[0.014814814814814815, 0.014814814814814815, 0.014814814814814815, 0.014814814814814815, 0.014814814814814815, 0.014814814814814815, 0.014814814814814815, 0.014814814814814815, 0.014814814814814815, 0.014814814814814815, 0.014814814814814815, 0.014814814814814815]"	"[-0.3768518518518518, -0.3768518518518518, -0.37777777777777777, -0.37777777777777777, -0.37777777777777777, -0.37777777777777777, -0.37777777777777777, -0.37777777777777777, -0.37777777777777777, -0.37777777777777777, -0.3787037037037037, -0.3787037037037037]"	"[1, 1, 1, 1, 1, 1, 1, 1, 1, 1, 1, 0]"	"[0, 0, 0, 0, 0, 0, 0, 0, 0, 0, 0, 0]"	"[0, 0, 0, 0, 0, 0, 0, 0, 0, 0, 0, 1]"	"[0.7087258000392467, 0.9004116000141948, 1.1921114000724629, 1.4004285000264645, 1.6172529000323266, 1.8172202000860125, 2.033815500093624, 2.2255345000885427, 2.417413800023496, 2.62566920008976, 2.8422446000622585, 3.433904300094582]"	12	"[0.7027270999969915, 0.8944087000563741, 1.1861157000530511, 1.3944300001021475, 1.6113539000507444, 1.8112154999980703, 2.0278110000072047, 2.219539300072938, 2.411412800080143, 2.6197464000433683, 2.8362459000200033, 3.427837900002487]"	"[0.7858284000540152, 0.9942995000164956, 1.2858600000618026, 1.5027183000929654, 1.6858207000186667, 1.902553700027056, 2.1275254000211135, 2.3275207000551745, 2.5192997000413015, 2.7276626999955624, 2.952600600081496, 3.427842100034468]"	133.192609900027	133.198486199952	134.690465399995	134.715237000026	NA	NA	NA	NA	NA	NA	NA	20	"03"	"2024-02-14_11h31.28.597"	"BART_exp"	"2023.2.3"	119.990688707531	"2024-02-14 11h31.37.639341 +0100"	NA
"balloon.png"	23	0	16	16	5	134.715237000026	NA	NA	NA	NA	NA	NA	NA	NA	NA	NA	NA	NA	134.690652900026	134.715237000026	134.715237000026	134.715237000026	134.715237000026	134.715237000026	-0.00068239995744079	-0.00068239995744079	-0.00068239995744079	134.715237000026	135.950314900023	5	0.25	FALSE	"[0.014814814814814815, 0.014814814814814815, 0.014814814814814815, 0.014814814814814815, 0.014814814814814815]"	"[-0.3787037037037037, -0.3787037037037037, -0.3787037037037037, -0.3787037037037037, -0.3787037037037037]"	"[1, 1, 1, 1, 1]"	"[0, 0, 0, 0, 0]"	"[0, 0, 0, 0, 0]"	"[0.08369480003602803, 0.27537769998889416, 0.47560520004481077, 0.6670744000002742, 0.8670225000241771]"	6	"[0.07134409993886948, 0.2630311999237165, 0.46325699996668845, 0.6547273999312893, 0.8464649999514222, 1.2463195000309497]"	"[0.16279780003242195, 0.3710735000204295, 0.5710830999305472, 0.7544550999300554, 0.9627937999321148, 1.2463236999465153]"	135.950950699975	135.956988399965	137.448941699928	137.465427999967	NA	NA	NA	NA	NA	NA	NA	20	"03"	"2024-02-14_11h31.28.597"	"BART_exp"	"2023.2.3"	119.990688707531	"2024-02-14 11h31.37.639341 +0100"	NA
"balloon.png"	97	0	17	17	22	137.465427999967	NA	NA	NA	NA	NA	NA	NA	NA	NA	NA	NA	NA	137.449116999982	137.465427999967	137.465427999967	137.465427999967	137.465427999967	137.465427999967	-0.00051529996562749	-0.00051529996562749	-0.00051529996562749	137.465427999967	141.492251400021	14	0.7	FALSE	"[0.014814814814814815, 0.014814814814814815, 0.014814814814814815, 0.014814814814814815, 0.014814814814814815, 0.014814814814814815, 0.014814814814814815, 0.014814814814814815, 0.014814814814814815, 0.014814814814814815, 0.014814814814814815, 0.014814814814814815, 0.014814814814814815, 0.014814814814814815]"	"[-0.3787037037037037, -0.3787037037037037, -0.3787037037037037, -0.3787037037037037, -0.3787037037037037, -0.3787037037037037, -0.3787037037037037, -0.3787037037037037, -0.3787037037037037, -0.3787037037037037, -0.3787037037037037, -0.3787037037037037, -0.3787037037037037, -0.3787037037037037]"	"[1, 1, 1, 1, 1, 1, 1, 1, 1, 1, 1, 1, 1, 0]"	"[0, 0, 0, 0, 0, 0, 0, 0, 0, 0, 0, 0, 0, 0]"	"[0, 0, 0, 0, 0, 0, 0, 0, 0, 0, 0, 0, 0, 1]"	"[0.15055080002639443, 0.35050699999555945, 0.5421816000016406, 0.7505723000504076, 0.9672162000788376, 1.1672140000155196, 1.3672173999948427, 1.5589095000177622, 1.9589486999902874, 2.1756348999915645, 2.4769666000502184, 2.758990000002086, 3.3923875000327826, 4.04224650003016]"	14	"[0.14663510001264513, 0.346583400038071, 0.5382567000342533, 0.7466485999757424, 0.9632984000490978, 1.1632919000694528, 1.3632992000784725, 1.554983300040476, 1.955032000085339, 2.1717145000584424, 2.473201400018297, 2.7550659000407904, 3.3884635000722483, 4.038258200045675]"	"[0.23791650007478893, 0.44637919997330755, 0.6462792999809608, 0.862978900084272, 1.0629851000849158, 1.271349300048314, 1.463023400050588, 1.6713553000008687, 2.0463981999782845, 2.279746000072919, 2.5964081999845803, 2.8464231999823824, 3.496598400059156, 4.0382623000768945]"	141.493191799964	141.499042399926	142.991058300016	143.015847999952	NA	NA	NA	NA	NA	NA	NA	20	"03"	"2024-02-14_11h31.28.597"	"BART_exp"	"2023.2.3"	119.990688707531	"2024-02-14 11h31.37.639341 +0100"	NA
"balloon.png"	71	0	18	18	16	143.015847999952	NA	NA	NA	NA	NA	NA	NA	NA	NA	NA	NA	NA	142.991236299975	143.015847999952	143.015847999952	143.015847999952	143.015847999952	143.015847999952	-0.00069619994610548	-0.00069619994610548	-0.00069619994610548	143.015847999952	149.126397999935	18	0.9	FALSE	"[0.014814814814814815, 0.014814814814814815, 0.014814814814814815, 0.014814814814814815, 0.014814814814814815, 0.014814814814814815, 0.014814814814814815, 0.014814814814814815, 0.014814814814814815, 0.014814814814814815, 0.014814814814814815, 0.014814814814814815, 0.014814814814814815, 0.014814814814814815, 0.014814814814814815, 0.014814814814814815, 0.014814814814814815, 0.014814814814814815, 0.014814814814814815]"	"[-0.3787037037037037, -0.3787037037037037, -0.3787037037037037, -0.3787037037037037, -0.3787037037037037, -0.3787037037037037, -0.3787037037037037, -0.3787037037037037, -0.3787037037037037, -0.3787037037037037, -0.3787037037037037, -0.3787037037037037, -0.3787037037037037, -0.3787037037037037, -0.3787037037037037, -0.3787037037037037, -0.3787037037037037, -0.3787037037037037, -0.3787037037037037]"	"[1, 1, 1, 1, 1, 1, 1, 1, 1, 1, 1, 1, 1, 1, 1, 1, 1, 1, 0]"	"[0, 0, 0, 0, 0, 0, 0, 0, 0, 0, 0, 0, 0, 0, 0, 0, 0, 0, 0]"	"[0, 0, 0, 0, 0, 0, 0, 0, 0, 0, 0, 0, 0, 0, 0, 0, 0, 0, 1]"	"[0.6172582000726834, 0.8254227000288665, 1.0586159999947995, 1.2836376000195742, 1.4836659000720829, 1.7087946000974625, 1.917028500000015, 3.017268900061026, 3.2921015000902116, 3.5590489000314847, 3.7839804000686854, 4.017343800049275, 4.250664800056256, 4.533872300060466, 4.775823500007391, 4.984051200095564, 5.60910070000682, 5.825811100075953, 6.1342226000269875]"	19	"[0.6053997999988496, 0.813554499996826, 1.046747799962759, 1.2717657999601215, 1.4717950999038294, 1.696928899968043, 1.9051625999854878, 3.0053984000114724, 3.280239999992773, 3.5471747999545187, 3.7721139999339357, 4.005478699924424, 4.2387976999161765, 4.52200959995389, 4.763954099966213, 4.972182299941778, 5.597234699991532, 5.813941199914552, 6.122289499966428]"	"[0.6966215999564156, 0.9215877999085933, 1.1632766999537125, 1.3800020999042317, 1.5716979999560863, 1.8300019999733195, 2.04667359997984, 3.138405099976808, 3.4467838999116793, 3.6717896999325603, 3.8801265999209136, 4.121820000000298, 4.321943899965845, 4.638517000013962, 4.855250099906698, 5.046929199947044, 5.713599500013515, 5.930267599993385, 6.122293499996886]"	149.127582899993	149.132939900039	150.62488379993	150.633025899995	NA	NA	NA	NA	NA	NA	NA	20	"03"	"2024-02-14_11h31.28.597"	"BART_exp"	"2023.2.3"	119.990688707531	"2024-02-14 11h31.37.639341 +0100"	NA
"balloon.png"	79	0	19	19	18	150.633025899995	NA	NA	NA	NA	NA	NA	NA	NA	NA	NA	NA	NA	150.625060899998	150.633025899995	150.633025899995	150.633025899995	150.633025899995	150.633025899995	0.00550359999760985	0.00550359999760985	0.00550359999760985	150.633025899995	156.376889899955	20	1	FALSE	"[0.014814814814814815, 0.014814814814814815, 0.014814814814814815, 0.014814814814814815, 0.014814814814814815, 0.014814814814814815, 0.014814814814814815, 0.014814814814814815, 0.014814814814814815, 0.014814814814814815, 0.014814814814814815, 0.014814814814814815, 0.014814814814814815, 0.01574074074074074, 0.01574074074074074, 0.01574074074074074, 0.01574074074074074, 0.01574074074074074, 0.01574074074074074, 0.01574074074074074, 0.01574074074074074]"	"[-0.3787037037037037, -0.3787037037037037, -0.3787037037037037, -0.3787037037037037, -0.3787037037037037, -0.3787037037037037, -0.3787037037037037, -0.3787037037037037, -0.3787037037037037, -0.3787037037037037, -0.3787037037037037, -0.3787037037037037, -0.3787037037037037, -0.37962962962962965, -0.37962962962962965, -0.37962962962962965, -0.37962962962962965, -0.37962962962962965, -0.37962962962962965, -0.37962962962962965, -0.37962962962962965]"	"[1, 1, 1, 1, 1, 1, 1, 1, 1, 1, 1, 1, 1, 1, 1, 1, 1, 1, 1, 1, 0]"	"[0, 0, 0, 0, 0, 0, 0, 0, 0, 0, 0, 0, 0, 0, 0, 0, 0, 0, 0, 0, 0]"	"[0, 0, 0, 0, 0, 0, 0, 0, 0, 0, 0, 0, 0, 0, 0, 0, 0, 0, 0, 0, 1]"	"[0.08370580000337213, 0.3171393000520766, 0.5671895999694243, 0.9338465000037104, 1.1672442000126466, 1.6587661999510601, 1.8420753000536934, 2.360055899946019, 2.683818200021051, 2.9089628000510857, 3.1673379000276327, 3.36735299997963, 3.6090603000484407, 3.825591800035909, 4.042240799986757, 4.267446900019422, 4.475592399947345, 4.684066600049846, 4.8923492999747396, 5.134146500029601, 5.75091830000747]"	21	"[0.08185049996245652, 0.315279999980703, 0.5653371999505907, 0.9319852000335231, 1.165389999980107, 1.6569090000120923, 1.840215399977751, 2.3582058999454603, 2.6819579999428242, 2.9071120000444353, 3.1654824999859557, 3.36549150000792, 3.6072069000219926, 3.8237386000109836, 4.040382900042459, 4.2655906999716535, 4.473735300009139, 4.682204299955629, 4.882136499974877, 5.132295800023712, 5.748996900045313]"	"[0.18168669997248799, 0.41496029996778816, 0.664989999961108, 1.0234767999500036, 1.2566898999502882, 1.7150617999723181, 1.9484221000457183, 2.456781000015326, 2.773524499963969, 2.998534800019115, 3.240195699967444, 3.4735261000460014, 3.6985943999607116, 3.915202899952419, 4.1235717999516055, 4.3569627000251785, 4.581948200007901, 4.790275900042616, 4.990293900016695, 5.173637400032021, 5.7490069000050426]"	156.378122200025	156.383445099927	157.875412900001	157.883530599996	NA	NA	NA	NA	NA	NA	NA	20	"03"	"2024-02-14_11h31.28.597"	"BART_exp"	"2023.2.3"	119.990688707531	"2024-02-14 11h31.37.639341 +0100"	NA
"balloon.png"	114	0	20	20	26	157.883530599996	NA	NA	NA	NA	NA	NA	NA	NA	NA	NA	NA	NA	157.875599500025	157.883530599996	157.883530599996	157.883530599996	157.883530599996	157.883530599996	0.00546989997383207	0.00546989997383207	0.00546989997383207	157.883530599996	158.910301900003	2	0.1	FALSE	"[0.01574074074074074, 0.01574074074074074, 0.01574074074074074]"	"[-0.37962962962962965, -0.37962962962962965, -0.37962962962962965]"	"[1, 1, 0]"	"[0, 0, 0]"	"[0, 0, 1]"	"[0.025279899942688644, 0.22526470001321286, 1.0337747000157833]"	3	"[0.01585029996931553, 0.22339299996383488, 1.031838099937886]"	"[0.09164569992572069, 0.31489309994503856, 1.0318421999691054]"	158.910920199938	158.916979499976	160.408908999991	160.425369099947	NA	NA	NA	NA	NA	NA	NA	20	"03"	"2024-02-14_11h31.28.597"	"BART_exp"	"2023.2.3"	119.990688707531	"2024-02-14 11h31.37.639341 +0100"	NA
"balloon.png"	31	0	21	21	7	160.425369099947	NA	NA	NA	NA	NA	NA	NA	NA	NA	NA	NA	NA	160.409089299967	160.425369099947	160.425369099947	160.425369099947	160.425369099947	160.425369099947	-0.00057530007325112	-0.00057530007325112	-0.00057530007325112	160.425369099947	164.235585900024	8	0.4	FALSE	"[0.01574074074074074, 0.01574074074074074, 0.01574074074074074, 0.01574074074074074, 0.01574074074074074, 0.01574074074074074, 0.01574074074074074, 0.01574074074074074, 0.01574074074074074]"	"[-0.37962962962962965, -0.37962962962962965, -0.37962962962962965, -0.37962962962962965, -0.37962962962962965, -0.37962962962962965, -0.37962962962962965, -0.37962962962962965, -0.37962962962962965]"	"[1, 1, 1, 1, 1, 1, 1, 1, 0]"	"[0, 0, 0, 0, 0, 0, 0, 0, 0]"	"[0, 0, 0, 0, 0, 0, 0, 0, 1]"	"[0.17550669994670898, 0.525560799986124, 0.767195799970068, 1.0346208999399096, 2.267213699989952, 2.4921207999577746, 2.9673150000162423, 3.192514199996367, 3.8255708999931812]"	9	"[0.1715404000133276, 0.5215946999378502, 0.7632293999195099, 1.0309331000316888, 2.2632471999386325, 2.488149599987082, 2.963348599965684, 3.1885478999465704, 3.8215399999171495]"	"[0.32117140002083033, 0.6635075999656692, 0.8962272999342531, 1.1879156000213698, 2.4213725000154227, 2.629708099993877, 3.0547211000230163, 3.288047799956985, 3.8215443999506533]"	164.236422299989	164.242334499955	165.734298800002	165.750750000007	NA	NA	NA	NA	NA	NA	NA	20	"03"	"2024-02-14_11h31.28.597"	"BART_exp"	"2023.2.3"	119.990688707531	"2024-02-14 11h31.37.639341 +0100"	NA
"balloon.png"	44	0	22	22	10	165.750750000007	NA	NA	NA	NA	NA	NA	NA	NA	NA	NA	NA	NA	165.734474699944	165.750750000007	165.750750000007	165.750750000007	165.750750000007	165.750750000007	-0.00068970001302659	-0.00068970001302659	-0.00068970001302659	165.750750000007	169.561103399959	14	0.7	FALSE	"[0.01574074074074074, 0.01574074074074074, 0.01574074074074074, 0.01574074074074074, 0.01574074074074074, 0.01574074074074074, 0.01574074074074074, 0.01574074074074074, 0.01574074074074074, 0.01574074074074074, 0.01574074074074074, 0.01574074074074074, 0.01574074074074074, 0.01574074074074074, 0.01574074074074074]"	"[-0.37962962962962965, -0.37962962962962965, -0.37962962962962965, -0.37962962962962965, -0.37962962962962965, -0.37962962962962965, -0.37962962962962965, -0.37962962962962965, -0.37962962962962965, -0.37962962962962965, -0.37962962962962965, -0.37962962962962965, -0.37962962962962965, -0.37962962962962965, -0.37962962962962965]"	"[1, 1, 1, 1, 1, 1, 1, 1, 1, 1, 1, 1, 1, 1, 0]"	"[0, 0, 0, 0, 0, 0, 0, 0, 0, 0, 0, 0, 0, 0, 0]"	"[0, 0, 0, 0, 0, 0, 0, 0, 0, 0, 0, 0, 0, 0, 1]"	"[0.033741099992766976, 0.26709439989645034, 0.4754465000005439, 0.6753426999785006, 0.9003229999216273, 1.1169995999662206, 1.3586796999443322, 1.5755563999991864, 1.8090416999766603, 2.0255460999906063, 2.258905699942261, 2.4838818999705836, 2.7254868999589235, 2.958904099999927, 3.82569969992619]"	15	"[0.025657799909822643, 0.25899829994887114, 0.4673596000066027, 0.6672518999548629, 0.8922266999725252, 1.1089121999684721, 1.3505866000195965, 1.5674656999763101, 1.8009537999751046, 2.017457599984482, 2.2508188999490812, 2.4757967999903485, 2.717396599939093, 2.9508174000075087, 3.81754550000187]"	"[0.13368789991363883, 0.34203179995529354, 0.5587268000235781, 0.7837388999760151, 1.0171070999931544, 1.2254300999920815, 1.4587769999634475, 1.6754597999388352, 1.9173291999613866, 2.1338152999524027, 2.3505139999324456, 2.5838397999759763, 2.8255750000244007, 3.0672419000184163, 3.8175494999159127]"	169.561945199966	169.56774139998	171.059700999991	171.076130699948	NA	NA	NA	NA	NA	NA	NA	20	"03"	"2024-02-14_11h31.28.597"	"BART_exp"	"2023.2.3"	119.990688707531	"2024-02-14 11h31.37.639341 +0100"	NA
"balloon.png"	123	0	23	23	28	171.076130699948	NA	NA	NA	NA	NA	NA	NA	NA	NA	NA	NA	NA	171.059883099981	171.076130699948	171.076130699948	171.076130699948	171.076130699948	171.076130699948	-0.00066559994593262	-0.00066559994593262	-0.00066559994593262	171.076130699948	176.66977919999	18	0.9	FALSE	"[0.01574074074074074, 0.01574074074074074, 0.01574074074074074, 0.01574074074074074, 0.01574074074074074, 0.01574074074074074, 0.01574074074074074, 0.01574074074074074, 0.01574074074074074, 0.01574074074074074, 0.01574074074074074, 0.01574074074074074, 0.01574074074074074, 0.01574074074074074, 0.01574074074074074, 0.01574074074074074, 0.01574074074074074, 0.01574074074074074, 0.01574074074074074]"	"[-0.37962962962962965, -0.37962962962962965, -0.37962962962962965, -0.37962962962962965, -0.37962962962962965, -0.37962962962962965, -0.37962962962962965, -0.37962962962962965, -0.37962962962962965, -0.37962962962962965, -0.37962962962962965, -0.37962962962962965, -0.37962962962962965, -0.37962962962962965, -0.37962962962962965, -0.37962962962962965, -0.37962962962962965, -0.37962962962962965, -0.37962962962962965]"	"[1, 1, 1, 1, 1, 1, 1, 1, 1, 1, 1, 1, 1, 1, 1, 1, 1, 1, 0]"	"[0, 0, 0, 0, 0, 0, 0, 0, 0, 0, 0, 0, 0, 0, 0, 0, 0, 0, 0]"	"[0, 0, 0, 0, 0, 0, 0, 0, 0, 0, 0, 0, 0, 0, 0, 0, 0, 0, 1]"	"[0.2504153000190854, 0.7504914000164717, 1.0170065999263898, 1.2421554999891669, 1.7837568999966606, 1.975359799922444, 2.167090900009498, 2.392068999935873, 2.600425999960862, 2.801709200022742, 3.0171817999798805, 3.4087895000120625, 3.592133699916303, 3.7921493999892846, 3.9671690999530256, 4.425717599922791, 4.69237930001691, 5.167265999945812, 5.60899530001916]"	19	"[0.24706780002452433, 0.7471391999861225, 1.013653100002557, 1.2388038999633864, 1.7804039999609813, 1.9720072000054643, 2.1637405999936163, 2.3887149000074714, 2.597074900055304, 2.7985230999765918, 3.013837300008163, 3.4054321000585333, 3.5887774999719113, 3.7888672000262886, 3.9638175000436604, 4.422363299992867, 4.689029600005597, 5.163916200050153, 5.605582799995318]"	"[0.34694820002187043, 0.8467901999829337, 1.1134841999737546, 1.3468460000585765, 1.871875899960287, 2.0718597000231966, 2.2636698000133038, 2.4885789999971166, 2.6970219999784604, 2.89695640001446, 3.088625999982469, 3.488845800049603, 3.6887956999707967, 3.8720039000036195, 4.0387037000618875, 4.513743899995461, 4.797066200058907, 5.255426799994893, 5.60558710002806]"	176.670631199959	176.676514799939	178.16848969995	178.184981500031	NA	NA	NA	NA	NA	NA	NA	20	"03"	"2024-02-14_11h31.28.597"	"BART_exp"	"2023.2.3"	119.990688707531	"2024-02-14 11h31.37.639341 +0100"	NA
"balloon.png"	105	0	24	24	24	178.184981500031	NA	NA	NA	NA	NA	NA	NA	NA	NA	NA	NA	NA	178.168666600017	178.184981500031	178.184981500031	178.184981500031	178.184981500031	178.184981500031	-0.00071019993629306	-0.00071019993629306	-0.00071019993629306	178.184981500031	184.112075299956	22	1.1	FALSE	"[0.01574074074074074, 0.01574074074074074, 0.01574074074074074, 0.01574074074074074, 0.01574074074074074, 0.01574074074074074, 0.01574074074074074, 0.01574074074074074, 0.01574074074074074, 0.01574074074074074, 0.01574074074074074, 0.01574074074074074, 0.01574074074074074, 0.01574074074074074, 0.01574074074074074, 0.01574074074074074, 0.01574074074074074, 0.01574074074074074, 0.01574074074074074, 0.01574074074074074, 0.01574074074074074, 0.01574074074074074, 0.01574074074074074]"	"[-0.37962962962962965, -0.37962962962962965, -0.37962962962962965, -0.37962962962962965, -0.37962962962962965, -0.37962962962962965, -0.37962962962962965, -0.37962962962962965, -0.37962962962962965, -0.37962962962962965, -0.37962962962962965, -0.37962962962962965, -0.37962962962962965, -0.37962962962962965, -0.37962962962962965, -0.37962962962962965, -0.37962962962962965, -0.37962962962962965, -0.37962962962962965, -0.37962962962962965, -0.37962962962962965, -0.37962962962962965, -0.37962962962962965]"	"[1, 1, 1, 1, 1, 1, 1, 1, 1, 1, 1, 1, 1, 1, 1, 1, 1, 1, 1, 1, 1, 1, 0]"	"[0, 0, 0, 0, 0, 0, 0, 0, 0, 0, 0, 0, 0, 0, 0, 0, 0, 0, 0, 0, 0, 0, 0]"	"[0, 0, 0, 0, 0, 0, 0, 0, 0, 0, 0, 0, 0, 0, 0, 0, 0, 0, 0, 0, 0, 0, 1]"	"[0.5505554999690503, 0.7339475000044331, 0.9672159999608994, 1.2005571000045165, 1.4170737999957055, 1.6254559999797493, 1.8421437999932095, 2.0506680000107735, 2.283872199943289, 2.483832999947481, 2.700492599979043, 2.8922687999438494, 3.108831499936059, 3.5006802999414504, 3.6922128999140114, 3.883886899915524, 4.058909200015478, 4.242283999919891, 4.433935199980624, 4.617280500009656, 4.808961599948816, 5.609195200027898, 5.942502100020647]"	22	"[0.5463066000957042, 0.7297034000512213, 0.9629725000122562, 1.1963087000185624, 1.41282080009114, 1.621205700095743, 1.837897300021723, 2.0464208000339568, 2.2796256000874564, 2.4795869000954553, 2.696242200094275, 2.888018900062889, 3.4964413000270724, 3.6879665000597015, 3.879640100058168, 4.054659700021148, 4.238035800051875, 4.429682900081389, 4.613027399987914, 4.804715600097552, 5.604947000043467, 5.938188200001605]"	"[0.6375969999935478, 0.8378146000904962, 1.070944600040093, 1.2710006000706926, 1.487682200036943, 1.704474400030449, 1.9210796999977902, 2.14628890005406, 2.3460458000190556, 2.5877478000475094, 2.7710724000353366, 3.1877762000076473, 3.562835399992764, 3.754558900021948, 3.954540300066583, 4.12117960001342, 4.312916800030507, 4.496225700015202, 4.679585800040513, 4.862918800092302, 5.7046695000026375, 5.938192400033586]"	184.113053299952	184.11878150003	185.610672399984	185.62715439999	NA	NA	NA	NA	NA	NA	NA	20	"03"	"2024-02-14_11h31.28.597"	"BART_exp"	"2023.2.3"	119.990688707531	"2024-02-14 11h31.37.639341 +0100"	NA
"balloon.png"	118	0	25	25	27	185.62715439999	NA	NA	NA	NA	NA	NA	NA	NA	NA	NA	NA	NA	185.610850999947	185.62715439999	185.62715439999	185.62715439999	185.62715439999	185.62715439999	-0.00086920009925961	-0.00086920009925961	-0.00086920009925961	185.62715439999	188.954095699941	14	0.7	FALSE	"[0.01574074074074074, 0.01574074074074074, 0.01574074074074074, 0.01574074074074074, 0.01574074074074074, 0.01574074074074074, 0.01574074074074074, 0.01574074074074074, 0.01574074074074074, 0.01574074074074074, 0.01574074074074074, 0.01574074074074074, 0.01574074074074074, 0.01574074074074074]"	"[-0.37962962962962965, -0.37962962962962965, -0.37962962962962965, -0.37962962962962965, -0.37962962962962965, -0.37962962962962965, -0.37962962962962965, -0.37962962962962965, -0.37962962962962965, -0.37962962962962965, -0.37962962962962965, -0.37962962962962965, -0.37962962962962965, -0.37962962962962965]"	"[1, 1, 1, 1, 1, 1, 1, 1, 1, 1, 1, 1, 1, 0]"	"[0, 0, 0, 0, 0, 0, 0, 0, 0, 0, 0, 0, 0, 0]"	"[0, 0, 0, 0, 0, 0, 0, 0, 0, 0, 0, 0, 0, 1]"	"[0.15055120002944022, 0.3504921999992803, 0.5587477999506518, 0.7755440999753773, 0.9753683999879286, 1.1671900999499485, 1.36711460002698, 1.5589205999858677, 1.7921026999829337, 1.9674079000251368, 2.192157599958591, 2.383818699978292, 3.0004943000385538, 3.3423362999456003]"	14	"[0.14821360004134476, 0.3481540000066161, 0.5564043000340462, 0.7732034000800923, 0.9730244000675157, 1.1648516000714153, 1.3647749000228941, 1.5565785000799224, 1.7897599000716582, 1.9650714000454172, 2.189823599997908, 2.3814795000944287, 2.998174300068058, 3.3399301000172272]"	"[0.23116020008455962, 0.44783220009412616, 0.6478802000638098, 0.8562387001002207, 1.048061800072901, 1.23958010005299, 1.4396003000438213, 1.6562682000221685, 1.8731721000513062, 2.0812939000315964, 2.2813395000994205, 2.456412600004114, 3.106346999993548, 3.339934100047685]"	188.954942699987	188.960719599971	190.452664899989	190.469194100006	NA	NA	NA	NA	NA	NA	NA	20	"03"	"2024-02-14_11h31.28.597"	"BART_exp"	"2023.2.3"	119.990688707531	"2024-02-14 11h31.37.639341 +0100"	NA
"balloon.png"	49	0	26	26	11	190.469194100006	NA	NA	NA	NA	NA	NA	NA	NA	NA	NA	NA	NA	190.45284319995	190.469194100006	190.469194100006	190.469194100006	190.469194100006	190.469194100006	-0.00088979990687221	-0.00088979990687221	-0.00088979990687221	190.469194100006	192.020804299973	4	0.2	FALSE	"[0.01574074074074074, 0.01574074074074074, 0.01574074074074074, 0.01574074074074074, 0.01574074074074074]"	"[-0.37962962962962965, -0.37962962962962965, -0.37962962962962965, -0.37962962962962965, -0.37962962962962965]"	"[1, 1, 1, 1, 0]"	"[0, 0, 0, 0, 0]"	"[0, 0, 0, 0, 1]"	"[0.2254896000958979, 0.44221180002205074, 0.6758379000239074, 1.2172241000225767, 1.5670755000319332]"	5	"[0.21571490005590022, 0.4324391999980435, 0.6660639999900013, 1.2074467000784352, 1.5572293000295758]"	"[0.3154330999823287, 0.5405373000539839, 0.7654892000136897, 1.3321868000784889, 1.557236700085923]"	192.021399399964	192.027595499996	193.519566199975	193.536045899964	NA	NA	NA	NA	NA	NA	NA	20	"03"	"2024-02-14_11h31.28.597"	"BART_exp"	"2023.2.3"	119.990688707531	"2024-02-14 11h31.37.639341 +0100"	NA
"balloon.png"	75	0	27	27	17	193.536045899964	NA	NA	NA	NA	NA	NA	NA	NA	NA	NA	NA	NA	193.519753500004	193.536045899964	193.536045899964	193.536045899964	193.536045899964	193.536045899964	-0.00043459993321448	-0.00043459993321448	-0.00043459993321448	193.536045899964	199.09646609996	20	1	FALSE	"[0.01574074074074074, 0.01574074074074074, 0.01574074074074074, 0.01574074074074074, 0.01574074074074074, 0.01574074074074074, 0.01574074074074074, 0.01574074074074074, 0.01574074074074074, 0.01574074074074074, 0.01574074074074074, 0.01574074074074074, 0.01574074074074074, 0.01574074074074074, 0.01574074074074074, 0.01574074074074074, 0.01574074074074074, 0.01574074074074074, 0.01574074074074074, 0.01574074074074074, 0.01574074074074074]"	"[-0.37962962962962965, -0.37962962962962965, -0.37962962962962965, -0.37962962962962965, -0.37962962962962965, -0.37962962962962965, -0.37962962962962965, -0.37962962962962965, -0.37962962962962965, -0.37962962962962965, -0.37962962962962965, -0.37962962962962965, -0.37962962962962965, -0.37962962962962965, -0.37962962962962965, -0.37962962962962965, -0.37962962962962965, -0.37962962962962965, -0.37962962962962965, -0.37962962962962965, -0.37962962962962965]"	"[1, 1, 1, 1, 1, 1, 1, 1, 1, 1, 1, 1, 1, 1, 1, 1, 1, 1, 1, 1, 0]"	"[0, 0, 0, 0, 0, 0, 0, 0, 0, 0, 0, 0, 0, 0, 0, 0, 0, 0, 0, 0, 0]"	"[0, 0, 0, 0, 0, 0, 0, 0, 0, 0, 0, 0, 0, 0, 0, 0, 0, 0, 0, 0, 1]"	"[0.31698459992185235, 0.5086589999264106, 0.7336819999618456, 0.9421752999769524, 1.1671906999545172, 1.3924217999447137, 1.5922250000294298, 1.800583199947141, 2.008933899924159, 2.2256127999862656, 2.4256192999891937, 2.6339808999327943, 2.8256360000232235, 3.308850900037214, 3.8505518999882042, 4.025726999971084, 4.217412999947555, 4.409090999979526, 4.892371900030412, 5.150809900020249, 5.575832000002265]"	21	"[0.3138682999415323, 0.5055432999506593, 0.7305633999640122, 0.939058699994348, 1.1640793998958543, 1.3893117998959497, 1.5891626999946311, 1.7974689999828115, 2.0058167999377474, 2.2224973998963833, 2.4225004999898374, 2.630866099963896, 2.8225208999356255, 3.3057293999008834, 3.8474354998907074, 4.02260969998315, 4.214299599989317, 4.4059775999048725, 4.889267499907874, 5.147695099934936, 5.572653199895285]"	"[0.41372229997068644, 0.6053930999478325, 0.8221153999911621, 1.0554359999950975, 1.2721075000008568, 1.472166599938646, 1.6971728999633342, 1.8974251999752596, 2.1055006999522448, 2.3221907999832183, 2.513856399920769, 2.713887199992314, 2.9056390998885036, 3.3890673998976126, 3.9140073999296874, 4.114017899963073, 4.305665599997155, 4.497394599951804, 4.989037399995141, 5.280727099976502, 5.572657199925743]"	199.097396199941	199.10309749993	200.595094599994	200.611541499966	NA	NA	NA	NA	NA	NA	NA	20	"03"	"2024-02-14_11h31.28.597"	"BART_exp"	"2023.2.3"	119.990688707531	"2024-02-14 11h31.37.639341 +0100"	NA
"balloon.png"	10	0	28	28	2	200.611541499966	NA	NA	NA	NA	NA	NA	NA	NA	NA	NA	NA	NA	200.595270199934	200.611541499966	200.611541499966	200.611541499966	200.611541499966	200.611541499966	-0.00085549999494105	-0.00085549999494105	-0.00085549999494105	200.611541499966	203.638670100016	11	0.5	TRUE	"[0.01574074074074074, 0.01574074074074074, 0.01574074074074074, 0.01574074074074074, 0.01574074074074074, 0.01574074074074074, 0.01574074074074074, 0.01574074074074074, 0.01574074074074074, 0.01574074074074074, 0.01574074074074074]"	"[-0.37962962962962965, -0.37962962962962965, -0.37962962962962965, -0.37962962962962965, -0.37962962962962965, -0.37962962962962965, -0.37962962962962965, -0.37962962962962965, -0.37962962962962965, -0.37962962962962965, -0.37962962962962965]"	"[1, 1, 1, 1, 1, 1, 1, 1, 1, 1, 1]"	"[0, 0, 0, 0, 0, 0, 0, 0, 0, 0, 0]"	"[0, 0, 0, 0, 0, 0, 0, 0, 0, 0, 0]"	"[0.6337321999017149, 0.850459499983117, 1.0921474999049678, 1.325560599914752, 1.5505152998957783, 1.758704699925147, 1.9670458999462426, 2.1753835999406874, 2.383851299993694, 2.6505369999213144, 3.0004455999005586]"	11	"[0.6261516000377014, 0.842884200043045, 1.0845680000493303, 1.317987299989909, 1.5429350000340492, 1.7511214000405744, 1.9594668000936508, 2.1678058999823406, 2.3762712000170723, 2.642956900061108, 2.9928677000571042]"	"[0.7592436000704765, 0.9592419000109658, 1.1925986000569537, 1.4176238999934867, 1.625960300094448, 1.8509692000225186, 2.0593949999893084, 2.267727500060573, 2.4843507000477985, 2.760796400019899, 3.0260443000588566]"	203.639377499931	203.645132399979	205.137042699964	205.153529300005	NA	NA	NA	NA	NA	NA	NA	20	"03"	"2024-02-14_11h31.28.597"	"BART_exp"	"2023.2.3"	119.990688707531	"2024-02-14 11h31.37.639341 +0100"	NA
"balloon.png"	1	0	29	29	0	205.153529300005	NA	NA	NA	NA	NA	NA	NA	NA	NA	NA	NA	NA	205.137219500029	205.153529300005	205.153529300005	205.153529300005	205.153529300005	205.153529300005	-0.0008743000216782	-0.0008743000216782	-0.0008743000216782	205.153529300005	205.913983699982	2	0.05	TRUE	"[0.01574074074074074, 0.01574074074074074]"	"[-0.37962962962962965, -0.37962962962962965]"	"[1, 1]"	"[0, 0]"	"[0, 0]"	"[0.45037660002708435, 0.658690599957481]"	2	"[0.44491219997871667, 0.653224500012584]"	"[0.553091699955985, 0.7613972000544891]"	205.914569100016	205.920246099937	207.412207099958	207.420340399956	NA	NA	NA	NA	NA	NA	NA	20	"03"	"2024-02-14_11h31.28.597"	"BART_exp"	"2023.2.3"	119.990688707531	"2024-02-14 11h31.37.639341 +0100"	NA
NA	NA	NA	NA	NA	NA	NA	NA	NA	NA	NA	NA	NA	NA	NA	NA	NA	NA	NA	NA	NA	NA	NA	NA	NA	NA	NA	NA	NA	NA	NA	NA	NA	NA	NA	NA	NA	NA	NA	NA	NA	NA	NA	NA	NA	NA	207.412240699981	207.420340399956	207.420340399956	219.229986399994	"space"	11.8087320999475	"None"	20	"03"	"2024-02-14_11h31.28.597"	"BART_exp"	"2023.2.3"	119.990688707531	"2024-02-14 11h31.37.639341 +0100"	NA
