"diceImage"	"d_number"	"dice_loop.thisRepN"	"dice_loop.thisTrialN"	"dice_loop.thisN"	"dice_loop.thisIndex"	"thisRow.t"	"notes"	"Start.started"	"text_start.started"	"continue_start.started"	"mouse_start.started"	"Start.stopped"	"mouse_start.x"	"mouse_start.y"	"mouse_start.leftButton"	"mouse_start.midButton"	"mouse_start.rightButton"	"mouse_start.time"	"trial.started"	"box_dice.started"	"text_dice_header.started"	"text_gain.started"	"value_gain.started"	"text_bank.started"	"value_bank.started"	"img_dice_1.started"	"img_dice_2.started"	"img_dice_3.started"	"img_dice_4.started"	"img_dice_5.started"	"img_dice_6.started"	"img_dice_1_2.started"	"img_dice_3_4.started"	"img_dice_5_6.started"	"img_dice_1_2_3.started"	"img_dice_4_5_6.started"	"img_dice_1_2_3_4.started"	"img_dice_2_3_4_5.started"	"img_dice_3_4_5_6.started"	"text_value_header.started"	"text_value_1000.started"	"text_value_500.started"	"text_value_200.started"	"text_value_100.started"	"mouse_task.started"	"loss_sound.started"	"img_dice_throw_trials.started"	"img_dice_throw_trials.stopped"	"trial.stopped"	"mouse_task.x"	"mouse_task.y"	"mouse_task.leftButton"	"mouse_task.midButton"	"mouse_task.rightButton"	"mouse_task.time"	"choice"	"gain"	"gain_sound.started"	"gain_sound.stopped"	"End.started"	"text_end.started"	"key_end.started"	"End.stopped"	"key_end.keys"	"key_end.rt"	"key_end.duration"	"participant"	"session"	"date"	"expName"	"psychopyVersion"	"frameRate"	"expStart"	"...75"
NA	NA	NA	NA	NA	NA	NA	NA	0.0399487999966368	0.0528366999933496	0.0528366999933496	0.04028030000336	20.1632435999927	"[0.6842592592592592]"	"[-0.38981481481481484]"	"[1]"	"[0]"	"[0]"	"[20.12236120000307]"	NA	NA	NA	NA	NA	NA	NA	NA	NA	NA	NA	NA	NA	NA	NA	NA	NA	NA	NA	NA	NA	NA	NA	NA	NA	NA	NA	NA	NA	NA	NA	NA	NA	NA	NA	NA	NA	NA	NA	NA	NA	NA	NA	NA	NA	NA	NA	NA	29	"01"	"2024-02-19_15h49.50.487"	"GDT_exp"	"2023.2.3"	120.035050243043	"2024-02-19 15h49.59.720289 +0100"	NA
"dice_3.png"	3	0	0	0	2	20.2459480999969	NA	NA	NA	NA	NA	NA	NA	NA	NA	NA	NA	NA	20.1681358999922	20.2459480999969	20.2459480999969	20.2459480999969	20.2459480999969	20.2459480999969	20.2459480999969	20.2459480999969	20.2459480999969	20.2459480999969	20.2459480999969	20.2459480999969	20.2459480999969	20.2459480999969	20.2459480999969	20.2459480999969	20.2459480999969	20.2459480999969	20.2459480999969	20.2459480999969	20.2459480999969	20.2459480999969	20.2459480999969	20.2459480999969	20.2459480999969	20.2459480999969	0.0225812999997288	4.29964919999475	24.5295767999924	26.0880305000028	26.0407122000033	"[-0.1388888888888889, -0.5601851851851852]"	"[-0.2564814814814815, 0.275]"	"[1, 0]"	"[0, 0]"	"[0, 1]"	"[3.5040211000014096, 4.245749599998817]"	3	-200	NA	NA	NA	NA	NA	NA	NA	NA	NA	29	"01"	"2024-02-19_15h49.50.487"	"GDT_exp"	"2023.2.3"	120.035050243043	"2024-02-19 15h49.59.720289 +0100"	NA
"dice_5.png"	5	0	1	1	4	26.0880305000028	NA	NA	NA	NA	NA	NA	NA	NA	NA	NA	NA	NA	26.0415896999912	26.0880305000028	26.0880305000028	26.0880305000028	26.0880305000028	26.0880305000028	26.0880305000028	26.0880305000028	26.0880305000028	26.0880305000028	26.0880305000028	26.0880305000028	26.0880305000028	26.0880305000028	26.0880305000028	26.0880305000028	26.0880305000028	26.0880305000028	26.0880305000028	26.0880305000028	26.0880305000028	26.0880305000028	26.0880305000028	26.0880305000028	26.0880305000028	26.0880305000028	0.0178679000091506	NA	31.4883754999901	33.0553049000009	33.0100406999991	"[-0.29074074074074074, -0.425]"	"[-0.33611111111111114, 0.18796296296296297]"	"[1, 0]"	"[0, 0]"	"[0, 1]"	"[4.095738899995922, 5.362748299987288]"	4	100	5.38028640000266	6.90542850000202	NA	NA	NA	NA	NA	NA	NA	29	"01"	"2024-02-19_15h49.50.487"	"GDT_exp"	"2023.2.3"	120.035050243043	"2024-02-19 15h49.59.720289 +0100"	NA
"dice_4.png"	4	0	2	2	3	33.0553049000009	NA	NA	NA	NA	NA	NA	NA	NA	NA	NA	NA	NA	33.0106475999928	33.0553049000009	33.0553049000009	33.0553049000009	33.0553049000009	33.0553049000009	33.0553049000009	33.0553049000009	33.0553049000009	33.0553049000009	33.0553049000009	33.0553049000009	33.0553049000009	33.0553049000009	33.0553049000009	33.0553049000009	33.0553049000009	33.0553049000009	33.0553049000009	33.0553049000009	33.0553049000009	33.0553049000009	33.0553049000009	33.0553049000009	33.0553049000009	33.0553049000009	0.0186289999983273	3.61156659999688	36.6971114999906	38.2555539000023	38.2081676999951	"[-0.3888888888888889, -0.19166666666666668]"	"[-0.22685185185185186, 0.23055555555555557]"	"[1, 0]"	"[0, 0]"	"[0, 1]"	"[2.7425670999946306, 3.5925362999987556]"	3	-200	NA	NA	NA	NA	NA	NA	NA	NA	NA	29	"01"	"2024-02-19_15h49.50.487"	"GDT_exp"	"2023.2.3"	120.035050243043	"2024-02-19 15h49.59.720289 +0100"	NA
"dice_2.png"	2	0	3	3	1	38.2555539000023	NA	NA	NA	NA	NA	NA	NA	NA	NA	NA	NA	NA	38.2087608000002	38.2555539000023	38.2555539000023	38.2555539000023	38.2555539000023	38.2555539000023	38.2555539000023	38.2555539000023	38.2555539000023	38.2555539000023	38.2555539000023	38.2555539000023	38.2555539000023	38.2555539000023	38.2555539000023	38.2555539000023	38.2555539000023	38.2555539000023	38.2555539000023	38.2555539000023	38.2555539000023	38.2555539000023	38.2555539000023	38.2555539000023	38.2555539000023	38.2555539000023	0.0183696000021882	5.41392940000514	43.6975729999976	45.2477958999953	45.199909899995	"[-0.08703703703703704, -0.2564814814814815]"	"[-0.2611111111111111, 0.09166666666666666]"	"[1, 0]"	"[0, 0]"	"[0, 1]"	"[4.387163799998234, 5.395481200001086]"	3	-200	NA	NA	NA	NA	NA	NA	NA	NA	NA	29	"01"	"2024-02-19_15h49.50.487"	"GDT_exp"	"2023.2.3"	120.035050243043	"2024-02-19 15h49.59.720289 +0100"	NA
"dice_1.png"	1	0	4	4	0	45.2477958999953	NA	NA	NA	NA	NA	NA	NA	NA	NA	NA	NA	NA	45.2004878000007	45.2477958999953	45.2477958999953	45.2477958999953	45.2477958999953	45.2477958999953	45.2477958999953	45.2477958999953	45.2477958999953	45.2477958999953	45.2477958999953	45.2477958999953	45.2477958999953	45.2477958999953	45.2477958999953	45.2477958999953	45.2477958999953	45.2477958999953	45.2477958999953	45.2477958999953	45.2477958999953	45.2477958999953	45.2477958999953	45.2477958999953	45.2477958999953	45.2477958999953	0.0174920999997994	3.66422590000729	48.9395569999906	50.4979937000026	50.4506124999898	"[-0.24444444444444444, -0.41944444444444445]"	"[-0.35833333333333334, 0.13518518518518519]"	"[1, 0]"	"[0, 0]"	"[0, 1]"	"[2.1963871999905678, 3.646499299997231]"	4	-100	NA	NA	NA	NA	NA	NA	NA	NA	NA	29	"01"	"2024-02-19_15h49.50.487"	"GDT_exp"	"2023.2.3"	120.035050243043	"2024-02-19 15h49.59.720289 +0100"	NA
"dice_6.png"	6	0	5	5	5	50.4979937000026	NA	NA	NA	NA	NA	NA	NA	NA	NA	NA	NA	NA	50.4511494000035	50.4979937000026	50.4979937000026	50.4979937000026	50.4979937000026	50.4979937000026	50.4979937000026	50.4979937000026	50.4979937000026	50.4979937000026	50.4979937000026	50.4979937000026	50.4979937000026	50.4979937000026	50.4979937000026	50.4979937000026	50.4979937000026	50.4979937000026	50.4979937000026	50.4979937000026	50.4979937000026	50.4979937000026	50.4979937000026	50.4979937000026	50.4979937000026	50.4979937000026	0.0178449999948498	NA	54.9066517000028	56.4734039000032	56.4258929999924	"[0.08703703703703704, -0.32407407407407407]"	"[-0.3277777777777778, 0.10925925925925926]"	"[1, 0]"	"[0, 0]"	"[0, 1]"	"[3.295789700001478, 4.370876600005431]"	4	100	4.38895720000437	5.91410569999425	NA	NA	NA	NA	NA	NA	NA	29	"01"	"2024-02-19_15h49.50.487"	"GDT_exp"	"2023.2.3"	120.035050243043	"2024-02-19 15h49.59.720289 +0100"	NA
"dice_5.png"	5	1	0	6	4	56.4734039000032	NA	NA	NA	NA	NA	NA	NA	NA	NA	NA	NA	NA	56.4264687999967	56.4734039000032	56.4734039000032	56.4734039000032	56.4734039000032	56.4734039000032	56.4734039000032	56.4734039000032	56.4734039000032	56.4734039000032	56.4734039000032	56.4734039000032	56.4734039000032	56.4734039000032	56.4734039000032	56.4734039000032	56.4734039000032	56.4734039000032	56.4734039000032	56.4734039000032	56.4734039000032	56.4734039000032	56.4734039000032	56.4734039000032	56.4734039000032	56.4734039000032	0.0150706999993417	NA	61.007048200001	62.5572710999986	62.5096293999959	"[0.03796296296296296, -0.1527777777777778]"	"[-0.34444444444444444, 0.17407407407407408]"	"[1, 0]"	"[0, 0]"	"[0, 1]"	"[3.481956399991759, 4.498704700003145]"	4	100	4.51409550000972	6.01422650000313	NA	NA	NA	NA	NA	NA	NA	29	"01"	"2024-02-19_15h49.50.487"	"GDT_exp"	"2023.2.3"	120.035050243043	"2024-02-19 15h49.59.720289 +0100"	NA
"dice_4.png"	4	1	1	7	3	62.5572710999986	NA	NA	NA	NA	NA	NA	NA	NA	NA	NA	NA	NA	62.5102110000007	62.5572710999986	62.5572710999986	62.5572710999986	62.5572710999986	62.5572710999986	62.5572710999986	62.5572710999986	62.5572710999986	62.5572710999986	62.5572710999986	62.5572710999986	62.5572710999986	62.5572710999986	62.5572710999986	62.5572710999986	62.5572710999986	62.5572710999986	62.5572710999986	62.5572710999986	62.5572710999986	62.5572710999986	62.5572710999986	62.5572710999986	62.5572710999986	62.5572710999986	0.018902199997683	3.03896380000515	65.6240243999928	67.1657953999966	67.126646299992	"[-0.4361111111111111, 0.06018518518518518]"	"[-0.2361111111111111, 0.10648148148148148]"	"[1, 0]"	"[0, 0]"	"[0, 1]"	"[2.1697510999947554, 3.0198854000045685]"	3	-200	NA	NA	NA	NA	NA	NA	NA	NA	NA	29	"01"	"2024-02-19_15h49.50.487"	"GDT_exp"	"2023.2.3"	120.035050243043	"2024-02-19 15h49.59.720289 +0100"	NA
"dice_6.png"	6	1	2	8	5	67.1657953999966	NA	NA	NA	NA	NA	NA	NA	NA	NA	NA	NA	NA	67.127270099998	67.1657953999966	67.1657953999966	67.1657953999966	67.1657953999966	67.1657953999966	67.1657953999966	67.1657953999966	67.1657953999966	67.1657953999966	67.1657953999966	67.1657953999966	67.1657953999966	67.1657953999966	67.1657953999966	67.1657953999966	67.1657953999966	67.1657953999966	67.1657953999966	67.1657953999966	67.1657953999966	67.1657953999966	67.1657953999966	67.1657953999966	67.1657953999966	67.1657953999966	0.0146300000051269	4.28897760000837	71.4994242999965	73.0495253999979	73.0019537999906	"[-0.2657407407407407, -0.020370370370370372]"	"[-0.3435185185185185, 0.06111111111111111]"	"[1, 0]"	"[0, 0]"	"[0, 1]"	"[3.173499199998332, 4.273558400003822]"	4	-100	NA	NA	NA	NA	NA	NA	NA	NA	NA	29	"01"	"2024-02-19_15h49.50.487"	"GDT_exp"	"2023.2.3"	120.035050243043	"2024-02-19 15h49.59.720289 +0100"	NA
"dice_3.png"	3	1	3	9	2	73.0495253999979	NA	NA	NA	NA	NA	NA	NA	NA	NA	NA	NA	NA	73.0025350999931	73.0495253999979	73.0495253999979	73.0495253999979	73.0495253999979	73.0495253999979	73.0495253999979	73.0495253999979	73.0495253999979	73.0495253999979	73.0495253999979	73.0495253999979	73.0495253999979	73.0495253999979	73.0495253999979	73.0495253999979	73.0495253999979	73.0495253999979	73.0495253999979	73.0495253999979	73.0495253999979	73.0495253999979	73.0495253999979	73.0495253999979	73.0495253999979	73.0495253999979	0.0180107000051066	NA	78.0415550000034	79.6001447000017	79.5610143999947	"[-0.4203703703703704, -0.20462962962962963]"	"[-0.22962962962962963, 0.12407407407407407]"	"[1, 0]"	"[0, 0]"	"[0, 1]"	"[3.6541553999995813, 4.945885000008275]"	3	200	4.96413980000943	6.48928510000405	NA	NA	NA	NA	NA	NA	NA	29	"01"	"2024-02-19_15h49.50.487"	"GDT_exp"	"2023.2.3"	120.035050243043	"2024-02-19 15h49.59.720289 +0100"	NA
"dice_1.png"	1	1	4	10	0	79.6001447000017	NA	NA	NA	NA	NA	NA	NA	NA	NA	NA	NA	NA	79.5615980000002	79.6001447000017	79.6001447000017	79.6001447000017	79.6001447000017	79.6001447000017	79.6001447000017	79.6001447000017	79.6001447000017	79.6001447000017	79.6001447000017	79.6001447000017	79.6001447000017	79.6001447000017	79.6001447000017	79.6001447000017	79.6001447000017	79.6001447000017	79.6001447000017	79.6001447000017	79.6001447000017	79.6001447000017	79.6001447000017	79.6001447000017	79.6001447000017	79.6001447000017	0.0147711000026902	4.47220019999077	84.1170859999984	85.6670490999968	85.627928499991	"[0.11944444444444445, -0.2814814814814815]"	"[-0.13240740740740742, 0.21574074074074073]"	"[1, 0]"	"[0, 0]"	"[0, 1]"	"[3.5906036000087624, 4.457202200006577]"	2	-500	NA	NA	NA	NA	NA	NA	NA	NA	NA	29	"01"	"2024-02-19_15h49.50.487"	"GDT_exp"	"2023.2.3"	120.035050243043	"2024-02-19 15h49.59.720289 +0100"	NA
"dice_2.png"	2	1	5	11	1	85.6670490999968	NA	NA	NA	NA	NA	NA	NA	NA	NA	NA	NA	NA	85.6285116999934	85.6670490999968	85.6670490999968	85.6670490999968	85.6670490999968	85.6670490999968	85.6670490999968	85.6670490999968	85.6670490999968	85.6670490999968	85.6670490999968	85.6670490999968	85.6670490999968	85.6670490999968	85.6670490999968	85.6670490999968	85.6670490999968	85.6670490999968	85.6670490999968	85.6670490999968	85.6670490999968	85.6670490999968	85.6670490999968	85.6670490999968	85.6670490999968	85.6670490999968	0.0148734999966109	NA	89.658978099993	91.2174238000007	91.1780870999937	"[-0.6268518518518519, -0.2037037037037037]"	"[-0.3574074074074074, 0.13240740740740742]"	"[1, 0]"	"[0, 0]"	"[0, 1]"	"[2.6071444999979576, 3.9486662999988766]"	4	100	3.96395459999621	5.48076390000642	NA	NA	NA	NA	NA	NA	NA	29	"01"	"2024-02-19_15h49.50.487"	"GDT_exp"	"2023.2.3"	120.035050243043	"2024-02-19 15h49.59.720289 +0100"	NA
"dice_5.png"	5	2	0	12	4	91.2174238000007	NA	NA	NA	NA	NA	NA	NA	NA	NA	NA	NA	NA	91.1786674000032	91.2174238000007	91.2174238000007	91.2174238000007	91.2174238000007	91.2174238000007	91.2174238000007	91.2174238000007	91.2174238000007	91.2174238000007	91.2174238000007	91.2174238000007	91.2174238000007	91.2174238000007	91.2174238000007	91.2174238000007	91.2174238000007	91.2174238000007	91.2174238000007	91.2174238000007	91.2174238000007	91.2174238000007	91.2174238000007	91.2174238000007	91.2174238000007	91.2174238000007	0.0145192000054521	NA	98.601388199997	100.143057099995	100.103728799993	"[-0.26666666666666666, -0.10185185185185185]"	"[-0.3277777777777778, -0.15092592592592594]"	"[1, 0]"	"[0, 0]"	"[0, 1]"	"[5.124499400000786, 7.333008300003712]"	4	100	7.34774650000327	8.86455460000434	NA	NA	NA	NA	NA	NA	NA	29	"01"	"2024-02-19_15h49.50.487"	"GDT_exp"	"2023.2.3"	120.035050243043	"2024-02-19 15h49.59.720289 +0100"	NA
"dice_6.png"	6	2	1	13	5	100.143057099995	NA	NA	NA	NA	NA	NA	NA	NA	NA	NA	NA	NA	100.104277799997	100.143057099995	100.143057099995	100.143057099995	100.143057099995	100.143057099995	100.143057099995	100.143057099995	100.143057099995	100.143057099995	100.143057099995	100.143057099995	100.143057099995	100.143057099995	100.143057099995	100.143057099995	100.143057099995	100.143057099995	100.143057099995	100.143057099995	100.143057099995	100.143057099995	100.143057099995	100.143057099995	100.143057099995	100.143057099995	0.0177866999874823	3.4141307999962	103.58492519999	105.135035999992	105.095900400003	"[-0.4166666666666667, -0.0824074074074074]"	"[-0.23425925925925925, -0.003703703703703704]"	"[1, 0]"	"[0, 0]"	"[0, 1]"	"[2.6543956999958027, 3.396256399995764]"	3	-200	NA	NA	NA	NA	NA	NA	NA	NA	NA	29	"01"	"2024-02-19_15h49.50.487"	"GDT_exp"	"2023.2.3"	120.035050243043	"2024-02-19 15h49.59.720289 +0100"	NA
"dice_1.png"	1	2	2	14	0	105.135035999992	NA	NA	NA	NA	NA	NA	NA	NA	NA	NA	NA	NA	105.096476199993	105.135035999992	105.135035999992	105.135035999992	105.135035999992	105.135035999992	105.135035999992	105.135035999992	105.135035999992	105.135035999992	105.135035999992	105.135035999992	105.135035999992	105.135035999992	105.135035999992	105.135035999992	105.135035999992	105.135035999992	105.135035999992	105.135035999992	105.135035999992	105.135035999992	105.135035999992	105.135035999992	105.135035999992	105.135035999992	0.0148017000028631	2.81390530000499	107.976896399996	109.543688899998	109.504240099996	"[-0.041666666666666664, -0.14166666666666666]"	"[-0.23981481481481481, 0.05277777777777778]"	"[1, 0]"	"[0, 0]"	"[0, 1]"	"[1.7237712999922223, 2.7990246999979718]"	3	-200	NA	NA	NA	NA	NA	NA	NA	NA	NA	29	"01"	"2024-02-19_15h49.50.487"	"GDT_exp"	"2023.2.3"	120.035050243043	"2024-02-19 15h49.59.720289 +0100"	NA
"dice_2.png"	2	2	3	15	1	109.543688899998	NA	NA	NA	NA	NA	NA	NA	NA	NA	NA	NA	NA	109.504811799998	109.543688899998	109.543688899998	109.543688899998	109.543688899998	109.543688899998	109.543688899998	109.543688899998	109.543688899998	109.543688899998	109.543688899998	109.543688899998	109.543688899998	109.543688899998	109.543688899998	109.543688899998	109.543688899998	109.543688899998	109.543688899998	109.543688899998	109.543688899998	109.543688899998	109.543688899998	109.543688899998	109.543688899998	109.543688899998	0.0162462000007508	3.38091720000375	112.968900699998	114.518997399995	114.479603699991	"[0.12777777777777777, 0.005555555555555556]"	"[-0.35648148148148145, 0.03425925925925926]"	"[1, 0]"	"[0, 0]"	"[0, 1]"	"[2.3481133000022965, 3.3644637999968836]"	4	-100	NA	NA	NA	NA	NA	NA	NA	NA	NA	29	"01"	"2024-02-19_15h49.50.487"	"GDT_exp"	"2023.2.3"	120.035050243043	"2024-02-19 15h49.59.720289 +0100"	NA
"dice_3.png"	3	2	4	16	2	114.518997399995	NA	NA	NA	NA	NA	NA	NA	NA	NA	NA	NA	NA	114.4801782	114.518997399995	114.518997399995	114.518997399995	114.518997399995	114.518997399995	114.518997399995	114.518997399995	114.518997399995	114.518997399995	114.518997399995	114.518997399995	114.518997399995	114.518997399995	114.518997399995	114.518997399995	114.518997399995	114.518997399995	114.518997399995	114.518997399995	114.518997399995	114.518997399995	114.518997399995	114.518997399995	114.518997399995	114.518997399995	0.0145222999999532	NA	120.227734200002	121.777961799991	121.730142300003	"[-0.22870370370370371, -0.09351851851851851]"	"[-0.15092592592592594, 0.026851851851851852]"	"[1, 0]"	"[0, 0]"	"[0, 1]"	"[4.366213400004199, 5.666265100007877]"	2	500	5.68102660001023	7.18124469999748	NA	NA	NA	NA	NA	NA	NA	29	"01"	"2024-02-19_15h49.50.487"	"GDT_exp"	"2023.2.3"	120.035050243043	"2024-02-19 15h49.59.720289 +0100"	NA
"dice_4.png"	4	2	5	17	3	121.777961799991	NA	NA	NA	NA	NA	NA	NA	NA	NA	NA	NA	NA	121.730685100003	121.777961799991	121.777961799991	121.777961799991	121.777961799991	121.777961799991	121.777961799991	121.777961799991	121.777961799991	121.777961799991	121.777961799991	121.777961799991	121.777961799991	121.777961799991	121.777961799991	121.777961799991	121.777961799991	121.777961799991	121.777961799991	121.777961799991	121.777961799991	121.777961799991	121.777961799991	121.777961799991	121.777961799991	121.777961799991	0.0149163000023691	NA	125.686342999994	127.228202899991	127.214342299994	"[-0.030555555555555555, -0.10462962962962963]"	"[-0.22962962962962963, -0.05555555555555555]"	"[1, 0]"	"[0, 0]"	"[0, 1]"	"[2.865893900001538, 3.8740135000116425]"	3	200	3.88923800000339	5.42284470000595	NA	NA	NA	NA	NA	NA	NA	29	"01"	"2024-02-19_15h49.50.487"	"GDT_exp"	"2023.2.3"	120.035050243043	"2024-02-19 15h49.59.720289 +0100"	NA
NA	NA	NA	NA	NA	NA	NA	NA	NA	NA	NA	NA	NA	NA	NA	NA	NA	NA	NA	NA	NA	NA	NA	NA	NA	NA	NA	NA	NA	NA	NA	NA	NA	NA	NA	NA	NA	NA	NA	NA	NA	NA	NA	NA	NA	NA	NA	NA	NA	NA	NA	NA	NA	NA	NA	NA	NA	NA	NA	NA	127.214782700001	127.228202899991	127.228202899991	133.812444800002	"space"	6.58350990001054	"None"	29	"01"	"2024-02-19_15h49.50.487"	"GDT_exp"	"2023.2.3"	120.035050243043	"2024-02-19 15h49.59.720289 +0100"	NA
