"image"	"max_pumps"	"pump_loop.thisRepN"	"pump_loop.thisTrialN"	"pump_loop.thisN"	"pump_loop.thisIndex"	"thisRow.t"	"notes"	"Start.started"	"text_start.started"	"continue_start.started"	"mouse_start.started"	"Start.stopped"	"mouse_start.x"	"mouse_start.y"	"mouse_start.leftButton"	"mouse_start.midButton"	"mouse_start.rightButton"	"mouse_start.time"	"trials.started"	"stim_balloon.started"	"stim_balloon_burst.started"	"stim_balloon_burst.stopped"	"text_ballon_value.started"	"text_bank.started"	"mouse.started"	"sound_bang.started"	"sound_bang.stopped"	"button_balloon.started"	"trials.stopped"	"n_pumps"	"earnings"	"popped"	"mouse.x"	"mouse.y"	"mouse.leftButton"	"mouse.midButton"	"mouse.rightButton"	"mouse.time"	"button_balloon.numClicks"	"button_balloon.timesOn"	"button_balloon.timesOff"	"Feedback.started"	"text_feedback.started"	"Feedback.stopped"	"text_feedback.stopped"	"End.started"	"text_end.started"	"key_end.started"	"End.stopped"	"key_end.keys"	"key_end.rt"	"key_end.duration"	"participant"	"session"	"date"	"expName"	"psychopyVersion"	"frameRate"	"expStart"	"...61"
NA	NA	NA	NA	NA	NA	NA	NA	0.03657050000038	0.0477237000013702	0.0477237000013702	0.036918700003298	26.5500326000001	"[0.7074074074074074]"	"[-0.41574074074074074]"	"[1]"	"[0]"	"[0]"	"[26.512542700002086]"	NA	NA	NA	NA	NA	NA	NA	NA	NA	NA	NA	NA	NA	NA	NA	NA	NA	NA	NA	NA	NA	NA	NA	NA	NA	NA	NA	NA	NA	NA	NA	NA	NA	NA	17	"01"	"2024-02-08_13h11.28.092"	"BART_exp"	"2023.2.3"	119.938447589502	"2024-02-08 13h11.45.024163 +0100"	NA
"balloon.png"	84	0	0	0	19	26.6162760000007	NA	NA	NA	NA	NA	NA	NA	NA	NA	NA	NA	NA	26.5562775000035	26.6162760000007	26.6162760000007	26.6162760000007	26.6162760000007	26.6162760000007	0.00798099999883561	0.00798099999883561	0.00798099999883561	26.6162760000007	45.3026841000028	12	0.6	FALSE	"[0.049074074074074076, 0.049074074074074076, 0.049074074074074076, 0.049074074074074076, 0.049074074074074076, 0.05185185185185185, 0.05185185185185185, 0.05185185185185185, 0.05185185185185185, 0.05185185185185185, 0.05185185185185185, 0.05185185185185185, 0.05185185185185185]"	"[-0.39537037037037037, -0.39537037037037037, -0.39537037037037037, -0.39537037037037037, -0.39537037037037037, -0.39814814814814814, -0.39814814814814814, -0.39814814814814814, -0.39814814814814814, -0.39814814814814814, -0.39814814814814814, -0.39814814814814814, -0.39814814814814814]"	"[1, 1, 1, 1, 1, 1, 1, 1, 1, 1, 1, 1, 0]"	"[0, 0, 0, 0, 0, 0, 0, 0, 0, 0, 0, 0, 0]"	"[0, 0, 0, 0, 0, 0, 0, 0, 0, 0, 0, 0, 1]"	"[3.1776709999976447, 4.219231600000057, 5.027601899997535, 6.094653099997231, 7.377819599998475, 9.469816699998773, 10.478118799997901, 11.836423699998704, 12.75332889999845, 14.320252899997286, 16.328567900000053, 17.14529589999802, 18.745373599998857]"	13	"[3.131250000002183, 4.172807700000703, 4.981177400000888, 6.048226099999738, 7.331392200001574, 9.423414000000776, 10.431700799999817, 11.789999100001296, 12.70691060000172, 14.273832000002585, 16.282146900000953, 17.098874700001033, 18.69888440000068]"	"[3.2892413000008673, 4.347696900000301, 5.106259100000898, 6.19781040000089, 7.4562227000023995, 9.523000600001978, 10.54822520000016, 11.91483960000187, 12.848257000001468, 14.390090600001713, 16.398496500001784, 17.265352600003098, 18.69888870000068]"	45.3038870000019	45.3174676000017	46.8093539000001	NA	NA	NA	NA	NA	NA	NA	NA	17	"01"	"2024-02-08_13h11.28.092"	"BART_exp"	"2023.2.3"	119.938447589502	"2024-02-08 13h11.45.024163 +0100"	NA
"balloon.png"	62	0	1	1	14	46.8259799000007	NA	NA	NA	NA	NA	NA	NA	NA	NA	NA	NA	NA	46.8095310000026	46.8259799000007	46.8259799000007	46.8259799000007	46.8259799000007	46.8259799000007	0.00684259999979985	0.00684259999979985	0.00684259999979985	46.8259799000007	64.062248000002	15	0.75	FALSE	"[0.05185185185185185, 0.05185185185185185, 0.05185185185185185, 0.05185185185185185, 0.05185185185185185, 0.05185185185185185, 0.05185185185185185, 0.05185185185185185, 0.05185185185185185, 0.05185185185185185, 0.05185185185185185, 0.05185185185185185, 0.05185185185185185, 0.05185185185185185, 0.05185185185185185, 0.05185185185185185]"	"[-0.39814814814814814, -0.39814814814814814, -0.39814814814814814, -0.39814814814814814, -0.39814814814814814, -0.39814814814814814, -0.39814814814814814, -0.39814814814814814, -0.39814814814814814, -0.39814814814814814, -0.39814814814814814, -0.39814814814814814, -0.39814814814814814, -0.39814814814814814, -0.39814814814814814, -0.39814814814814814]"	"[1, 1, 1, 1, 1, 1, 1, 1, 1, 1, 1, 1, 1, 1, 1, 0]"	"[0, 0, 0, 0, 0, 0, 0, 0, 0, 0, 0, 0, 0, 0, 0, 0]"	"[0, 0, 0, 0, 0, 0, 0, 0, 0, 0, 0, 0, 0, 0, 0, 1]"	"[1.4005525000029593, 2.4424521000000823, 3.459227000003011, 4.525802400003158, 5.434444300000905, 6.267713100001856, 7.184433100002934, 8.109528300003149, 9.134462500001973, 10.084732200000872, 10.976340500001243, 11.926276000001963, 13.209877500001312, 14.711185300002398, 15.818368100000953, 17.251802200000384]"	16	"[1.397505099997943, 2.439411100000143, 3.4561842999974033, 4.522756099999242, 5.4314062999983435, 6.264666199997009, 7.173176299998886, 8.106484099997033, 9.131416299998818, 10.081684299999324, 10.973296099997242, 11.923227499999484, 13.206828200000018, 14.708304799998587, 15.815318899996782, 17.24868349999815]"	"[1.5556863999991037, 2.5557411999980104, 3.6058083999996597, 4.655891899998096, 5.58101059999899, 6.389350399997056, 7.306285999999091, 8.231160600000294, 9.289563599999383, 10.222985099997459, 11.131362299998727, 12.064761999998154, 13.373198899997078, 14.848314299997583, 15.94839409999986, 17.248687600000267]"	64.0631480000011	64.0688679000014	65.5608288000003	65.5856606000016	NA	NA	NA	NA	NA	NA	NA	17	"01"	"2024-02-08_13h11.28.092"	"BART_exp"	"2023.2.3"	119.938447589502	"2024-02-08 13h11.45.024163 +0100"	NA
"balloon.png"	118	0	2	2	27	65.5856606000016	NA	NA	NA	NA	NA	NA	NA	NA	NA	NA	NA	NA	65.5610074000033	65.5856606000016	65.5856606000016	65.5856606000016	65.5856606000016	65.5856606000016	-0.00094669999816687	-0.00094669999816687	-0.00094669999816687	65.5856606000016	77.1213079000008	16	0.8	FALSE	"[0.05185185185185185, 0.05185185185185185, 0.05185185185185185, 0.05185185185185185, 0.05185185185185185, 0.05185185185185185, 0.05185185185185185, 0.05185185185185185, 0.05185185185185185, 0.05185185185185185, 0.05185185185185185, 0.05185185185185185, 0.05185185185185185, 0.05185185185185185, 0.05185185185185185, 0.05185185185185185, 0.05185185185185185]"	"[-0.39814814814814814, -0.39814814814814814, -0.39814814814814814, -0.39814814814814814, -0.39814814814814814, -0.39814814814814814, -0.39814814814814814, -0.39814814814814814, -0.39814814814814814, -0.39814814814814814, -0.39814814814814814, -0.39814814814814814, -0.39814814814814814, -0.39814814814814814, -0.39814814814814814, -0.39814814814814814, -0.39814814814814814]"	"[1, 1, 1, 1, 1, 1, 1, 1, 1, 1, 1, 1, 1, 1, 1, 1, 0]"	"[0, 0, 0, 0, 0, 0, 0, 0, 0, 0, 0, 0, 0, 0, 0, 0, 0]"	"[0, 0, 0, 0, 0, 0, 0, 0, 0, 0, 0, 0, 0, 0, 0, 0, 1]"	"[0.9255246000029729, 1.475560900002165, 2.1754472000029637, 2.8088447000009182, 3.392187700002978, 4.084098300001642, 4.7091711000030045, 5.292496900001424, 6.125863799999934, 6.692701500000112, 7.192531200002122, 7.792533600000752, 8.501059000001987, 9.076249400000961, 10.018086900003254, 10.651225300000078, 11.55941150000217]"	17	"[0.9136833999982628, 1.4637202000012621, 2.163601000000199, 2.7970019999993383, 3.3803404999998747, 4.072254399998201, 4.697325199998886, 5.280660000000353, 6.114022199999454, 6.680864300000394, 7.180692699999781, 7.780697099999088, 8.489213400000153, 9.064414600001328, 10.006241700000828, 10.63938639999833, 11.54750299999796]"	"[1.055028399998264, 1.5967481000006956, 2.306499199999962, 2.913542199999938, 3.521881199998461, 4.221943500000634, 4.821967299998505, 5.4386822000014945, 6.222327100000257, 6.813785199999984, 7.32212939999954, 7.905529899999237, 8.605565699999715, 9.230629599998792, 10.164157999999588, 10.780750999998418, 11.54750729999796]"	77.1222227000035	77.1281117000035	78.6200839000012	78.636619500001	NA	NA	NA	NA	NA	NA	NA	17	"01"	"2024-02-08_13h11.28.092"	"BART_exp"	"2023.2.3"	119.938447589502	"2024-02-08 13h11.45.024163 +0100"	NA
"balloon.png"	123	0	3	3	28	78.636619500001	NA	NA	NA	NA	NA	NA	NA	NA	NA	NA	NA	NA	78.620273200002	78.636619500001	78.636619500001	78.636619500001	78.636619500001	78.636619500001	-0.00075010000000474	-0.00075010000000474	-0.00075010000000474	78.636619500001	94.3727008000024	19	0.95	FALSE	"[0.05185185185185185, 0.05185185185185185, 0.05185185185185185, 0.05185185185185185, 0.05185185185185185, 0.05185185185185185, 0.05185185185185185, 0.05185185185185185, 0.05185185185185185, 0.05185185185185185, 0.05185185185185185, 0.05185185185185185, 0.05185185185185185, 0.05185185185185185, 0.05185185185185185, 0.05185185185185185, 0.05185185185185185, 0.05185185185185185, 0.05185185185185185, 0.05185185185185185]"	"[-0.39814814814814814, -0.39814814814814814, -0.39814814814814814, -0.39814814814814814, -0.39814814814814814, -0.39814814814814814, -0.39814814814814814, -0.39814814814814814, -0.39814814814814814, -0.39814814814814814, -0.39814814814814814, -0.39814814814814814, -0.39814814814814814, -0.39814814814814814, -0.39814814814814814, -0.39814814814814814, -0.39814814814814814, -0.39814814814814814, -0.39814814814814814, -0.39814814814814814]"	"[1, 1, 1, 1, 1, 1, 1, 1, 1, 1, 1, 1, 1, 1, 1, 1, 1, 1, 1, 0]"	"[0, 0, 0, 0, 0, 0, 0, 0, 0, 0, 0, 0, 0, 0, 0, 0, 0, 0, 0, 0]"	"[0, 0, 0, 0, 0, 0, 0, 0, 0, 0, 0, 0, 0, 0, 0, 0, 0, 0, 0, 1]"	"[1.2600044999999227, 1.8670830000010028, 2.442111299998942, 2.983995499998855, 3.6173954000005324, 4.167399199999636, 4.683986500000174, 5.258967900001153, 5.751027599999361, 6.292456099999981, 6.825905900001089, 7.517614600001252, 8.117494099999021, 9.092570599997998, 9.717674799998349, 10.276040599997941, 11.442777600001136, 12.48450899999807, 13.526390300001367, 15.751512300001195]"	20	"[1.2573364000018046, 1.8643190000002505, 2.439344300000812, 2.9812328000007255, 3.614629000003333, 4.164633900003537, 4.681221100003313, 5.2561964000015, 5.748266000002332, 6.289697800002614, 6.823139700001775, 7.51484320000236, 8.114730100001907, 9.089803800001391, 9.714906100001826, 10.273269700002857, 11.440012000002753, 12.481742200001463, 13.523623800003406, 15.748684600002889]"	"[1.4224781000011717, 2.0058158000028925, 2.547561000003043, 3.1308965000025637, 3.7559989000001224, 4.297659100000601, 4.806080199999997, 5.364469400003145, 5.889602900002501, 6.431178600003477, 6.964507700002287, 7.656234400001267, 8.239644799999951, 9.223159200002556, 9.873303600001236, 10.423116600002686, 11.598168700002134, 12.606601300001785, 13.673303400002624, 15.748688500003482]"	94.3737536000008	94.3793220000007	95.8713141000008	95.8794306000018	NA	NA	NA	NA	NA	NA	NA	17	"01"	"2024-02-08_13h11.28.092"	"BART_exp"	"2023.2.3"	119.938447589502	"2024-02-08 13h11.45.024163 +0100"	NA
"balloon.png"	14	0	4	4	3	95.8794306000018	NA	NA	NA	NA	NA	NA	NA	NA	NA	NA	NA	NA	95.8714954000025	95.8794306000018	95.8794306000018	95.8794306000018	95.8794306000018	95.8794306000018	0.00573649999932968	0.00573649999932968	0.00573649999932968	95.8794306000018	104.690338300003	15	0.7	TRUE	"[0.05185185185185185, 0.05185185185185185, 0.05185185185185185, 0.05185185185185185, 0.05185185185185185, 0.05185185185185185, 0.05185185185185185, 0.05185185185185185, 0.05185185185185185, 0.05185185185185185, 0.05185185185185185, 0.05185185185185185, 0.05185185185185185, 0.05185185185185185, 0.05185185185185185]"	"[-0.39814814814814814, -0.39814814814814814, -0.39814814814814814, -0.39814814814814814, -0.39814814814814814, -0.39814814814814814, -0.39814814814814814, -0.39814814814814814, -0.39814814814814814, -0.39814814814814814, -0.39814814814814814, -0.39814814814814814, -0.39814814814814814, -0.39814814814814814, -0.39814814814814814]"	"[1, 1, 1, 1, 1, 1, 1, 1, 1, 1, 1, 1, 1, 1, 1]"	"[0, 0, 0, 0, 0, 0, 0, 0, 0, 0, 0, 0, 0, 0, 0]"	"[0, 0, 0, 0, 0, 0, 0, 0, 0, 0, 0, 0, 0, 0, 0]"	"[0.8921467000000121, 1.450384200001281, 1.8922851999996055, 2.4003989000011643, 2.917318100000557, 3.4589648000001034, 4.175580300001457, 4.767259500000364, 5.300779000001057, 5.759062099998118, 6.317528200001107, 6.892561000000569, 7.434118599998328, 7.975796700000501, 8.684343799999624]"	15	"[0.8903241000007256, 1.4485569999997097, 1.890459300000657, 2.3985778000023856, 2.9154931000011857, 3.4571421000000555, 4.173751500002254, 4.765434400000231, 5.2989559000016015, 5.757232700001623, 6.315704299999197, 6.8907385999991675, 7.4322964000020875, 7.973969599999691, 8.682522600000084]"	"[1.0233883000000787, 1.5484900000010384, 2.006760000000213, 2.508185599999706, 3.0401827999994566, 3.548547900001722, 4.298568199999863, 4.890279300001566, 5.4152920000015, 5.882010799999989, 6.432061600000452, 7.040439600001264, 7.582143999999971, 8.115552300001582, 8.807208599999285]"	104.691139000002	104.7050595	106.196856100003	NA	NA	NA	NA	NA	NA	NA	NA	17	"01"	"2024-02-08_13h11.28.092"	"BART_exp"	"2023.2.3"	119.938447589502	"2024-02-08 13h11.45.024163 +0100"	NA
"balloon.png"	27	0	5	5	6	106.213492000003	NA	NA	NA	NA	NA	NA	NA	NA	NA	NA	NA	NA	106.197033400003	106.213492000003	106.213492000003	106.213492000003	106.213492000003	106.213492000003	0.00713130000076489	0.00713130000076489	0.00713130000076489	106.213492000003	117.141137800001	12	0.6	FALSE	"[0.05925925925925926, 0.05925925925925926, 0.05925925925925926, 0.05925925925925926, 0.05925925925925926, 0.05925925925925926, 0.05925925925925926, 0.05925925925925926, 0.05925925925925926, 0.05925925925925926, 0.05925925925925926, 0.05925925925925926, 0.05925925925925926]"	"[-0.39166666666666666, -0.39166666666666666, -0.39166666666666666, -0.39166666666666666, -0.39166666666666666, -0.39166666666666666, -0.39166666666666666, -0.39166666666666666, -0.39166666666666666, -0.39166666666666666, -0.39166666666666666, -0.39166666666666666, -0.39166666666666666]"	"[1, 1, 1, 1, 1, 1, 1, 1, 1, 1, 1, 1, 0]"	"[0, 0, 0, 0, 0, 0, 0, 0, 0, 0, 0, 0, 0]"	"[0, 0, 0, 0, 0, 0, 0, 0, 0, 0, 0, 0, 1]"	"[1.292233700001816, 1.9507850000009057, 2.6258268999990833, 3.2258422000013525, 3.775883400001476, 4.367586399999709, 5.1093294999991485, 5.817530700001953, 6.417600600001606, 7.167784699999174, 7.992904099999578, 8.659552200002508, 10.943174399999407]"	13	"[1.2864539000001969, 1.9450075999993715, 2.62004270000034, 3.2200656999993953, 3.7701001000023098, 4.361802200000966, 5.103549700001167, 5.8117483999994874, 6.4118247000005795, 7.162005400001362, 7.987122000002273, 8.653797700000723, 10.937329399999726]"	"[1.3945980999997118, 2.0946607000005315, 2.7530353000001924, 3.3281243999990693, 3.903116500001488, 4.478170999998838, 5.228256999998848, 5.911601100000553, 6.553333899999416, 7.303456300000107, 8.136753599999793, 8.795117500001652, 10.937333599998965]"	117.141917500001	117.147606100003	118.639566900001	118.656064800001	NA	NA	NA	NA	NA	NA	NA	17	"01"	"2024-02-08_13h11.28.092"	"BART_exp"	"2023.2.3"	119.938447589502	"2024-02-08 13h11.45.024163 +0100"	NA
"balloon.png"	40	0	6	6	9	118.656064800001	NA	NA	NA	NA	NA	NA	NA	NA	NA	NA	NA	NA	118.639745500001	118.656064800001	118.656064800001	118.656064800001	118.656064800001	118.656064800001	-0.00093960000231163	-0.00093960000231163	-0.00093960000231163	118.656064800001	130.525303500002	13	0.65	FALSE	"[0.05925925925925926, 0.05925925925925926, 0.05925925925925926, 0.05925925925925926, 0.05925925925925926, 0.05925925925925926, 0.05925925925925926, 0.05925925925925926, 0.05925925925925926, 0.05925925925925926, 0.05925925925925926, 0.05925925925925926, 0.05925925925925926, 0.05925925925925926]"	"[-0.39166666666666666, -0.39166666666666666, -0.39166666666666666, -0.39166666666666666, -0.39166666666666666, -0.39166666666666666, -0.39166666666666666, -0.39166666666666666, -0.39166666666666666, -0.39166666666666666, -0.39166666666666666, -0.39166666666666666, -0.39166666666666666, -0.39166666666666666]"	"[1, 1, 1, 1, 1, 1, 1, 1, 1, 1, 1, 1, 1, 0]"	"[0, 0, 0, 0, 0, 0, 0, 0, 0, 0, 0, 0, 0, 0]"	"[0, 0, 0, 0, 0, 0, 0, 0, 0, 0, 0, 0, 0, 1]"	"[1.6336957000021357, 2.250584199999139, 2.7671264999989944, 3.284030700000585, 3.8673879000016314, 4.408908199999132, 5.050885600001493, 6.025691800001368, 6.759187999999995, 7.384108500002185, 8.025822600000538, 8.551133299999492, 9.435949900002015, 11.884608000000298]"	14	"[1.6305490999984613, 2.247437899997749, 2.7639861999996356, 3.2808890999986033, 3.8642524999995658, 4.405760900001042, 5.047735299998749, 6.022549199999048, 6.756042699998943, 7.380967500001134, 8.022670899998047, 8.547988700000133, 9.432968199998868, 11.881395000000339]"	"[1.7637503999976616, 2.3637806000006094, 2.8722606000010273, 3.3971970999991754, 3.997238899999502, 4.53897059999872, 5.189039099997899, 6.180748799997673, 6.914123300000938, 7.522509800000989, 8.139235099999496, 8.697569399999338, 9.564296900000045, 11.881398999998055]"	130.526082200002	130.531874900003	132.023830000002	132.040307200001	NA	NA	NA	NA	NA	NA	NA	17	"01"	"2024-02-08_13h11.28.092"	"BART_exp"	"2023.2.3"	119.938447589502	"2024-02-08 13h11.45.024163 +0100"	NA
"balloon.png"	1	0	7	7	0	132.040307200001	NA	NA	NA	NA	NA	NA	NA	NA	NA	NA	NA	NA	132.024006500003	132.040307200001	132.040307200001	132.040307200001	132.040307200001	132.040307200001	-0.00083729999823844	-0.00083729999823844	-0.00083729999823844	132.040307200001	133.5340474	2	0.05	TRUE	"[0.05925925925925926, 0.05925925925925926]"	"[-0.39166666666666666, -0.39166666666666666]"	"[1, 1]"	"[0, 0]"	"[0, 0]"	"[0.7836907999990217, 1.3672494999991613]"	2	"[0.7747877000001608, 1.3583403000011458]"	"[0.9329459000000497, 1.4920171000012488]"	133.534622500003	133.540492900003	135.032603300002	135.048893400002	NA	NA	NA	NA	NA	NA	NA	17	"01"	"2024-02-08_13h11.28.092"	"BART_exp"	"2023.2.3"	119.938447589502	"2024-02-08 13h11.45.024163 +0100"	NA
"balloon.png"	44	0	8	8	10	135.048893400002	NA	NA	NA	NA	NA	NA	NA	NA	NA	NA	NA	NA	135.032816200001	135.048893400002	135.048893400002	135.048893400002	135.048893400002	135.048893400002	-0.00044560000242199	-0.00044560000242199	-0.00044560000242199	135.048893400002	147.042897400002	14	0.7	FALSE	"[0.05925925925925926, 0.05925925925925926, 0.05925925925925926, 0.05925925925925926, 0.05925925925925926, 0.05925925925925926, 0.05925925925925926, 0.05925925925925926, 0.05925925925925926, 0.05925925925925926, 0.05925925925925926, 0.05925925925925926, 0.05925925925925926, 0.05925925925925926, 0.05925925925925926]"	"[-0.39166666666666666, -0.39166666666666666, -0.39166666666666666, -0.39166666666666666, -0.39166666666666666, -0.39166666666666666, -0.39166666666666666, -0.39166666666666666, -0.39166666666666666, -0.39166666666666666, -0.39166666666666666, -0.39166666666666666, -0.39166666666666666, -0.39166666666666666, -0.39166666666666666]"	"[1, 1, 1, 1, 1, 1, 1, 1, 1, 1, 1, 1, 1, 1, 0]"	"[0, 0, 0, 0, 0, 0, 0, 0, 0, 0, 0, 0, 0, 0, 0]"	"[0, 0, 0, 0, 0, 0, 0, 0, 0, 0, 0, 0, 0, 0, 1]"	"[0.6418320999982825, 1.5169071999989683, 2.283613499999774, 2.9005321000004187, 3.5669124999985797, 4.267131100001279, 4.983643200001097, 5.708881700000347, 6.4005660000002536, 7.13380909999978, 7.783843799999886, 8.434034300000349, 9.85919659999854, 11.075934500000585, 12.009123799998633]"	15	"[0.632110400001693, 1.5071896000008564, 2.2738921999989543, 2.890809200001968, 3.5571932999991986, 4.257412499999191, 4.973924199999601, 5.699160899999697, 6.390843600001972, 7.124090100001922, 7.774124899999151, 8.424314500000037, 9.849480299999414, 11.066215200000443, 11.999333100000513]"	"[0.765169700000115, 1.6235591000004206, 2.4319595000015397, 3.040388500001427, 3.682013100002223, 4.382101999999577, 5.083482699999877, 5.832201199998963, 6.557382700000744, 7.273932899999636, 7.907310000002326, 8.590711299999384, 9.999127300001419, 11.182559100001527, 11.999337299999752]"	147.0437289	147.049697900002	148.541729200002	148.5664646	NA	NA	NA	NA	NA	NA	NA	17	"01"	"2024-02-08_13h11.28.092"	"BART_exp"	"2023.2.3"	119.938447589502	"2024-02-08 13h11.45.024163 +0100"	NA
"balloon.png"	57	0	9	9	13	148.5664646	NA	NA	NA	NA	NA	NA	NA	NA	NA	NA	NA	NA	148.541914600002	148.5664646	148.5664646	148.5664646	148.5664646	148.5664646	-0.00053509999997913	-0.00053509999997913	-0.00053509999997913	148.5664646	162.252498700003	13	0.65	FALSE	"[0.05925925925925926, 0.05925925925925926, 0.05925925925925926, 0.05925925925925926, 0.05925925925925926, 0.05925925925925926, 0.05925925925925926, 0.05925925925925926, 0.05925925925925926, 0.05925925925925926, 0.05925925925925926, 0.05925925925925926, 0.05925925925925926, 0.05925925925925926]"	"[-0.39166666666666666, -0.39166666666666666, -0.39166666666666666, -0.39166666666666666, -0.39166666666666666, -0.39166666666666666, -0.39166666666666666, -0.39166666666666666, -0.39166666666666666, -0.39166666666666666, -0.39166666666666666, -0.39166666666666666, -0.39166666666666666, -0.39166666666666666]"	"[1, 1, 1, 1, 1, 1, 1, 1, 1, 1, 1, 1, 1, 0]"	"[0, 0, 0, 0, 0, 0, 0, 0, 0, 0, 0, 0, 0, 0]"	"[0, 0, 0, 0, 0, 0, 0, 0, 0, 0, 0, 0, 0, 1]"	"[3.425531500000943, 4.1756487999991805, 4.825552599999355, 5.4338992000011785, 6.092474900000525, 6.817313600000489, 7.459035100000619, 8.034064300001774, 8.717630400002236, 9.351185300001816, 10.00107030000072, 10.64261980000083, 11.909552900000563, 13.70962370000052]"	14	"[3.414381800001138, 4.164493399999628, 4.814390300001833, 5.422737299999426, 6.081314099999872, 6.806153900000936, 7.447876199999882, 8.022905300000275, 8.706471500001498, 9.340033200001926, 9.989915400001337, 10.631457899999077, 11.898396500000672, 13.69839679999859]"	"[3.572457800000848, 4.2810043999998015, 4.955958599999576, 5.5475705999997444, 6.255964500000118, 6.905995500001154, 7.564376400001493, 8.15781910000078, 8.864489399999002, 9.456218999999692, 10.131330299998808, 10.781297300000006, 12.048142300001928, 13.698400900000706]"	162.253274300001	162.259103600001	163.751090100002	163.775873600003	NA	NA	NA	NA	NA	NA	NA	17	"01"	"2024-02-08_13h11.28.092"	"BART_exp"	"2023.2.3"	119.938447589502	"2024-02-08 13h11.45.024163 +0100"	NA
"balloon.png"	36	0	10	10	8	163.775873600003	NA	NA	NA	NA	NA	NA	NA	NA	NA	NA	NA	NA	163.751267800002	163.775873600003	163.775873600003	163.775873600003	163.775873600003	163.775873600003	-0.00077020000026095	-0.00077020000026095	-0.00077020000026095	163.775873600003	177.353411300002	15	0.75	FALSE	"[0.05925925925925926, 0.05925925925925926, 0.05925925925925926, 0.05925925925925926, 0.05925925925925926, 0.05925925925925926, 0.05925925925925926, 0.05925925925925926, 0.05925925925925926, 0.05925925925925926, 0.05925925925925926, 0.05925925925925926, 0.05925925925925926, 0.05925925925925926, 0.05925925925925926, 0.05925925925925926]"	"[-0.39166666666666666, -0.39166666666666666, -0.39166666666666666, -0.39166666666666666, -0.39166666666666666, -0.39166666666666666, -0.39166666666666666, -0.39166666666666666, -0.39166666666666666, -0.39166666666666666, -0.39166666666666666, -0.39166666666666666, -0.39166666666666666, -0.39166666666666666, -0.39166666666666666, -0.39166666666666666]"	"[1, 1, 1, 1, 1, 1, 1, 1, 1, 1, 1, 1, 1, 1, 1, 0]"	"[0, 0, 0, 0, 0, 0, 0, 0, 0, 0, 0, 0, 0, 0, 0, 0]"	"[0, 0, 0, 0, 0, 0, 0, 0, 0, 0, 0, 0, 0, 0, 0, 1]"	"[1.2337461999995867, 1.9589089000000968, 2.7089612999989185, 3.3173490000008314, 3.875675399998727, 4.46743989999959, 5.109162500000821, 5.7091594000012265, 6.300868099999207, 6.909267200000613, 7.467579299998761, 8.067703199998505, 9.109368800000084, 9.809390700000222, 12.384460000001127, 13.601217300001736]"	16	"[1.2223926000006031, 1.9475581999977294, 2.69761010000002, 3.3059979999998177, 3.8643228999972052, 4.456093199998577, 5.097811100000399, 5.697808599998098, 6.2895212000003085, 6.8979247999996005, 7.456225699999777, 8.056353599997237, 9.098017500000424, 9.798043200000393, 12.373109599997406, 13.589800300000206]"	"[1.372191999998904, 2.0639195999974618, 2.8139446999994107, 3.4224028999997245, 4.014043200000742, 4.630738100000599, 5.255893899997318, 5.8558305999977165, 6.447527099997387, 7.03923819999909, 7.605952300000354, 8.20599299999958, 9.247744799999055, 9.922955099998944, 12.51463209999929, 13.589804499999445]"	177.354321500003	177.360208000002	178.852135800003	178.868518500003	NA	NA	NA	NA	NA	NA	NA	17	"01"	"2024-02-08_13h11.28.092"	"BART_exp"	"2023.2.3"	119.938447589502	"2024-02-08 13h11.45.024163 +0100"	NA
"balloon.png"	92	0	11	11	21	178.868518500003	NA	NA	NA	NA	NA	NA	NA	NA	NA	NA	NA	NA	178.852316400003	178.868518500003	178.868518500003	178.868518500003	178.868518500003	178.868518500003	-0.0007770000011078	-0.0007770000011078	-0.0007770000011078	178.868518500003	192.579628200001	17	0.85	FALSE	"[0.05925925925925926, 0.05925925925925926, 0.05925925925925926, 0.05925925925925926, 0.05925925925925926, 0.05925925925925926, 0.05925925925925926, 0.05925925925925926, 0.05925925925925926, 0.05925925925925926, 0.05925925925925926, 0.05925925925925926, 0.05925925925925926, 0.05925925925925926, 0.05925925925925926, 0.05925925925925926, 0.05925925925925926, 0.05925925925925926]"	"[-0.39166666666666666, -0.39166666666666666, -0.39166666666666666, -0.39166666666666666, -0.39166666666666666, -0.39166666666666666, -0.39166666666666666, -0.39166666666666666, -0.39166666666666666, -0.39166666666666666, -0.39166666666666666, -0.39166666666666666, -0.39166666666666666, -0.39166666666666666, -0.39166666666666666, -0.39166666666666666, -0.39166666666666666, -0.39166666666666666]"	"[1, 1, 1, 1, 1, 1, 1, 1, 1, 1, 1, 1, 1, 1, 1, 1, 1, 0]"	"[0, 0, 0, 0, 0, 0, 0, 0, 0, 0, 0, 0, 0, 0, 0, 0, 0, 0]"	"[0, 0, 0, 0, 0, 0, 0, 0, 0, 0, 0, 0, 0, 0, 0, 0, 0, 1]"	"[1.7603170000002137, 2.32543269999951, 2.9089359999998123, 3.4672084000012546, 4.050587199999427, 4.59249550000095, 5.18422229999851, 5.667363399999886, 6.284076600000844, 6.8674265000008745, 7.542841800001042, 8.142655700001342, 8.759399200000189, 9.434302999998181, 10.117675299999974, 10.801233400001365, 12.943177099998138, 13.726400799998373]"	18	"[1.7502284000001964, 2.315168500001164, 2.8986863999998604, 3.456947800001217, 4.0403247000031115, 4.5822361999998975, 5.173966199999995, 5.657100000000355, 6.273814200001652, 6.8571621000010055, 7.5325889000014286, 8.132395800002996, 8.749138400002266, 9.424042200000258, 10.107414100002643, 10.79097610000099, 12.932920700000977, 13.716077700002643]"	"[1.9150423999999475, 2.42345159999968, 3.0401400000009744, 3.581808800001454, 4.18187410000246, 4.715374900002644, 5.306946400000015, 5.815293999999994, 6.4404128000023775, 7.0237100000013015, 7.673764700000902, 8.290489200000593, 8.907253400000627, 9.58225289999973, 10.257275400002982, 10.948977200001536, 13.099142000002757, 13.71608180000112]"	192.580659900003	192.586233900001	194.078217600003	194.094724300001	NA	NA	NA	NA	NA	NA	NA	17	"01"	"2024-02-08_13h11.28.092"	"BART_exp"	"2023.2.3"	119.938447589502	"2024-02-08 13h11.45.024163 +0100"	NA
"balloon.png"	31	0	12	12	7	194.094724300001	NA	NA	NA	NA	NA	NA	NA	NA	NA	NA	NA	NA	194.078393000003	194.094724300001	194.094724300001	194.094724300001	194.094724300001	194.094724300001	-0.00097200000163866	-0.00097200000163866	-0.00097200000163866	194.094724300001	207.355675600003	17	0.85	FALSE	"[0.05925925925925926, 0.05925925925925926, 0.05925925925925926, 0.05925925925925926, 0.05925925925925926, 0.05925925925925926, 0.05925925925925926, 0.05925925925925926, 0.05925925925925926, 0.05925925925925926, 0.05925925925925926, 0.05925925925925926, 0.05925925925925926, 0.05925925925925926, 0.05925925925925926, 0.05925925925925926, 0.05925925925925926, 0.05925925925925926]"	"[-0.39166666666666666, -0.39166666666666666, -0.39166666666666666, -0.39166666666666666, -0.39166666666666666, -0.39166666666666666, -0.39166666666666666, -0.39166666666666666, -0.39166666666666666, -0.39166666666666666, -0.39166666666666666, -0.39166666666666666, -0.39166666666666666, -0.39166666666666666, -0.39166666666666666, -0.39166666666666666, -0.39166666666666666, -0.39166666666666666]"	"[1, 1, 1, 1, 1, 1, 1, 1, 1, 1, 1, 1, 1, 1, 1, 1, 1, 0]"	"[0, 0, 0, 0, 0, 0, 0, 0, 0, 0, 0, 0, 0, 0, 0, 0, 0, 0]"	"[0, 0, 0, 0, 0, 0, 0, 0, 0, 0, 0, 0, 0, 0, 0, 0, 0, 1]"	"[1.9422142000003078, 2.4756501999981992, 3.0338092999991204, 3.5921902999980375, 4.125926799999434, 4.717518699999346, 5.325928800000838, 5.96750659999816, 6.550921999998536, 7.159370299999864, 7.742629399999714, 8.309349299997848, 8.951125699997647, 9.634280599999329, 10.242713199997524, 10.842705200000637, 11.576246699998592, 13.276359299998148]"	18	"[1.9377804000032484, 2.4712106000006315, 3.02937060000113, 3.5877482000032614, 4.121500900000683, 4.713099600001442, 5.321491300001071, 5.963075200001185, 6.546492400000716, 7.154944200003229, 7.738193299999693, 8.304914899999858, 8.94669100000101, 9.62984040000083, 10.238274600000295, 10.8382672000007, 11.571812900001532, 13.271854500002519]"	"[2.070901300001424, 2.6042120000020077, 3.1960056999996596, 3.696154100001877, 4.2293131000005815, 4.8461101000029885, 5.437752400001045, 6.121205100000225, 6.712832000001072, 7.2962272000004305, 7.904594400002679, 8.463070800000423, 9.113039600000775, 9.7963570000029, 10.388151800001651, 10.988225700002658, 11.73817340000096, 13.271858500000235]"	207.356571600001	207.362277400003	208.854244000002	208.870715200002	NA	NA	NA	NA	NA	NA	NA	17	"01"	"2024-02-08_13h11.28.092"	"BART_exp"	"2023.2.3"	119.938447589502	"2024-02-08 13h11.45.024163 +0100"	NA
"balloon.png"	71	0	13	13	16	208.870715200002	NA	NA	NA	NA	NA	NA	NA	NA	NA	NA	NA	NA	208.854425000001	208.870715200002	208.870715200002	208.870715200002	208.870715200002	208.870715200002	-0.00091790000078617	-0.00091790000078617	-0.00091790000078617	208.870715200002	228.6903552	19	0.95	FALSE	"[0.05925925925925926, 0.05925925925925926, 0.05925925925925926, 0.05925925925925926, 0.05925925925925926, 0.05925925925925926, 0.05925925925925926, 0.05925925925925926, 0.05925925925925926, 0.05925925925925926, 0.05925925925925926, 0.05925925925925926, 0.05925925925925926, 0.05925925925925926, 0.05925925925925926, 0.05925925925925926, 0.05925925925925926, 0.05925925925925926, 0.05925925925925926, 0.05925925925925926]"	"[-0.39166666666666666, -0.39351851851851855, -0.39351851851851855, -0.39351851851851855, -0.39351851851851855, -0.39351851851851855, -0.39351851851851855, -0.39351851851851855, -0.39351851851851855, -0.39351851851851855, -0.39351851851851855, -0.39351851851851855, -0.39351851851851855, -0.39351851851851855, -0.39351851851851855, -0.39351851851851855, -0.39351851851851855, -0.39351851851851855, -0.39351851851851855, -0.39351851851851855]"	"[1, 1, 1, 1, 1, 1, 1, 1, 1, 1, 1, 1, 1, 1, 1, 1, 1, 1, 1, 0]"	"[0, 0, 0, 0, 0, 0, 0, 0, 0, 0, 0, 0, 0, 0, 0, 0, 0, 0, 0, 0]"	"[0, 0, 0, 0, 0, 0, 0, 0, 0, 0, 0, 0, 0, 0, 0, 0, 0, 0, 0, 1]"	"[1.5506276999985857, 2.175643599999603, 2.858856700000615, 3.5008440999990853, 4.127148199997464, 4.759113299998717, 5.384165199997369, 6.059054800000013, 6.734327899997879, 7.3924950000000536, 8.11770389999947, 8.75116479999997, 9.442623200000526, 10.15952180000022, 10.992923599998903, 11.792816599998332, 14.46809790000043, 16.10169269999824, 18.310093799998867, 19.83503980000023]"	20	"[1.5423679999985325, 2.1673765999985335, 2.8505928000013228, 3.492578199999116, 4.119056799998361, 4.750837799998408, 5.375896800000191, 6.050784600000043, 6.726054400001885, 7.384226999998646, 8.109436200000346, 8.742893599999661, 9.434348999999202, 10.15125210000042, 10.98465589999978, 11.784542299999885, 14.459827999999106, 16.09342480000123, 18.301825200000167, 19.826711500001693]"	"[1.6837118000003102, 2.3170705000011367, 2.9754513000007137, 3.63377219999893, 4.242171500001859, 4.908852900000056, 5.567268200000399, 6.217325900001015, 6.884026899999299, 7.550723899999866, 8.250764699998399, 8.892492399998446, 9.584207899999456, 10.301160200000595, 11.151006500000221, 11.951037999999244, 14.609590500000195, 16.251347400000668, 18.451545600000827, 19.826715899998817]"	228.6915047	228.6971744	230.189116600002	230.205545000001	NA	NA	NA	NA	NA	NA	NA	17	"01"	"2024-02-08_13h11.28.092"	"BART_exp"	"2023.2.3"	119.938447589502	"2024-02-08 13h11.45.024163 +0100"	NA
"balloon.png"	49	0	14	14	11	230.205545000001	NA	NA	NA	NA	NA	NA	NA	NA	NA	NA	NA	NA	230.189300600003	230.205545000001	230.205545000001	230.205545000001	230.205545000001	230.205545000001	-0.00094199999875854	-0.00094199999875854	-0.00094199999875854	230.205545000001	248.825071200001	19	0.95	FALSE	"[0.058333333333333334, 0.058333333333333334, 0.058333333333333334, 0.058333333333333334, 0.058333333333333334, 0.058333333333333334, 0.058333333333333334, 0.058333333333333334, 0.058333333333333334, 0.058333333333333334, 0.058333333333333334, 0.058333333333333334, 0.058333333333333334, 0.058333333333333334, 0.058333333333333334, 0.058333333333333334, 0.058333333333333334, 0.058333333333333334, 0.058333333333333334, 0.058333333333333334]"	"[-0.39537037037037037, -0.39537037037037037, -0.39537037037037037, -0.39537037037037037, -0.39537037037037037, -0.39537037037037037, -0.39537037037037037, -0.39537037037037037, -0.39537037037037037, -0.39537037037037037, -0.39537037037037037, -0.39537037037037037, -0.39537037037037037, -0.39537037037037037, -0.39537037037037037, -0.39537037037037037, -0.39537037037037037, -0.39537037037037037, -0.39537037037037037, -0.39537037037037037]"	"[1, 1, 1, 1, 1, 1, 1, 1, 1, 1, 1, 1, 1, 1, 1, 1, 1, 1, 1, 0]"	"[0, 0, 0, 0, 0, 0, 0, 0, 0, 0, 0, 0, 0, 0, 0, 0, 0, 0, 0, 0]"	"[0, 0, 0, 0, 0, 0, 0, 0, 0, 0, 0, 0, 0, 0, 0, 0, 0, 0, 0, 1]"	"[2.308839599998464, 3.1172031999994942, 3.825487099999009, 4.417238999998517, 5.017393599999195, 5.658945099999983, 6.31752459999916, 7.050806899998861, 7.775924800000212, 8.55935049999971, 9.317749800000456, 10.017590200000996, 10.70098549999966, 11.467735499998525, 12.294250899998588, 13.176320399998076, 14.351488100001006, 15.234688699998514, 16.926572600001236, 18.634849699999904]"	20	"[2.30520080000133, 3.113563900002191, 3.8218464000019594, 4.413605800000369, 5.0137493000002, 5.655304400002933, 6.313881500002026, 7.047167800003081, 7.7722833000007086, 8.55570920000173, 9.314106500001799, 10.013949800002592, 10.697341400002188, 11.464094300001307, 12.290777800000797, 13.172686199999589, 14.347850000001927, 15.231051700000535, 16.922927999999956, 18.63114040000073]"	"[2.4549584000014875, 3.246701700001722, 3.9550264999998035, 4.513398099999904, 5.146795800003019, 5.788676600001054, 6.4469035000001895, 7.238636600002792, 7.938666699999885, 8.730383800000709, 9.472188900002948, 10.147277100000792, 10.830508000002737, 11.572230300000228, 12.447333800002525, 13.28069239999968, 14.489205000001675, 15.380833500003064, 17.12265540000226, 18.631144500002847]"	248.826086300003	248.831856100001	250.323913200002	250.340299000003	NA	NA	NA	NA	NA	NA	NA	17	"01"	"2024-02-08_13h11.28.092"	"BART_exp"	"2023.2.3"	119.938447589502	"2024-02-08 13h11.45.024163 +0100"	NA
"balloon.png"	53	0	15	15	12	250.340299000003	NA	NA	NA	NA	NA	NA	NA	NA	NA	NA	NA	NA	250.324097700002	250.340299000003	250.340299000003	250.340299000003	250.340299000003	250.340299000003	-0.00074409999797353	-0.00074409999797353	-0.00074409999797353	250.340299000003	267.651541800002	23	1.15	FALSE	"[0.058333333333333334, 0.058333333333333334, 0.058333333333333334, 0.058333333333333334, 0.058333333333333334, 0.058333333333333334, 0.058333333333333334, 0.058333333333333334, 0.058333333333333334, 0.058333333333333334, 0.058333333333333334, 0.058333333333333334, 0.058333333333333334, 0.058333333333333334, 0.058333333333333334, 0.058333333333333334, 0.058333333333333334, 0.058333333333333334, 0.058333333333333334, 0.058333333333333334, 0.058333333333333334, 0.058333333333333334, 0.058333333333333334, 0.058333333333333334]"	"[-0.39537037037037037, -0.39537037037037037, -0.39537037037037037, -0.39537037037037037, -0.39537037037037037, -0.39537037037037037, -0.39537037037037037, -0.39537037037037037, -0.39537037037037037, -0.39537037037037037, -0.39537037037037037, -0.39537037037037037, -0.39537037037037037, -0.39537037037037037, -0.39537037037037037, -0.39537037037037037, -0.39537037037037037, -0.39537037037037037, -0.39537037037037037, -0.39537037037037037, -0.39537037037037037, -0.39537037037037037, -0.39537037037037037, -0.39537037037037037]"	"[1, 1, 1, 1, 1, 1, 1, 1, 1, 1, 1, 1, 1, 1, 1, 1, 1, 1, 1, 1, 1, 1, 1, 0]"	"[0, 0, 0, 0, 0, 0, 0, 0, 0, 0, 0, 0, 0, 0, 0, 0, 0, 0, 0, 0, 0, 0, 0, 0]"	"[0, 0, 0, 0, 0, 0, 0, 0, 0, 0, 0, 0, 0, 0, 0, 0, 0, 0, 0, 0, 0, 0, 0, 1]"	"[0.8919263999996474, 1.475305899999512, 1.9838313999971433, 2.4671180000004824, 3.0837556999977096, 3.7087866999972903, 4.308838999997533, 4.9182646999979625, 5.617417199999181, 6.234133599999041, 6.850847099998646, 7.442546199999924, 8.125872799999343, 8.759337100000266, 9.467527499997232, 10.100931799999671, 10.7343086999972, 11.317758900000626, 11.951178399998753, 12.592965699997876, 14.059731999997894, 15.159788699998899, 15.926384399997914, 17.326535099997272]"	24	"[0.8832035999985237, 1.466581299999234, 1.9751093999984732, 2.4583896000003733, 3.075032900000224, 3.700063100000989, 4.300116899998102, 4.909708999999566, 5.608694999998988, 6.225408800000878, 6.842126799998368, 7.433823300001677, 8.117150300000503, 8.750610300001426, 9.458800600001268, 10.092207699999562, 10.725586500000645, 11.309032099998149, 11.942453799998475, 12.584245400001237, 14.051009800001339, 15.151064000001497, 15.917657699999836, 17.31774249999944]"	"[1.058113899998716, 1.616492199998902, 2.0915367000015976, 2.583170900001278, 3.2333018999997876, 3.8166636999994807, 4.4166279999990365, 5.041813499999989, 5.725279400001455, 6.3834246000005805, 6.966843599999265, 7.575194299999566, 8.225220000000263, 8.891954700000497, 9.63365469999917, 10.225359000000026, 10.858784100000776, 11.492115699998976, 12.10051200000089, 12.717341600000509, 14.242340500000864, 15.300844599998527, 16.08409920000122, 17.31774669999868]"	267.6525569	267.658188600002	269.1501656	269.166618500003	NA	NA	NA	NA	NA	NA	NA	17	"01"	"2024-02-08_13h11.28.092"	"BART_exp"	"2023.2.3"	119.938447589502	"2024-02-08 13h11.45.024163 +0100"	NA
"balloon.png"	127	0	16	16	29	269.166618500003	NA	NA	NA	NA	NA	NA	NA	NA	NA	NA	NA	NA	269.150344600002	269.166618500003	269.166618500003	269.166618500003	269.166618500003	269.166618500003	-0.00094410000019706	-0.00094410000019706	-0.00094410000019706	269.166618500003	296.528500300003	39	1.95	FALSE	"[0.058333333333333334, 0.058333333333333334, 0.058333333333333334, 0.058333333333333334, 0.058333333333333334, 0.058333333333333334, 0.058333333333333334, 0.058333333333333334, 0.058333333333333334, 0.058333333333333334, 0.058333333333333334, 0.058333333333333334, 0.058333333333333334, 0.058333333333333334, 0.058333333333333334, 0.058333333333333334, 0.058333333333333334, 0.058333333333333334, 0.058333333333333334, 0.058333333333333334, 0.058333333333333334, 0.058333333333333334, 0.058333333333333334, 0.058333333333333334, 0.058333333333333334, 0.058333333333333334, 0.058333333333333334, 0.058333333333333334, 0.058333333333333334, 0.058333333333333334, 0.058333333333333334, 0.058333333333333334, 0.058333333333333334, 0.058333333333333334, 0.058333333333333334, 0.058333333333333334, 0.058333333333333334, 0.058333333333333334, 0.058333333333333334, 0.058333333333333334]"	"[-0.39537037037037037, -0.39537037037037037, -0.39537037037037037, -0.39537037037037037, -0.39537037037037037, -0.39537037037037037, -0.39537037037037037, -0.39537037037037037, -0.39537037037037037, -0.39537037037037037, -0.39537037037037037, -0.39537037037037037, -0.39537037037037037, -0.39537037037037037, -0.39537037037037037, -0.39537037037037037, -0.39537037037037037, -0.39537037037037037, -0.39537037037037037, -0.39537037037037037, -0.39537037037037037, -0.39537037037037037, -0.39537037037037037, -0.39537037037037037, -0.39537037037037037, -0.39537037037037037, -0.39537037037037037, -0.39537037037037037, -0.39537037037037037, -0.39537037037037037, -0.39537037037037037, -0.39537037037037037, -0.39537037037037037, -0.39537037037037037, -0.39537037037037037, -0.39537037037037037, -0.39537037037037037, -0.39537037037037037, -0.39537037037037037, -0.39537037037037037]"	"[1, 1, 1, 1, 1, 1, 1, 1, 1, 1, 1, 1, 1, 1, 1, 1, 1, 1, 1, 1, 1, 1, 1, 1, 1, 1, 1, 1, 1, 1, 1, 1, 1, 1, 1, 1, 1, 1, 1, 0]"	"[0, 0, 0, 0, 0, 0, 0, 0, 0, 0, 0, 0, 0, 0, 0, 0, 0, 0, 0, 0, 0, 0, 0, 0, 0, 0, 0, 0, 0, 0, 0, 0, 0, 0, 0, 0, 0, 0, 0, 0]"	"[0, 0, 0, 0, 0, 0, 0, 0, 0, 0, 0, 0, 0, 0, 0, 0, 0, 0, 0, 0, 0, 0, 0, 0, 0, 0, 0, 0, 0, 0, 0, 0, 0, 0, 0, 0, 0, 0, 0, 1]"	"[0.7087762999981351, 1.2586695999998483, 1.8253740999971342, 2.4006233000000066, 3.058783399999811, 3.7506689000001643, 4.408934299997782, 5.083965199999511, 5.709253899996838, 6.342532499998924, 6.9343233999970835, 7.567443899999489, 8.142641399997956, 8.701005599999917, 9.334392499997193, 9.951116199998069, 10.600997499997902, 11.284559699997772, 11.926253499997983, 12.55966780000017, 13.276348899998993, 14.151432699996803, 14.926454499996908, 15.543180999997276, 16.143272499997693, 16.74324869999691, 17.35162819999823, 18.101695800000016, 18.793265899999824, 19.47678299999825, 20.251696100000117, 20.92688889999772, 21.568444499996986, 22.268755999997666, 22.952146899999207, 23.685373999996955, 24.51046999999744, 25.135499699998036, 25.968778700000257, 27.37723179999739]"	40	"[0.706463899998198, 1.2563497000010102, 1.8230550000007497, 2.3983081999977003, 3.0564740000008896, 3.748355299998366, 4.4066166000011435, 5.073344399999769, 5.7069367000003695, 6.340213399998902, 6.93202029999884, 7.565124299999297, 8.140322100000049, 8.698693399997865, 9.332079100000556, 9.9487979000005, 10.59868009999991, 11.282240799999272, 11.923936899998807, 12.557351299998118, 13.274036700000579, 14.149118299999827, 14.924140099999931, 15.540868100000807, 16.1409605000008, 16.74093290000019, 17.349310599998716, 18.099383199998556, 18.790950300000986, 19.474470299999666, 20.249383999998827, 20.924577499998122, 21.566132600000856, 22.266441199997644, 22.949835499999608, 23.6830587000004, 24.50817520000055, 25.133179799999198, 25.96645879999778, 27.374846999999136]"	"[0.8145327999991423, 1.3895453000004636, 1.9812706999982765, 2.581347999999707, 3.214659400000528, 3.9063913999998476, 4.5647604999976465, 5.198133300000336, 5.864873599999555, 6.46488859999954, 7.081636799997796, 7.698327499998413, 8.315025899999455, 8.898452299999917, 9.498546499999065, 10.10682050000105, 10.773532200000773, 11.390244899997924, 12.065326100000675, 12.706997199999023, 13.415375399999903, 14.290442800000164, 15.082162499998958, 15.707196100000147, 16.298945399998047, 16.882301499997993, 17.52403839999897, 18.25737930000105, 18.965787299999647, 19.674147800000355, 20.43273969999791, 21.090927799999918, 21.75766939999812, 22.416011199999048, 23.082747299999028, 23.857809000000998, 24.65784369999892, 25.274570599998697, 26.133015100000193, 27.374851099997613]"	296.529859100003	296.535232500002	298.027178900003	298.035395000003	NA	NA	NA	NA	NA	NA	NA	17	"01"	"2024-02-08_13h11.28.092"	"BART_exp"	"2023.2.3"	119.938447589502	"2024-02-08 13h11.45.024163 +0100"	NA
"balloon.png"	66	0	17	17	15	298.035395000003	NA	NA	NA	NA	NA	NA	NA	NA	NA	NA	NA	NA	298.027360100001	298.035395000003	298.035395000003	298.035395000003	298.035395000003	298.035395000003	0.00559810000049765	0.00559810000049765	0.00559810000049765	298.035395000003	331.147658200003	45	2.25	FALSE	"[0.058333333333333334, 0.058333333333333334, 0.058333333333333334, 0.058333333333333334, 0.058333333333333334, 0.058333333333333334, 0.058333333333333334, 0.058333333333333334, 0.058333333333333334, 0.058333333333333334, 0.058333333333333334, 0.058333333333333334, 0.058333333333333334, 0.058333333333333334, 0.058333333333333334, 0.058333333333333334, 0.058333333333333334, 0.058333333333333334, 0.058333333333333334, 0.058333333333333334, 0.058333333333333334, 0.058333333333333334, 0.058333333333333334, 0.058333333333333334, 0.058333333333333334, 0.058333333333333334, 0.058333333333333334, 0.058333333333333334, 0.058333333333333334, 0.058333333333333334, 0.058333333333333334, 0.058333333333333334, 0.058333333333333334, 0.058333333333333334, 0.058333333333333334, 0.058333333333333334, 0.058333333333333334, 0.058333333333333334, 0.058333333333333334, 0.058333333333333334, 0.058333333333333334, 0.058333333333333334, 0.058333333333333334, 0.058333333333333334, 0.058333333333333334, 0.058333333333333334]"	"[-0.39537037037037037, -0.39537037037037037, -0.39537037037037037, -0.39537037037037037, -0.39537037037037037, -0.39537037037037037, -0.39537037037037037, -0.39537037037037037, -0.39537037037037037, -0.39537037037037037, -0.39537037037037037, -0.39537037037037037, -0.39537037037037037, -0.39537037037037037, -0.39537037037037037, -0.39537037037037037, -0.39537037037037037, -0.39537037037037037, -0.39537037037037037, -0.39537037037037037, -0.39537037037037037, -0.39537037037037037, -0.39537037037037037, -0.39537037037037037, -0.39537037037037037, -0.39537037037037037, -0.39537037037037037, -0.39537037037037037, -0.39537037037037037, -0.39537037037037037, -0.39537037037037037, -0.39537037037037037, -0.39537037037037037, -0.39537037037037037, -0.39537037037037037, -0.39537037037037037, -0.39537037037037037, -0.39537037037037037, -0.39537037037037037, -0.39537037037037037, -0.39537037037037037, -0.39537037037037037, -0.39537037037037037, -0.39537037037037037, -0.39537037037037037, -0.39537037037037037]"	"[1, 1, 1, 1, 1, 1, 1, 1, 1, 1, 1, 1, 1, 1, 1, 1, 1, 1, 1, 1, 1, 1, 1, 1, 1, 1, 1, 1, 1, 1, 1, 1, 1, 1, 1, 1, 1, 1, 1, 1, 1, 1, 1, 1, 1, 0]"	"[0, 0, 0, 0, 0, 0, 0, 0, 0, 0, 0, 0, 0, 0, 0, 0, 0, 0, 0, 0, 0, 0, 0, 0, 0, 0, 0, 0, 0, 0, 0, 0, 0, 0, 0, 0, 0, 0, 0, 0, 0, 0, 0, 0, 0, 0]"	"[0, 0, 0, 0, 0, 0, 0, 0, 0, 0, 0, 0, 0, 0, 0, 0, 0, 0, 0, 0, 0, 0, 0, 0, 0, 0, 0, 0, 0, 0, 0, 0, 0, 0, 0, 0, 0, 0, 0, 0, 0, 0, 0, 0, 0, 1]"	"[1.617237300000852, 2.2673585999982606, 2.8089837999978045, 3.409017499998299, 4.033897599998454, 4.717278799998894, 5.359254799997871, 5.975847999998223, 6.6093273000005865, 7.200949099998979, 7.784347900000284, 8.38435969999773, 8.959444100000837, 9.534279399998923, 10.159571799998957, 10.826261700000032, 11.392913600000611, 11.951101999999082, 12.509482800000114, 13.101195499999449, 13.651561599999695, 14.26797539999825, 14.867990099999588, 15.443195199997717, 16.026606999999785, 16.709809799998766, 17.48497249999855, 18.1182117999997, 18.64327200000116, 19.201794699998572, 19.81850719999784, 21.49345049999829, 21.818482599999697, 22.718668599998637, 23.693610700000136, 24.352133100001083, 25.768924199997855, 26.369059799999377, 27.093842800000857, 27.627219300000434, 28.268934899999294, 29.410852400000294, 29.969206900001154, 30.55265750000035, 31.352646299998014, 33.11938939999891]"	46	"[1.61534649999885, 2.2654686999994738, 2.8070916999968176, 3.407120500000019, 4.032004499997129, 4.715382299997145, 5.357361299997137, 5.973955499997828, 6.607438499999262, 7.199053999996977, 7.782452999999805, 8.382469999996829, 8.957548099999258, 9.532393599998613, 10.157688499999495, 10.824366199998622, 11.391020899998693, 11.949206699999195, 12.507587199997943, 13.099297199998546, 13.649669899998116, 14.266079199998785, 14.866095999997924, 15.44130419999783, 16.024709299999813, 16.692977299997438, 17.483085399999254, 18.116319699998712, 18.64137469999696, 19.199896199999785, 19.81661299999905, 21.49155449999671, 21.81658939999761, 22.716773000000103, 23.69171429999915, 24.35024109999722, 25.76703169999746, 26.367168499997206, 27.091943999999785, 27.625326599998516, 28.267038499998307, 29.408956399998715, 29.96730949999983, 30.550767199998518, 31.350750899997365, 33.11743009999918]"	"[1.7566845000001194, 2.4067849999992177, 2.956935700000031, 3.56534389999797, 4.198535099996661, 4.881944199998543, 5.531956299997546, 6.1403513999975985, 6.782033599996794, 7.3657987999977195, 7.973800799998571, 8.557237999997596, 9.140569099999993, 9.723942999997234, 10.340610899998865, 11.02409869999974, 11.54904329999772, 12.099152599999798, 12.674238899999182, 13.257489999999962, 13.807540699999663, 14.391026699999202, 14.982633599996916, 15.616015399999014, 16.17436219999945, 16.849421499999153, 17.632858099997975, 18.274509699996997, 18.791209099999833, 19.35811289999765, 19.966282199999114, 21.649833399998897, 21.924770099998568, 22.87487489999694, 23.85830039999928, 24.508318000000145, 25.916762599998037, 26.48339869999836, 27.225159599998733, 27.766875999997865, 28.43374689999837, 29.575311199998396, 30.125349399997503, 30.717096099997434, 31.52543799999694, 33.1174340999969]"	331.149052000001	331.154239500003	332.646310200002	332.654445700002	NA	NA	NA	NA	NA	NA	NA	17	"01"	"2024-02-08_13h11.28.092"	"BART_exp"	"2023.2.3"	119.938447589502	"2024-02-08 13h11.45.024163 +0100"	NA
"balloon.png"	5	0	18	18	1	332.654445700002	NA	NA	NA	NA	NA	NA	NA	NA	NA	NA	NA	NA	332.6464873	332.654445700002	332.654445700002	332.654445700002	332.654445700002	332.654445700002	0.00545389999751932	0.00545389999751932	0.00545389999751932	332.654445700002	338.165133300001	6	0.25	TRUE	"[0.05740740740740741, 0.05740740740740741, 0.05740740740740741, 0.05740740740740741, 0.05740740740740741, 0.05740740740740741]"	"[-0.3962962962962963, -0.3962962962962963, -0.3962962962962963, -0.3962962962962963, -0.3962962962962963, -0.3962962962962963]"	"[1, 1, 1, 1, 1, 1]"	"[0, 0, 0, 0, 0, 0]"	"[0, 0, 0, 0, 0, 0]"	"[2.9256459999996878, 3.417182099998172, 3.883920799999032, 4.325704399998358, 4.8339257999978145, 5.367501499997161]"	6	"[2.923800599997776, 3.415332299999136, 3.8820710999971197, 4.323852399997122, 4.832072199998947, 5.365651099997194]"	"[3.057007799998246, 3.5652329999975336, 4.006883699999889, 4.432018799998332, 4.998599799997464, 5.506978399997024]"	338.165782300002	338.171487400003	339.663431500001	339.679954300002	NA	NA	NA	NA	NA	NA	NA	17	"01"	"2024-02-08_13h11.28.092"	"BART_exp"	"2023.2.3"	119.938447589502	"2024-02-08 13h11.45.024163 +0100"	NA
"balloon.png"	18	0	19	19	4	339.679954300002	NA	NA	NA	NA	NA	NA	NA	NA	NA	NA	NA	NA	339.663611700002	339.679954300002	339.679954300002	339.679954300002	339.679954300002	339.679954300002	-0.00089519999892218	-0.00089519999892218	-0.00089519999892218	339.679954300002	351.507639000003	19	0.9	TRUE	"[0.05740740740740741, 0.05740740740740741, 0.05740740740740741, 0.05740740740740741, 0.05740740740740741, 0.05740740740740741, 0.05740740740740741, 0.05740740740740741, 0.05740740740740741, 0.05740740740740741, 0.05740740740740741, 0.05740740740740741, 0.05740740740740741, 0.05740740740740741, 0.05740740740740741, 0.05740740740740741, 0.05740740740740741, 0.05740740740740741, 0.05740740740740741]"	"[-0.3962962962962963, -0.3962962962962963, -0.3962962962962963, -0.3962962962962963, -0.3962962962962963, -0.3962962962962963, -0.3962962962962963, -0.3962962962962963, -0.3962962962962963, -0.3962962962962963, -0.3962962962962963, -0.3962962962962963, -0.3962962962962963, -0.3962962962962963, -0.3962962962962963, -0.3962962962962963, -0.3962962962962963, -0.3962962962962963, -0.3962962962962963]"	"[1, 1, 1, 1, 1, 1, 1, 1, 1, 1, 1, 1, 1, 1, 1, 1, 1, 1, 1]"	"[0, 0, 0, 0, 0, 0, 0, 0, 0, 0, 0, 0, 0, 0, 0, 0, 0, 0, 0]"	"[0, 0, 0, 0, 0, 0, 0, 0, 0, 0, 0, 0, 0, 0, 0, 0, 0, 0, 0]"	"[1.608936700002232, 2.1506627000017033, 2.70902290000231, 3.217227400000411, 3.750814099999843, 4.275803700002143, 4.800721200001135, 5.359225400003197, 5.900942700001906, 6.476062000001548, 7.0676604000000225, 7.6341776000008394, 8.242673800003104, 8.80097840000235, 9.31777560000046, 9.884523600001557, 10.492883400002029, 11.076348800001142, 11.642921500002558]"	19	"[1.5995308000019577, 2.141247999999905, 2.6996180999994976, 3.2078170999993745, 3.7414097000000766, 4.266398700001446, 4.791310699998576, 5.349809600000299, 5.891528399999515, 6.466649900001357, 7.058243200001016, 7.62476020000031, 8.233259199998429, 8.791560699999536, 9.308364000000438, 9.875113099998998, 10.48347880000074, 11.066937300001882, 11.633507300000929]"	"[1.7659552000004624, 2.2992459000015515, 2.8659941000005347, 3.3659657999996853, 3.882684899999731, 4.416084500000579, 4.949408600001334, 5.482782700000826, 6.057833599999867, 6.608102999998664, 7.21637180000107, 7.782956800001557, 8.34131079999861, 8.849678499998845, 9.441594600000826, 10.01644419999866, 10.641478400000778, 11.241519999999582, 11.824909899998602]"	351.508505700003	351.514087200001	353.0060567	353.014194400002	NA	NA	NA	NA	NA	NA	NA	17	"01"	"2024-02-08_13h11.28.092"	"BART_exp"	"2023.2.3"	119.938447589502	"2024-02-08 13h11.45.024163 +0100"	NA
"balloon.png"	23	0	20	20	5	353.014194400002	NA	NA	NA	NA	NA	NA	NA	NA	NA	NA	NA	NA	353.006233100001	353.014194400002	353.014194400002	353.014194400002	353.014194400002	353.014194400002	0.00574699999924632	NA	NA	353.014194400002	369.133990500002	24	1.15	TRUE	"[0.05740740740740741, 0.05740740740740741, 0.05740740740740741, 0.05740740740740741, 0.05740740740740741, 0.05740740740740741, 0.05740740740740741, 0.05740740740740741, 0.05740740740740741, 0.05740740740740741, 0.05740740740740741, 0.05740740740740741, 0.05740740740740741, 0.05740740740740741, 0.05740740740740741, 0.05740740740740741, 0.05740740740740741, 0.05740740740740741, 0.05740740740740741, 0.05740740740740741, 0.05740740740740741, 0.05740740740740741, 0.05740740740740741, 0.05740740740740741]"	"[-0.3962962962962963, -0.3962962962962963, -0.3962962962962963, -0.3962962962962963, -0.3962962962962963, -0.3962962962962963, -0.3962962962962963, -0.3962962962962963, -0.3962962962962963, -0.3962962962962963, -0.3962962962962963, -0.3962962962962963, -0.3962962962962963, -0.3962962962962963, -0.3962962962962963, -0.3962962962962963, -0.3962962962962963, -0.3962962962962963, -0.3962962962962963, -0.3962962962962963, -0.3962962962962963, -0.3962962962962963, -0.3962962962962963, -0.3962962962962963]"	"[1, 1, 1, 1, 1, 1, 1, 1, 1, 1, 1, 1, 1, 1, 1, 1, 1, 1, 1, 1, 1, 1, 1, 1]"	"[0, 0, 0, 0, 0, 0, 0, 0, 0, 0, 0, 0, 0, 0, 0, 0, 0, 0, 0, 0, 0, 0, 0, 0]"	"[0, 0, 0, 0, 0, 0, 0, 0, 0, 0, 0, 0, 0, 0, 0, 0, 0, 0, 0, 0, 0, 0, 0, 0]"	"[1.4753866999999445, 2.150653599997895, 2.7590586000005715, 3.4008332999983395, 4.025558799999999, 4.70085239999753, 5.408998899998551, 6.034098799998901, 6.676076699997793, 7.2758041999986744, 7.9426776000000245, 8.592707399999199, 9.20093039999847, 9.78456119999828, 10.334522499997547, 10.88439229999858, 11.492940399999497, 12.18451819999973, 12.876391099998727, 13.526924199999485, 14.15978719999839, 14.776435100000526, 15.409733099997538, 15.96966859999884]"	24	"[1.4735021000014967, 2.148772199998348, 2.7571773000017856, 3.398957599998539, 4.023671599999943, 4.698971099998744, 5.407118700000865, 6.032219400000031, 6.674200699999346, 7.273924799999804, 7.940797700000985, 8.590820699999313, 9.199046099998668, 9.782684900001186, 10.332646200000454, 10.882508700000471, 11.49105789999885, 12.182632299998659, 12.874512999998842, 13.52520640000148, 14.157904700001382, 14.774559299999964, 15.40785980000146, 15.967938999998296]"	"[1.6734037999995053, 2.2984318000017083, 2.8901200000000244, 3.515164199998253, 4.1735547999996925, 4.906932900001266, 5.590403700000024, 6.207162499998958, 6.8320544000016525, 7.432097000000795, 8.115482000001066, 8.75721859999976, 9.348926599999686, 9.923968499999319, 10.498988899998949, 11.032350900000893, 11.665836299998773, 12.299124299999676, 13.032516100000066, 13.665877499999624, 14.282611800001177, 14.940938600000663, 15.557769499999267, 16.116060799999104]"	369.135019900001	369.140328200003	370.6323018	370.640465400003	NA	NA	NA	NA	NA	NA	NA	17	"01"	"2024-02-08_13h11.28.092"	"BART_exp"	"2023.2.3"	119.938447589502	"2024-02-08 13h11.45.024163 +0100"	NA
"balloon.png"	114	0	21	21	26	370.640465400003	NA	NA	NA	NA	NA	NA	NA	NA	NA	NA	NA	NA	370.632477900002	370.640465400003	370.640465400003	370.640465400003	370.640465400003	370.640465400003	0.00550229999862494	NA	NA	370.640465400003	383.059694900003	20	1	FALSE	"[0.05740740740740741, 0.05740740740740741, 0.05740740740740741, 0.05740740740740741, 0.05740740740740741, 0.05740740740740741, 0.05740740740740741, 0.05740740740740741, 0.05740740740740741, 0.05740740740740741, 0.05740740740740741, 0.05740740740740741, 0.05740740740740741, 0.05740740740740741, 0.05740740740740741, 0.05740740740740741, 0.05740740740740741, 0.05740740740740741, 0.05740740740740741, 0.05740740740740741, 0.05740740740740741]"	"[-0.3962962962962963, -0.3962962962962963, -0.3962962962962963, -0.3962962962962963, -0.3962962962962963, -0.3962962962962963, -0.3962962962962963, -0.3962962962962963, -0.3962962962962963, -0.3962962962962963, -0.3962962962962963, -0.3962962962962963, -0.3962962962962963, -0.3962962962962963, -0.3962962962962963, -0.3962962962962963, -0.3962962962962963, -0.3962962962962963, -0.3962962962962963, -0.3962962962962963, -0.3962962962962963]"	"[1, 1, 1, 1, 1, 1, 1, 1, 1, 1, 1, 1, 1, 1, 1, 1, 1, 1, 1, 1, 0]"	"[0, 0, 0, 0, 0, 0, 0, 0, 0, 0, 0, 0, 0, 0, 0, 0, 0, 0, 0, 0, 0]"	"[0, 0, 0, 0, 0, 0, 0, 0, 0, 0, 0, 0, 0, 0, 0, 0, 0, 0, 0, 0, 1]"	"[0.5088284000012209, 1.0672081999982765, 1.650536799999827, 2.2004409000001033, 2.7256554999985383, 3.1671644000016386, 3.8423646000010194, 4.484100999998191, 5.150807099998929, 5.676083300000755, 6.23439800000051, 6.792450100001588, 7.359126999999717, 7.917491500000324, 8.459371799999644, 8.984244399998715, 9.801009899998462, 10.301260699998238, 10.967809099998703, 11.53457680000065, 12.426305199998751]"	21	"[0.5069487000000663, 1.0653239999992365, 1.6486576999996032, 2.1985576000006404, 2.723776999999245, 3.165283199999976, 3.8404850000006263, 4.482224499999575, 5.148934199998621, 5.67421110000214, 6.232522499998595, 6.790569900000264, 7.357244200000423, 7.915612699998746, 8.457492500001536, 8.982360199999675, 9.799131700001453, 10.299380200001906, 10.965926699998818, 11.532694900000934, 12.42435580000165]"	"[0.6734175999990839, 1.2316756000000169, 1.7985097000018868, 2.3317274000000907, 2.848466899999039, 3.323553800000809, 3.9901812999996764, 4.6071143000008306, 5.315454800002044, 5.8321952000005695, 6.390374800001155, 6.948739100000239, 7.515435699999216, 8.048783999998705, 8.598851700000523, 9.190608400000201, 9.948936799999501, 10.448991299999761, 11.09900810000181, 11.699256399999285, 12.424359699998604]"	383.060664800003	383.066333700001	384.558263000003	384.566452000003	NA	NA	NA	NA	NA	NA	NA	17	"01"	"2024-02-08_13h11.28.092"	"BART_exp"	"2023.2.3"	119.938447589502	"2024-02-08 13h11.45.024163 +0100"	NA
"balloon.png"	110	0	22	22	25	384.566452000003	NA	NA	NA	NA	NA	NA	NA	NA	NA	NA	NA	NA	384.558441100002	384.566452000003	384.566452000003	384.566452000003	384.566452000003	384.566452000003	0.00584990000061225	0.00584990000061225	0.00584990000061225	384.566452000003	410.895038100003	33	1.65	FALSE	"[0.05740740740740741, 0.05740740740740741, 0.05740740740740741, 0.05740740740740741, 0.05740740740740741, 0.05740740740740741, 0.05740740740740741, 0.05740740740740741, 0.05740740740740741, 0.05740740740740741, 0.05740740740740741, 0.05740740740740741, 0.05740740740740741, 0.05740740740740741, 0.05740740740740741, 0.05740740740740741, 0.05740740740740741, 0.05740740740740741, 0.05740740740740741, 0.05740740740740741, 0.05740740740740741, 0.05740740740740741, 0.05740740740740741, 0.05740740740740741, 0.05740740740740741, 0.05740740740740741, 0.05740740740740741, 0.05740740740740741, 0.05740740740740741, 0.05740740740740741, 0.05740740740740741, 0.05740740740740741, 0.05740740740740741, 0.05740740740740741]"	"[-0.3962962962962963, -0.3962962962962963, -0.3962962962962963, -0.3962962962962963, -0.3962962962962963, -0.3962962962962963, -0.3962962962962963, -0.3962962962962963, -0.3962962962962963, -0.3962962962962963, -0.3962962962962963, -0.3962962962962963, -0.3962962962962963, -0.3962962962962963, -0.3962962962962963, -0.3962962962962963, -0.3962962962962963, -0.3962962962962963, -0.3962962962962963, -0.3962962962962963, -0.3962962962962963, -0.3962962962962963, -0.3962962962962963, -0.3962962962962963, -0.3962962962962963, -0.3962962962962963, -0.3962962962962963, -0.3962962962962963, -0.3962962962962963, -0.3962962962962963, -0.3962962962962963, -0.3962962962962963, -0.3962962962962963, -0.3962962962962963]"	"[1, 1, 1, 1, 1, 1, 1, 1, 1, 1, 1, 1, 1, 1, 1, 1, 1, 1, 1, 1, 1, 1, 1, 1, 1, 1, 1, 1, 1, 1, 1, 1, 1, 0]"	"[0, 0, 0, 0, 0, 0, 0, 0, 0, 0, 0, 0, 0, 0, 0, 0, 0, 0, 0, 0, 0, 0, 0, 0, 0, 0, 0, 0, 0, 0, 0, 0, 0, 0]"	"[0, 0, 0, 0, 0, 0, 0, 0, 0, 0, 0, 0, 0, 0, 0, 0, 0, 0, 0, 0, 0, 0, 0, 0, 0, 0, 0, 0, 0, 0, 0, 0, 0, 1]"	"[2.3265509999982896, 3.000553599998966, 3.525714799998241, 4.15908429999763, 4.742493399997329, 5.3842287999978, 6.034090499997546, 6.725950699998066, 7.38436869999714, 8.01753649999955, 8.734498499998153, 9.434307399998943, 10.101169399997161, 10.801139299997885, 11.50963099999717, 12.252463999997417, 12.934736999999586, 13.651269899997715, 14.259792199998628, 15.034710099997028, 15.75159249999706, 16.409823099998903, 17.068382399997063, 17.693425999998, 18.37658949999968, 19.351862199997413, 20.126883399996586, 20.768590399999084, 21.36035069999707, 21.885355099999288, 23.776970599999913, 24.418677099998604, 25.227080699998623, 26.33566769999743]"	34	"[2.3247157000005245, 2.998703299999761, 3.523869900000136, 4.15723749999961, 4.740648700000747, 5.382383600001049, 6.032244699999865, 6.724104299999453, 7.382531999999628, 8.015687200000684, 8.732650699999795, 9.432460600000923, 10.09931990000041, 10.79929429999902, 11.507804199998645, 12.250782799997978, 12.93289569999979, 13.649421599999187, 14.25794329999917, 15.0328597000007, 15.749743699998362, 16.40797139999995, 17.066533099998196, 17.69158189999871, 18.374743799999123, 19.350020800000493, 20.125033500000427, 20.766740799997933, 21.35851410000032, 21.883507099999406, 23.775120099999185, 24.416829300000245, 25.22523419999925, 26.333759799999825]"	"[2.4902116999983264, 3.065243400000327, 3.6652255000008154, 4.323655600001075, 4.865534599997773, 5.507065599998896, 6.165401199999906, 6.865493900000729, 7.540513699997973, 8.19054210000104, 8.882261899998412, 9.590645000000222, 10.265772599999764, 10.940747399999964, 11.67418109999926, 12.38250060000064, 13.091013000001112, 13.79093219999777, 14.44934640000065, 15.182810099999188, 15.874408200001199, 16.55780389999927, 17.24118559999988, 17.85790519999864, 18.558013599998958, 19.508037699997658, 20.283066699998017, 20.89981110000008, 21.466553599999315, 22.02485479999814, 23.95851229999971, 24.55834849999883, 25.40842469999916, 26.333763899998303]"	410.896161800003	410.9015994	412.393646500001	412.4017064	NA	NA	NA	NA	NA	NA	NA	17	"01"	"2024-02-08_13h11.28.092"	"BART_exp"	"2023.2.3"	119.938447589502	"2024-02-08 13h11.45.024163 +0100"	NA
"balloon.png"	97	0	23	23	22	412.4017064	NA	NA	NA	NA	NA	NA	NA	NA	NA	NA	NA	NA	412.393831500001	412.4017064	412.4017064	412.4017064	412.4017064	412.4017064	0.00560419999965233	0.00560419999965233	0.00560419999965233	412.4017064	434.248315800003	36	1.8	FALSE	"[0.053703703703703705, 0.053703703703703705, 0.053703703703703705, 0.053703703703703705, 0.053703703703703705, 0.053703703703703705, 0.053703703703703705, 0.053703703703703705, 0.053703703703703705, 0.053703703703703705, 0.053703703703703705, 0.053703703703703705, 0.053703703703703705, 0.053703703703703705, 0.053703703703703705, 0.053703703703703705, 0.053703703703703705, 0.053703703703703705, 0.053703703703703705, 0.053703703703703705, 0.053703703703703705, 0.053703703703703705, 0.053703703703703705, 0.053703703703703705, 0.053703703703703705, 0.053703703703703705, 0.053703703703703705, 0.053703703703703705, 0.053703703703703705, 0.053703703703703705, 0.053703703703703705, 0.053703703703703705, 0.053703703703703705, 0.053703703703703705, 0.053703703703703705, 0.053703703703703705, 0.053703703703703705]"	"[-0.4027777777777778, -0.40370370370370373, -0.40370370370370373, -0.40370370370370373, -0.40370370370370373, -0.40370370370370373, -0.40370370370370373, -0.40370370370370373, -0.40370370370370373, -0.40370370370370373, -0.40370370370370373, -0.40370370370370373, -0.40370370370370373, -0.40370370370370373, -0.40370370370370373, -0.40370370370370373, -0.40370370370370373, -0.40370370370370373, -0.40370370370370373, -0.40370370370370373, -0.40370370370370373, -0.40370370370370373, -0.40370370370370373, -0.40370370370370373, -0.40370370370370373, -0.40370370370370373, -0.40370370370370373, -0.40370370370370373, -0.40370370370370373, -0.40370370370370373, -0.40370370370370373, -0.40370370370370373, -0.40370370370370373, -0.40370370370370373, -0.40370370370370373, -0.40370370370370373, -0.40370370370370373]"	"[1, 1, 1, 1, 1, 1, 1, 1, 1, 1, 1, 1, 1, 1, 1, 1, 1, 1, 1, 1, 1, 1, 1, 1, 1, 1, 1, 1, 1, 1, 1, 1, 1, 1, 1, 1, 0]"	"[0, 0, 0, 0, 0, 0, 0, 0, 0, 0, 0, 0, 0, 0, 0, 0, 0, 0, 0, 0, 0, 0, 0, 0, 0, 0, 0, 0, 0, 0, 0, 0, 0, 0, 0, 0, 0]"	"[0, 0, 0, 0, 0, 0, 0, 0, 0, 0, 0, 0, 0, 0, 0, 0, 0, 0, 0, 0, 0, 0, 0, 0, 0, 0, 0, 0, 0, 0, 0, 0, 0, 0, 0, 0, 1]"	"[1.4755170999997063, 2.0171253999978944, 2.5670360999974946, 3.110288699997909, 3.6006023999980243, 4.1421348999974725, 4.725608299999294, 5.267366199997923, 5.725646799997776, 6.225797699997202, 6.733973399997922, 7.209151600000041, 7.825926599998638, 8.359097099997598, 8.90916119999747, 9.417694599997048, 9.942547699996794, 10.459405399997195, 10.992646200000308, 11.52598829999988, 11.992811699998128, 12.542795199999091, 13.092765599998529, 13.64308809999784, 14.18466019999687, 14.743054700000357, 15.268086699998094, 15.793099899998197, 16.384962299998733, 17.093051599997125, 17.92642749999868, 18.584937899999204, 19.309979300000123, 19.885065999998915, 20.48495289999846, 20.976794899997913, 21.853345999999874]"	37	"[1.473704899999575, 2.015317800000048, 2.5652259000016784, 3.108648199999152, 3.598787499999162, 4.140323700001318, 4.723799499999586, 5.26555179999923, 5.723837300000014, 6.2239871000019775, 6.732158900002105, 7.20733939999991, 7.824114400002145, 8.357283400000597, 8.907348200002161, 9.415887700000894, 9.940738900000724, 10.457592200000363, 10.990836100001616, 11.52417720000085, 11.990997500000958, 12.540983700000652, 13.090954999999667, 13.64128360000177, 14.182852800000546, 14.741252899999381, 15.26627279999957, 15.791289000000688, 16.383154200000718, 17.0912356000008, 17.924610800000664, 18.583132700001443, 19.308176000002277, 19.883257600002253, 20.483143800000107, 20.97498320000159, 21.851573100000678]"	"[1.6149867000021914, 2.131708200002322, 2.6817836000009265, 3.2401090000021213, 3.7568476000014925, 4.290175400001317, 4.890271000000212, 5.398611399999936, 5.873648100001446, 6.381982200000493, 6.8570030000009865, 7.365391400002409, 7.9570956000025035, 8.490504400000646, 9.040514899999835, 9.58222139999998, 10.098950899999181, 10.598968199999945, 11.1408162000007, 11.64902660000007, 12.157413100001577, 12.674090000000433, 13.199130900000455, 13.7672444000018, 14.324373800001922, 14.88258230000065, 15.39928670000154, 15.916114600000583, 16.542846700001974, 17.241082100001222, 18.07590650000202, 18.73285190000024, 19.46625309999945, 20.041275600000517, 20.624700200001826, 21.133101400002488, 21.851580500002456]"	434.249645700002	434.261578400001	435.753407600001	NA	NA	NA	NA	NA	NA	NA	NA	17	"01"	"2024-02-08_13h11.28.092"	"BART_exp"	"2023.2.3"	119.938447589502	"2024-02-08 13h11.45.024163 +0100"	NA
"balloon.png"	88	0	24	24	20	435.770051700001	NA	NA	NA	NA	NA	NA	NA	NA	NA	NA	NA	NA	435.753592100002	435.770051700001	435.770051700001	435.770051700001	435.770051700001	435.770051700001	0.00521499999740626	0.00521499999740626	0.00521499999740626	435.770051700001	461.915144600003	45	2.25	FALSE	"[0.03796296296296296, 0.03796296296296296, 0.03796296296296296, 0.03796296296296296, 0.03796296296296296, 0.03796296296296296, 0.03796296296296296, 0.03796296296296296, 0.03796296296296296, 0.03796296296296296, 0.03796296296296296, 0.03796296296296296, 0.03796296296296296, 0.03796296296296296, 0.03796296296296296, 0.03796296296296296, 0.03796296296296296, 0.03796296296296296, 0.03796296296296296, 0.03796296296296296, 0.03796296296296296, 0.03796296296296296, 0.03796296296296296, 0.03796296296296296, 0.03796296296296296, 0.03796296296296296, 0.03796296296296296, 0.03796296296296296, 0.03796296296296296, 0.03796296296296296, 0.03796296296296296, 0.03796296296296296, 0.03796296296296296, 0.03796296296296296, 0.03796296296296296, 0.03796296296296296, 0.03796296296296296, 0.03796296296296296, 0.03796296296296296, 0.03796296296296296, 0.03796296296296296, 0.03796296296296296, 0.03796296296296296, 0.03796296296296296, 0.03796296296296296, 0.03796296296296296]"	"[-0.4083333333333333, -0.4083333333333333, -0.4083333333333333, -0.4083333333333333, -0.4083333333333333, -0.4083333333333333, -0.4083333333333333, -0.4083333333333333, -0.4083333333333333, -0.4083333333333333, -0.4083333333333333, -0.4083333333333333, -0.4083333333333333, -0.4083333333333333, -0.4083333333333333, -0.4083333333333333, -0.4083333333333333, -0.4083333333333333, -0.4083333333333333, -0.4083333333333333, -0.4083333333333333, -0.4083333333333333, -0.4083333333333333, -0.4083333333333333, -0.4083333333333333, -0.4083333333333333, -0.4083333333333333, -0.4083333333333333, -0.4083333333333333, -0.4083333333333333, -0.4083333333333333, -0.4083333333333333, -0.4083333333333333, -0.4083333333333333, -0.4083333333333333, -0.4083333333333333, -0.4083333333333333, -0.4083333333333333, -0.4083333333333333, -0.4083333333333333, -0.4083333333333333, -0.4083333333333333, -0.4083333333333333, -0.4083333333333333, -0.4083333333333333, -0.4083333333333333]"	"[1, 1, 1, 1, 1, 1, 1, 1, 1, 1, 1, 1, 1, 1, 1, 1, 1, 1, 1, 1, 1, 1, 1, 1, 1, 1, 1, 1, 1, 1, 1, 1, 1, 1, 1, 1, 1, 1, 1, 1, 1, 1, 1, 1, 1, 0]"	"[0, 0, 0, 0, 0, 0, 0, 0, 0, 0, 0, 0, 0, 0, 0, 0, 0, 0, 0, 0, 0, 0, 0, 0, 0, 0, 0, 0, 0, 0, 0, 0, 0, 0, 0, 0, 0, 0, 0, 0, 0, 0, 0, 0, 0, 0]"	"[0, 0, 0, 0, 0, 0, 0, 0, 0, 0, 0, 0, 0, 0, 0, 0, 0, 0, 0, 0, 0, 0, 0, 0, 0, 0, 0, 0, 0, 0, 0, 0, 0, 0, 0, 0, 0, 0, 0, 0, 0, 0, 0, 0, 0, 1]"	"[1.5838374999984808, 2.0757368999984465, 2.5838900999988255, 3.067435699998896, 3.5758161999983713, 4.175720100000035, 4.784112199999072, 5.325887999999395, 5.89263519999804, 6.417633400000341, 6.967532899998332, 7.501084100000298, 8.09279609999794, 8.642821499997808, 9.267894199998409, 9.809643799999321, 10.417999400000554, 10.976188299999194, 11.592909599999984, 12.109578600000532, 12.502588499999547, 12.95129199999792, 13.409810799999832, 13.859871299999213, 14.351391699998203, 14.818257099999755, 15.293401200000517, 15.77648539999791, 16.21851869999955, 16.551547899998695, 16.85352309999871, 17.168271299997286, 17.743339199998445, 18.336294999997335, 18.851882099999784, 19.385146799999347, 19.860293999998248, 20.393663099999685, 20.94354050000038, 21.818741899998713, 22.62713729999814, 23.19394209999882, 23.73542180000004, 24.243928899999446, 24.869031899997935, 26.16063209999993]"	46	"[1.5740779000007024, 2.0659751999992295, 2.5741309999975783, 3.057674199997564, 3.5660602999996627, 4.165952899998956, 4.774346599999262, 5.316123000000516, 5.882874700000684, 6.4078660999985, 6.957768899999792, 7.491316600000573, 8.083037899999908, 8.633058799998253, 9.25813449999987, 9.799886799999513, 10.408234299997275, 10.966424899997946, 11.583147699999245, 12.099812500000553, 12.492985699998826, 12.941531099997519, 13.400044899997738, 13.850107899997965, 14.34162699999797, 14.808494499997323, 15.283634499999607, 15.766718700000638, 16.208758599997964, 16.54178580000007, 16.8439314999996, 17.15850379999756, 17.733573899997282, 18.326702499998646, 18.842124599999806, 19.375386199997592, 19.850554299999203, 20.383903300000384, 20.93377419999888, 21.808984299997974, 22.6173764999985, 23.18418009999732, 23.7256567000004, 24.23416349999752, 24.85927019999872, 26.150801100000535]"	"[1.6906232000001182, 2.1990260999991733, 2.715651099999377, 3.2157450999984576, 3.707413500000257, 4.315789799999038, 4.932520399997884, 5.482520199999271, 6.049220499997318, 6.582607699998334, 7.124296300000424, 7.682701800000359, 8.257717500000581, 8.799453100000392, 9.399602599998616, 9.974544900000183, 10.56622359999892, 11.132908699997643, 11.749612399999023, 12.232978599997296, 12.633409699999902, 13.049721399998816, 13.516411799999332, 13.974825900000724, 14.466468599999644, 14.93342119999943, 15.424880899998243, 15.92491759999757, 16.35003990000041, 16.691820299998653, 16.958329099998082, 17.275034300000698, 17.8833859999977, 18.475103999997373, 19.016802199999802, 19.508508700000675, 20.00853619999907, 20.508654900000693, 21.050308199999563, 21.942024600000877, 22.767086500000005, 23.31710849999945, 23.833806299997377, 24.37566919999881, 25.000623399999313, 26.150805400000536]"	461.916550500002	461.921862300002	463.413870400003	463.421966900001	NA	NA	NA	NA	NA	NA	NA	17	"01"	"2024-02-08_13h11.28.092"	"BART_exp"	"2023.2.3"	119.938447589502	"2024-02-08 13h11.45.024163 +0100"	NA
"balloon.png"	10	0	25	25	2	463.421966900001	NA	NA	NA	NA	NA	NA	NA	NA	NA	NA	NA	NA	463.414049000003	463.421966900001	463.421966900001	463.421966900001	463.421966900001	463.421966900001	0.00547840000217547	0.00547840000217547	0.00547840000217547	463.421966900001	472.582909700002	11	0.5	TRUE	"[0.03796296296296296, 0.03796296296296296, 0.03796296296296296, 0.03796296296296296, 0.03796296296296296, 0.03796296296296296, 0.03796296296296296, 0.03796296296296296, 0.03796296296296296, 0.03796296296296296, 0.03796296296296296]"	"[-0.4083333333333333, -0.4083333333333333, -0.4083333333333333, -0.4083333333333333, -0.4083333333333333, -0.4083333333333333, -0.4083333333333333, -0.4083333333333333, -0.4083333333333333, -0.4083333333333333, -0.4083333333333333]"	"[1, 1, 1, 1, 1, 1, 1, 1, 1, 1, 1]"	"[0, 0, 0, 0, 0, 0, 0, 0, 0, 0, 0]"	"[0, 0, 0, 0, 0, 0, 0, 0, 0, 0, 0]"	"[3.375697899999068, 3.8838313999985985, 4.475574399999459, 5.042229800001223, 5.559123899998667, 6.058973800001695, 6.600736399999732, 7.200931100000162, 7.717583099998592, 8.367669600000227, 9.001031700001477]"	11	"[3.3738573000009637, 3.8819877999994787, 4.473731500002032, 5.040376400000241, 5.557283699999971, 6.0571264999998675, 6.598890700002812, 7.199082600000111, 7.7157375999995566, 8.365828500001953, 8.99918670000261]"	"[3.4984542000020156, 4.040158800002246, 4.573541800000385, 5.1402335000020685, 5.715277200000855, 6.223641600001429, 6.757086900001013, 7.30716410000241, 7.857100200002606, 8.523822099999961, 9.157186399999773]"	472.583655600003	472.589270800003	474.081244600002	474.106051900002	NA	NA	NA	NA	NA	NA	NA	17	"01"	"2024-02-08_13h11.28.092"	"BART_exp"	"2023.2.3"	119.938447589502	"2024-02-08 13h11.45.024163 +0100"	NA
"balloon.png"	75	0	26	26	17	474.106051900002	NA	NA	NA	NA	NA	NA	NA	NA	NA	NA	NA	NA	474.081422900003	474.106051900002	474.106051900002	474.106051900002	474.106051900002	474.106051900002	-0.00092269999731797	-0.00092269999731797	-0.00092269999731797	474.106051900002	498.234329900002	38	1.9	FALSE	"[0.03796296296296296, 0.03796296296296296, 0.03796296296296296, 0.03796296296296296, 0.03796296296296296, 0.044444444444444446, 0.044444444444444446, 0.044444444444444446, 0.044444444444444446, 0.04351851851851852, 0.04351851851851852, 0.04351851851851852, 0.04351851851851852, 0.04351851851851852, 0.04351851851851852, 0.04351851851851852, 0.04351851851851852, 0.04351851851851852, 0.04351851851851852, 0.04351851851851852, 0.04351851851851852, 0.04351851851851852, 0.04351851851851852, 0.04351851851851852, 0.04351851851851852, 0.04351851851851852, 0.04351851851851852, 0.04351851851851852, 0.04351851851851852, 0.04351851851851852, 0.04351851851851852, 0.04351851851851852, 0.04351851851851852, 0.04351851851851852, 0.04351851851851852, 0.04351851851851852, 0.04351851851851852, 0.04351851851851852, 0.04351851851851852]"	"[-0.4083333333333333, -0.4083333333333333, -0.4083333333333333, -0.4083333333333333, -0.4083333333333333, -0.4027777777777778, -0.4027777777777778, -0.4027777777777778, -0.4027777777777778, -0.4046296296296296, -0.4046296296296296, -0.4046296296296296, -0.4046296296296296, -0.4046296296296296, -0.4046296296296296, -0.4046296296296296, -0.4046296296296296, -0.4046296296296296, -0.4046296296296296, -0.4046296296296296, -0.4046296296296296, -0.4046296296296296, -0.4046296296296296, -0.4046296296296296, -0.4046296296296296, -0.4046296296296296, -0.4046296296296296, -0.4046296296296296, -0.4046296296296296, -0.4046296296296296, -0.4046296296296296, -0.4046296296296296, -0.4046296296296296, -0.4046296296296296, -0.4046296296296296, -0.4046296296296296, -0.4046296296296296, -0.4046296296296296, -0.4046296296296296]"	"[1, 1, 1, 1, 1, 1, 1, 1, 1, 1, 1, 1, 1, 1, 1, 1, 1, 1, 1, 1, 1, 1, 1, 1, 1, 1, 1, 1, 1, 1, 1, 1, 1, 1, 1, 1, 1, 1, 0]"	"[0, 0, 0, 0, 0, 0, 0, 0, 0, 0, 0, 0, 0, 0, 0, 0, 0, 0, 0, 0, 0, 0, 0, 0, 0, 0, 0, 0, 0, 0, 0, 0, 0, 0, 0, 0, 0, 0, 0]"	"[0, 0, 0, 0, 0, 0, 0, 0, 0, 0, 0, 0, 0, 0, 0, 0, 0, 0, 0, 0, 0, 0, 0, 0, 0, 0, 0, 0, 0, 0, 0, 0, 0, 0, 0, 0, 0, 0, 1]"	"[0.5504433999994944, 1.1753448999988905, 1.8171819000017422, 2.425571100000525, 3.293862700000318, 4.333922900001198, 4.808919600000081, 5.309298600001057, 5.875901700001123, 6.41772470000069, 6.875941199999943, 7.442651000001206, 7.9841554000013275, 8.517547999999806, 9.001029899998684, 9.517653499999142, 10.092934000000241, 10.667867899999692, 11.159559100000479, 11.59277479999946, 12.067976800000906, 12.54281660000197, 12.992899699998816, 13.434764400000859, 13.876431500000763, 14.35963830000037, 14.901380499999505, 15.451543399998627, 15.98473500000182, 16.468240300000616, 16.934991599999194, 17.460006900000735, 18.30157120000149, 18.82673209999848, 19.334979800001747, 20.151682700001402, 20.835221500001353, 21.40205480000077, 24.15198640000017]"	39	"[0.5388731000020925, 1.1637735000003886, 1.8056203000014648, 2.414024600002449, 3.2824445000005653, 4.322352500003035, 4.797354600003018, 5.297869600002741, 5.864335900001606, 6.406174400002783, 6.8643699000022025, 7.431084100000589, 7.972583700000541, 8.505983099999867, 8.989468600000691, 9.506094800002757, 10.081364500001655, 10.656306500000937, 11.147986400002992, 11.573031700001593, 12.056414599999698, 12.531248200000846, 12.981330000002345, 13.423194400002103, 13.864865300001838, 14.348066800001106, 14.889821799999481, 15.439981700001226, 15.97316839999985, 16.456667300000845, 16.923432300001878, 17.44843690000198, 18.28999780000231, 18.81517900000108, 19.32340860000113, 20.14011180000307, 20.823649800000567, 21.3904915000021, 24.140350699999544]"	"[0.680269300002692, 1.3136187000018253, 1.9470101000006252, 2.5721604999998817, 3.42216350000308, 4.430518400000437, 4.938876700001856, 5.463964000002306, 6.022306099999696, 6.547329400000308, 7.0057909000024665, 7.564099200000783, 8.08077890000277, 8.630924299999606, 9.139167400000588, 9.672556600002281, 10.239291500001855, 10.797688400001789, 11.28106839999964, 11.714362300001085, 12.1977074000024, 12.681106400003046, 13.131130400000984, 13.572851400000218, 14.031186000000162, 14.48960640000223, 15.014660100001493, 15.589615500000946, 16.11466389999987, 16.59803699999975, 17.10644450000109, 17.61480180000217, 18.44004320000022, 18.95654840000134, 19.456604200000584, 20.281623599999875, 20.974789500000043, 21.531726799999888, 24.14035490000242]"	498.235973700001	498.241083500001	499.733119200002	499.741217400002	NA	NA	NA	NA	NA	NA	NA	17	"01"	"2024-02-08_13h11.28.092"	"BART_exp"	"2023.2.3"	119.938447589502	"2024-02-08 13h11.45.024163 +0100"	NA
"balloon.png"	79	0	27	27	18	499.741217400002	NA	NA	NA	NA	NA	NA	NA	NA	NA	NA	NA	NA	499.733309300002	499.741217400002	499.741217400002	499.741217400002	499.741217400002	499.741217400002	0.005306399998517	0.005306399998517	0.005306399998517	499.741217400002	532.061825000001	53	2.65	FALSE	"[0.03888888888888889, 0.03888888888888889, 0.03888888888888889, 0.03888888888888889, 0.03888888888888889, 0.03888888888888889, 0.03888888888888889, 0.03888888888888889, 0.03888888888888889, 0.03888888888888889, 0.03888888888888889, 0.03888888888888889, 0.03888888888888889, 0.03888888888888889, 0.03888888888888889, 0.03888888888888889, 0.03796296296296296, 0.03796296296296296, 0.03796296296296296, 0.03796296296296296, 0.03796296296296296, 0.03796296296296296, 0.04259259259259259, 0.04259259259259259, 0.04259259259259259, 0.04259259259259259, 0.04259259259259259, 0.04259259259259259, 0.04259259259259259, 0.04259259259259259, 0.04259259259259259, 0.04259259259259259, 0.04259259259259259, 0.04259259259259259, 0.04259259259259259, 0.04259259259259259, 0.04259259259259259, 0.04259259259259259, 0.04259259259259259, 0.04259259259259259, 0.04259259259259259, 0.04259259259259259, 0.04259259259259259, 0.04259259259259259, 0.04259259259259259, 0.04259259259259259, 0.04259259259259259, 0.04259259259259259, 0.04259259259259259, 0.04259259259259259, 0.04259259259259259, 0.04259259259259259, 0.04259259259259259, 0.04259259259259259]"	"[-0.412962962962963, -0.412962962962963, -0.412962962962963, -0.412962962962963, -0.412962962962963, -0.412962962962963, -0.412962962962963, -0.412962962962963, -0.412962962962963, -0.412962962962963, -0.412962962962963, -0.4148148148148148, -0.4148148148148148, -0.4148148148148148, -0.4148148148148148, -0.4148148148148148, -0.4185185185185185, -0.4185185185185185, -0.4185185185185185, -0.4185185185185185, -0.4185185185185185, -0.4185185185185185, -0.41203703703703703, -0.41203703703703703, -0.41203703703703703, -0.41203703703703703, -0.41203703703703703, -0.41203703703703703, -0.41203703703703703, -0.41203703703703703, -0.41203703703703703, -0.41203703703703703, -0.41203703703703703, -0.41203703703703703, -0.41203703703703703, -0.41203703703703703, -0.41203703703703703, -0.41203703703703703, -0.41203703703703703, -0.41203703703703703, -0.41203703703703703, -0.41203703703703703, -0.41203703703703703, -0.41203703703703703, -0.41203703703703703, -0.41203703703703703, -0.41203703703703703, -0.41203703703703703, -0.41203703703703703, -0.41203703703703703, -0.41203703703703703, -0.41203703703703703, -0.41203703703703703, -0.41203703703703703]"	"[1, 1, 1, 1, 1, 1, 1, 1, 1, 1, 1, 1, 1, 1, 1, 1, 1, 1, 1, 1, 1, 1, 1, 1, 1, 1, 1, 1, 1, 1, 1, 1, 1, 1, 1, 1, 1, 1, 1, 1, 1, 1, 1, 1, 1, 1, 1, 1, 1, 1, 1, 1, 1, 0]"	"[0, 0, 0, 0, 0, 0, 0, 0, 0, 0, 0, 0, 0, 0, 0, 0, 0, 0, 0, 0, 0, 0, 0, 0, 0, 0, 0, 0, 0, 0, 0, 0, 0, 0, 0, 0, 0, 0, 0, 0, 0, 0, 0, 0, 0, 0, 0, 0, 0, 0, 0, 0, 0, 0]"	"[0, 0, 0, 0, 0, 0, 0, 0, 0, 0, 0, 0, 0, 0, 0, 0, 0, 0, 0, 0, 0, 0, 0, 0, 0, 0, 0, 0, 0, 0, 0, 0, 0, 0, 0, 0, 0, 0, 0, 0, 0, 0, 0, 0, 0, 0, 0, 0, 0, 0, 0, 0, 0, 1]"	"[1.5421974000018963, 2.0669957999998587, 2.5672819999999774, 3.067046300002403, 3.508934900000895, 3.975612900001579, 4.483801900001708, 5.0007009000000835, 5.5340240000005, 6.058960400001524, 6.484087700002419, 6.892355800002406, 7.342492200001288, 7.809277399999701, 8.259117900001002, 8.834139099999447, 9.309238100002403, 9.817723899999692, 10.317677900002309, 10.826121500002046, 11.384457000000111, 11.859357299999829, 12.494325499999832, 12.959578000001784, 13.442823900000803, 13.85115720000249, 14.309639800001605, 14.784782800001267, 15.276392800002213, 15.793203299999732, 16.35980870000276, 16.826342399999703, 17.301538400002755, 17.851460800000496, 18.318262000000686, 18.73501899999974, 19.276609200001985, 19.85992040000201, 20.501927200002683, 21.085121100000833, 21.701854300001287, 22.351892200000293, 22.935269600002357, 24.043651500000124, 24.810272800001258, 25.410324800002854, 26.01866660000087, 26.70221450000099, 27.310574900002393, 27.994195800001762, 28.66902310000296, 29.302571100000932, 30.47744850000163, 32.32757240000137]"	54	"[1.540225400000054, 2.0650175000009767, 2.5653063999998267, 3.0650669999995444, 3.5069597000001522, 3.9736424000002444, 4.481824799997412, 4.998722799999086, 5.532050099998742, 6.056986299998243, 6.4821133999976155, 6.890389199998026, 7.340513799998007, 7.80730069999845, 8.257140499998059, 8.832162799997604, 9.307260999998107, 9.815750499998103, 10.315698499998689, 10.82414670000071, 11.382478299998184, 11.857379799999762, 12.492529899998772, 12.957600999998249, 13.440850700000738, 13.849183899998025, 14.307661700000608, 14.782805899998493, 15.274416599997494, 15.79123079999772, 16.357832300000155, 16.824364399999467, 17.29956350000066, 17.8494838000006, 18.31628339999952, 18.73304350000035, 19.274632000000565, 19.857944499999576, 20.499957899999572, 21.083143299998483, 21.699878399998852, 22.349916799998027, 22.933293899997807, 24.04167149999921, 24.808312599998317, 25.408350300000166, 26.016691400000127, 26.70024149999881, 27.308599299998605, 27.992218600000342, 28.667054199999257, 29.30059369999799, 30.475473099999363, 32.32553170000028]"	"[1.6982563999990816, 2.1731809999982943, 2.6900012000005518, 3.1900550999998813, 3.656631499998184, 4.1316693000007945, 4.623349599998619, 5.156749300000229, 5.6901326999977755, 6.2151396999979625, 6.640269899999112, 7.065187399999559, 7.49855849999949, 7.940269799997623, 8.398672200000874, 8.94036799999958, 9.440400499999669, 9.940405699999246, 10.47379329999967, 11.007130499998311, 11.548897199998464, 12.015805799997906, 12.623929800000042, 13.074026800000865, 13.557323299999553, 14.015673699999752, 14.465714099998877, 14.924164699998073, 15.415783099997498, 15.89920340000026, 16.482609499998944, 16.940964099998382, 17.457609000000957, 17.991040000000794, 18.465995099999418, 18.88271139999779, 19.416065099998377, 20.024474399997416, 20.64117360000091, 21.249534599999606, 21.857898700000078, 22.47461309999926, 23.08298459999787, 24.166413099999772, 24.974823099997593, 25.55820540000059, 26.158220999997866, 26.858378599998105, 27.449995499999204, 28.116687199999433, 28.783423400000174, 29.46686090000003, 30.65852789999917, 32.325535699998]"	532.063467300002	532.068456500001	533.560419900001	533.568563600002	NA	NA	NA	NA	NA	NA	NA	17	"01"	"2024-02-08_13h11.28.092"	"BART_exp"	"2023.2.3"	119.938447589502	"2024-02-08 13h11.45.024163 +0100"	NA
"balloon.png"	105	0	28	28	24	533.568563600002	NA	NA	NA	NA	NA	NA	NA	NA	NA	NA	NA	NA	533.560596800002	533.568563600002	533.568563600002	533.568563600002	533.568563600002	533.568563600002	0.00515570000061416	0.00515570000061416	0.00515570000061416	533.568563600002	564.930677900004	60	3	FALSE	"[0.062037037037037036, 0.062037037037037036, 0.062037037037037036, 0.06388888888888888, 0.06388888888888888, 0.06388888888888888, 0.06388888888888888, 0.06388888888888888, 0.06388888888888888, 0.06388888888888888, 0.06388888888888888, 0.06388888888888888, 0.06388888888888888, 0.06388888888888888, 0.06388888888888888, 0.06388888888888888, 0.06388888888888888, 0.06388888888888888, 0.06388888888888888, 0.06388888888888888, 0.06388888888888888, 0.06388888888888888, 0.06388888888888888, 0.06388888888888888, 0.06388888888888888, 0.06388888888888888, 0.06388888888888888, 0.06388888888888888, 0.06388888888888888, 0.06388888888888888, 0.06388888888888888, 0.06388888888888888, 0.06388888888888888, 0.06388888888888888, 0.06388888888888888, 0.06388888888888888, 0.06388888888888888, 0.06388888888888888, 0.06388888888888888, 0.06388888888888888, 0.06388888888888888, 0.06388888888888888, 0.06388888888888888, 0.06388888888888888, 0.06388888888888888, 0.06388888888888888, 0.06388888888888888, 0.06388888888888888, 0.06388888888888888, 0.06388888888888888, 0.06388888888888888, 0.06388888888888888, 0.06388888888888888, 0.06388888888888888, 0.06388888888888888, 0.06388888888888888, 0.06388888888888888, 0.06388888888888888, 0.06388888888888888, 0.06388888888888888, 0.06388888888888888]"	"[-0.4166666666666667, -0.4166666666666667, -0.4166666666666667, -0.412962962962963, -0.4111111111111111, -0.4111111111111111, -0.4111111111111111, -0.4111111111111111, -0.4111111111111111, -0.4111111111111111, -0.4111111111111111, -0.4111111111111111, -0.4111111111111111, -0.4111111111111111, -0.4111111111111111, -0.4111111111111111, -0.4111111111111111, -0.4111111111111111, -0.4111111111111111, -0.4111111111111111, -0.4111111111111111, -0.4111111111111111, -0.4111111111111111, -0.4111111111111111, -0.4111111111111111, -0.4111111111111111, -0.4111111111111111, -0.4111111111111111, -0.4111111111111111, -0.4111111111111111, -0.4111111111111111, -0.4111111111111111, -0.4111111111111111, -0.4111111111111111, -0.4111111111111111, -0.4111111111111111, -0.4111111111111111, -0.4111111111111111, -0.4111111111111111, -0.4111111111111111, -0.4111111111111111, -0.4111111111111111, -0.4111111111111111, -0.4111111111111111, -0.4111111111111111, -0.4111111111111111, -0.4111111111111111, -0.4111111111111111, -0.4111111111111111, -0.4111111111111111, -0.4111111111111111, -0.4111111111111111, -0.4111111111111111, -0.4111111111111111, -0.4111111111111111, -0.4111111111111111, -0.4111111111111111, -0.4111111111111111, -0.4111111111111111, -0.4111111111111111, -0.4111111111111111]"	"[1, 1, 1, 1, 1, 1, 1, 1, 1, 1, 1, 1, 1, 1, 1, 1, 1, 1, 1, 1, 1, 1, 1, 1, 1, 1, 1, 1, 1, 1, 1, 1, 1, 1, 1, 1, 1, 1, 1, 1, 1, 1, 1, 1, 1, 1, 1, 1, 1, 1, 1, 1, 1, 1, 1, 1, 1, 1, 1, 1, 0]"	"[0, 0, 0, 0, 0, 0, 0, 0, 0, 0, 0, 0, 0, 0, 0, 0, 0, 0, 0, 0, 0, 0, 0, 0, 0, 0, 0, 0, 0, 0, 0, 0, 0, 0, 0, 0, 0, 0, 0, 0, 0, 0, 0, 0, 0, 0, 0, 0, 0, 0, 0, 0, 0, 0, 0, 0, 0, 0, 0, 0, 0]"	"[0, 0, 0, 0, 0, 0, 0, 0, 0, 0, 0, 0, 0, 0, 0, 0, 0, 0, 0, 0, 0, 0, 0, 0, 0, 0, 0, 0, 0, 0, 0, 0, 0, 0, 0, 0, 0, 0, 0, 0, 0, 0, 0, 0, 0, 0, 0, 0, 0, 0, 0, 0, 0, 0, 0, 0, 0, 0, 0, 0, 1]"	"[1.9506561999987753, 2.5256891999997606, 3.0923548999999184, 3.692424499997287, 4.250773099996877, 4.734103199996753, 5.259149999998044, 5.809142799997062, 6.267616299999645, 6.717652600000292, 7.259297900000092, 7.800859899998613, 8.350946699996712, 8.767559599997185, 9.217882999997528, 9.709485599996697, 10.20933089999744, 10.751075500000297, 11.076209799997741, 11.426276700000017, 11.851377599999978, 12.217819899997266, 12.626161899999715, 13.084855699999025, 13.626401499997883, 14.184614099998726, 14.626443299999664, 15.068186399999831, 15.401397399997222, 15.709893999999622, 16.01827019999837, 16.54309859999921, 17.06832989999748, 17.60997519999728, 18.143212899998616, 18.743280399998184, 19.268649599998753, 19.685215599998628, 20.010140099999262, 20.38504069999908, 20.71849939999811, 21.035262599998532, 21.36021549999714, 21.70196450000003, 22.5435817999969, 23.11041579999801, 23.562125099997502, 23.868792599998415, 24.50216619999992, 25.060521399998834, 25.59396310000011, 26.135444699997606, 26.7024188999967, 27.210708999999042, 27.76891109999997, 28.310613499998, 28.752366900000197, 29.21917979999853, 29.7774494999976, 30.46109559999968, 31.36914689999685]"	61	"[1.9487683000006655, 2.5237922000014805, 3.090463299999101, 3.6905267000001913, 4.248882399999275, 4.732207100001688, 5.257258300000103, 5.8072433000015735, 6.265722200001619, 6.71575379999922, 7.2574080000013055, 7.798965500001941, 8.349052800000209, 8.765669000000344, 9.215990500000771, 9.707590699999855, 10.207432700000936, 10.749178199999733, 11.074311399999715, 11.424383699999453, 11.849486099999922, 12.21592260000034, 12.624265900001774, 13.082956400001422, 13.624507900000026, 14.18271950000053, 14.6245471000002, 15.066292200001044, 15.399506099998689, 15.707996400000411, 16.016383199999837, 16.541198700000677, 17.0664371999992, 17.60808349999934, 18.14131780000025, 18.741384900000412, 19.266753700001573, 19.683317400002124, 20.008245000000898, 20.383141300000716, 20.716605300000083, 21.033371599998645, 21.358315800000128, 21.70007600000099, 22.541686200002005, 23.10852259999956, 23.544015300001774, 23.86689430000115, 24.500270900000032, 25.05862740000157, 25.592063600000984, 26.133543899999495, 26.70052560000113, 27.208813699999155, 27.76701250000042, 28.308716999999888, 28.750478699999803, 29.217285200000333, 29.775556500000675, 30.459201000001485, 31.367188200001692]"	"[2.1067299999995157, 2.640071400001034, 3.2153034000002663, 3.806886400001531, 4.373585900000762, 4.856909099999029, 5.4236282000019855, 5.966753900000185, 6.423708900001657, 6.848700499998813, 7.398797599998943, 7.932191200001398, 8.490479899999627, 8.923856199999136, 9.390577599999233, 9.823940900001617, 10.357291700001952, 10.85736199999883, 11.199004199999763, 11.565719900001568, 11.982507400000031, 12.340796299999056, 12.758995200001664, 13.224271999999473, 13.765890599999693, 14.299221900000703, 14.757815100001608, 15.182899100000213, 15.532687499999156, 15.849507499999163, 16.19110780000119, 16.69950809999864, 17.23278869999922, 17.766127300001244, 18.316228700001375, 18.891284900000755, 19.41627349999908, 19.84130350000123, 20.16636010000002, 20.491342299999815, 20.85801849999916, 21.199724699999933, 21.483186500001466, 21.808123499999056, 22.641468199999508, 23.224858500001574, 23.69174170000042, 24.000106200001028, 24.616719800000283, 25.208488100000977, 25.725284100000863, 26.2501271000001, 26.833447900000465, 27.350172999998904, 27.90988819999984, 28.44188539999959, 28.875277899998764, 29.35864020000008, 29.950333200002206, 30.583731400001852, 31.36719219999941]"	564.93244	564.937440400001	566.429427200001	566.437547400001	NA	NA	NA	NA	NA	NA	NA	17	"01"	"2024-02-08_13h11.28.092"	"BART_exp"	"2023.2.3"	119.938447589502	"2024-02-08 13h11.45.024163 +0100"	NA
