"image"	"max_pumps"	"pump_loop.thisRepN"	"pump_loop.thisTrialN"	"pump_loop.thisN"	"pump_loop.thisIndex"	"thisRow.t"	"notes"	"Start.started"	"text_start.started"	"continue_start.started"	"mouse_start.started"	"Start.stopped"	"mouse_start.x"	"mouse_start.y"	"mouse_start.leftButton"	"mouse_start.midButton"	"mouse_start.rightButton"	"mouse_start.time"	"trials.started"	"stim_balloon.started"	"stim_balloon_burst.started"	"stim_balloon_burst.stopped"	"text_ballon_value.started"	"text_bank.started"	"mouse.started"	"sound_bang.started"	"sound_bang.stopped"	"button_balloon.started"	"trials.stopped"	"n_pumps"	"earnings"	"popped"	"mouse.x"	"mouse.y"	"mouse.leftButton"	"mouse.midButton"	"mouse.rightButton"	"mouse.time"	"button_balloon.numClicks"	"button_balloon.timesOn"	"button_balloon.timesOff"	"Feedback.started"	"text_feedback.started"	"Feedback.stopped"	"text_feedback.stopped"	"End.started"	"text_end.started"	"key_end.started"	"End.stopped"	"key_end.keys"	"key_end.rt"	"key_end.duration"	"participant"	"session"	"date"	"expName"	"psychopyVersion"	"frameRate"	"expStart"	"...61"
NA	NA	NA	NA	NA	NA	NA	NA	0.0367129000005662	0.04941350000081	0.04941350000081	0.0370767999993404	28.5688673000004	"[0.7342592592592593]"	"[-0.39444444444444443]"	"[1]"	"[0]"	"[0]"	"[28.531098399998882]"	NA	NA	NA	NA	NA	NA	NA	NA	NA	NA	NA	NA	NA	NA	NA	NA	NA	NA	NA	NA	NA	NA	NA	NA	NA	NA	NA	NA	NA	NA	NA	NA	NA	NA	16	"01"	"2024-02-08_11h10.04.537"	"BART_exp"	"2023.2.3"	119.89846997545	"2024-02-08 11h10.24.552487 +0100"	NA
"balloon.png"	1	0	0	0	0	28.6347330000008	NA	NA	NA	NA	NA	NA	NA	NA	NA	NA	NA	NA	28.5795584999996	28.6347330000008	28.6347330000008	28.6347330000008	28.6347330000008	28.6347330000008	0.0123355000014271	0.0123355000014271	0.0123355000014271	28.6347330000008	31.6534881000007	2	0.05	TRUE	"[0.06018518518518518, 0.06018518518518518]"	"[-0.38333333333333336, -0.38333333333333336]"	"[1, 1]"	"[0, 0]"	"[0, 0]"	"[2.6726925000002666, 2.9728531000000658]"	2	"[2.625806400001238, 2.9259673000015027]"	"[2.6589618000016344, 3.017348300001686]"	31.6544570999995	31.6681958000008	33.1601105000009	NA	NA	NA	NA	NA	NA	NA	NA	16	"01"	"2024-02-08_11h10.04.537"	"BART_exp"	"2023.2.3"	119.89846997545	"2024-02-08 11h10.24.552487 +0100"	NA
"balloon.png"	31	0	1	1	7	33.1767235000007	NA	NA	NA	NA	NA	NA	NA	NA	NA	NA	NA	NA	33.1602917	33.1767235000007	33.1767235000007	33.1767235000007	33.1767235000007	33.1767235000007	0.00709509999978763	0.00709509999978763	0.00709509999978763	33.1767235000007	44.2207423	21	1.05	FALSE	"[0.05277777777777778, 0.05277777777777778, 0.05277777777777778, 0.05277777777777778, 0.05277777777777778, 0.05277777777777778, 0.05277777777777778, 0.05277777777777778, 0.05277777777777778, 0.05277777777777778, 0.05277777777777778, 0.05277777777777778, 0.05277777777777778, 0.05277777777777778, 0.05277777777777778, 0.05277777777777778, 0.05277777777777778, 0.05277777777777778, 0.05277777777777778, 0.05277777777777778, 0.05277777777777778, -0.787962962962963]"	"[-0.3814814814814815, -0.3814814814814815, -0.3814814814814815, -0.3814814814814815, -0.3814814814814815, -0.3814814814814815, -0.3814814814814815, -0.3814814814814815, -0.3814814814814815, -0.3814814814814815, -0.3814814814814815, -0.3814814814814815, -0.3814814814814815, -0.3814814814814815, -0.3814814814814815, -0.3814814814814815, -0.3814814814814815, -0.3814814814814815, -0.3814814814814815, -0.3814814814814815, -0.3814814814814815, 0.41574074074074074]"	"[1, 1, 1, 1, 1, 1, 1, 1, 1, 1, 1, 1, 1, 1, 1, 1, 1, 1, 1, 1, 1, 0]"	"[0, 0, 0, 0, 0, 0, 0, 0, 0, 0, 0, 0, 0, 0, 0, 0, 0, 0, 0, 0, 0, 0]"	"[0, 0, 0, 0, 0, 0, 0, 0, 0, 0, 0, 0, 0, 0, 0, 0, 0, 0, 0, 0, 0, 1]"	"[1.1020183000000543, 1.4006465999991633, 1.5923552999993262, 1.7256897999996, 1.9173511999997572, 2.309027100000094, 2.667384599999423, 2.8256240999999136, 3.167532699999356, 3.47567970000091, 3.7425892999999633, 5.642490199999884, 6.042507599999226, 6.734326300000248, 7.234215700000277, 7.451096700000562, 7.792787099999259, 8.15946520000034, 8.742827800000669, 9.459503100000802, 10.059450500000821, 11.059505999999601]"	21	"[1.0962020000006305, 1.3946578000013687, 1.586366800000178, 1.7197047999998176, 1.9113668000009056, 2.303036900000734, 2.6614012000009097, 2.8196369000015693, 3.1615508000013506, 3.469690600000831, 3.7366046000006463, 5.636506700000609, 6.036527100000967, 6.728333800001565, 7.228228900001341, 7.4451070000013715, 7.786799900000915, 8.153475400000389, 8.73683820000042, 9.453523500000301, 10.053464200000235]"	"[1.144410800001424, 1.46100800000022, 1.6361859000007826, 1.8026910000007774, 1.9360408000011375, 2.3863036000002467, 2.736124600000039, 2.9194360000001325, 3.2278055000006134, 3.5528158000015537, 3.8278351000008115, 5.744651900000463, 6.144673900000271, 6.803060199999891, 7.311457600000722, 7.49479010000141, 7.853125300000102, 8.228156300001501, 8.828178900001149, 9.536807300000874, 10.103285099999994]"	44.221798300001	44.2358377	45.7276304000006	NA	NA	NA	NA	NA	NA	NA	NA	16	"01"	"2024-02-08_11h10.04.537"	"BART_exp"	"2023.2.3"	119.89846997545	"2024-02-08 11h10.24.552487 +0100"	NA
"balloon.png"	36	0	2	2	8	45.7442706000002	NA	NA	NA	NA	NA	NA	NA	NA	NA	NA	NA	NA	45.7278028000001	45.7442706000002	45.7442706000002	45.7442706000002	45.7442706000002	45.7442706000002	0.00719870000102673	0.00719870000102673	0.00719870000102673	45.7442706000002	54.6633087999999	17	0.85	FALSE	"[0.001851851851851852, 0.001851851851851852, 0.001851851851851852, 0.001851851851851852, 0.001851851851851852, 0.001851851851851852, 0.001851851851851852, 0.001851851851851852, 0.001851851851851852, 0.001851851851851852, 0.001851851851851852, 0.001851851851851852, 0.001851851851851852, 0.001851851851851852, 0.001851851851851852, 0.001851851851851852, 0.001851851851851852, -0.8064814814814815]"	"[-0.3685185185185185, -0.3685185185185185, -0.3685185185185185, -0.3685185185185185, -0.3685185185185185, -0.3685185185185185, -0.3685185185185185, -0.3685185185185185, -0.3685185185185185, -0.3685185185185185, -0.3685185185185185, -0.3685185185185185, -0.3685185185185185, -0.3685185185185185, -0.3685185185185185, -0.3685185185185185, -0.3685185185185185, 0.4111111111111111]"	"[1, 1, 1, 1, 1, 1, 1, 1, 1, 1, 1, 1, 1, 1, 1, 1, 1, 0]"	"[0, 0, 0, 0, 0, 0, 0, 0, 0, 0, 0, 0, 0, 0, 0, 0, 0, 0]"	"[0, 0, 0, 0, 0, 0, 0, 0, 0, 0, 0, 0, 0, 0, 0, 0, 0, 1]"	"[1.108937999999398, 1.2588900999999169, 1.4672381000000314, 1.8173939999996946, 2.142529700000523, 2.5758459999997285, 2.7424458999994386, 2.900679399999717, 4.434155299999475, 4.800959000000148, 5.384332399999039, 5.575993599999492, 5.892518599999676, 6.475933199999417, 6.917599999998856, 7.634514499999568, 7.984685999999783, 8.934589999998934]"	17	"[1.0998323000003438, 1.2497789999997622, 1.4581312999998772, 1.8082803999986936, 2.1334205999992264, 2.5667422999995324, 2.7333361000000878, 2.891565099998843, 4.425045099998897, 4.791849199998978, 5.375224100000196, 5.566879500000141, 5.883407299999817, 6.4668246999990515, 6.908481799999208, 7.625400999999329, 7.97558029999891]"	"[1.1579409999994823, 1.3413018999999622, 1.558089199999813, 1.8996391000000585, 2.2330189000003884, 2.6663744999987102, 2.833052099998895, 2.9997669000003953, 4.524960099999589, 4.899862199999916, 5.474918199999593, 5.633253500000137, 5.949972499998694, 6.541634999999587, 7.008368499999051, 7.700069900000017, 8.033419299999878]"	54.6642183000004	54.6698964999996	56.1618512000005	56.1783316000001	NA	NA	NA	NA	NA	NA	NA	16	"01"	"2024-02-08_11h10.04.537"	"BART_exp"	"2023.2.3"	119.89846997545	"2024-02-08 11h10.24.552487 +0100"	NA
"balloon.png"	79	0	3	3	18	56.1783316000001	NA	NA	NA	NA	NA	NA	NA	NA	NA	NA	NA	NA	56.1620211999998	56.1783316000001	56.1783316000001	56.1783316000001	56.1783316000001	56.1783316000001	-0.00099670000054175	-0.00099670000054175	-0.00099670000054175	56.1783316000001	67.1391428999996	25	1.25	FALSE	"[-0.03333333333333333, -0.03333333333333333, -0.03333333333333333, -0.03333333333333333, -0.03333333333333333, -0.03333333333333333, -0.03333333333333333, -0.03333333333333333, -0.03333333333333333, -0.03333333333333333, -0.03333333333333333, -0.03333333333333333, -0.03333333333333333, -0.03333333333333333, -0.03333333333333333, -0.03333333333333333, -0.03333333333333333, -0.03333333333333333, -0.03333333333333333, -0.03333333333333333, -0.03333333333333333, -0.03333333333333333, -0.03333333333333333, -0.03333333333333333, -0.03333333333333333, -0.7611111111111111]"	"[-0.387037037037037, -0.387037037037037, -0.387037037037037, -0.387037037037037, -0.387037037037037, -0.387037037037037, -0.387037037037037, -0.387037037037037, -0.387037037037037, -0.387037037037037, -0.387037037037037, -0.387037037037037, -0.387037037037037, -0.387037037037037, -0.387037037037037, -0.387037037037037, -0.387037037037037, -0.387037037037037, -0.387037037037037, -0.387037037037037, -0.387037037037037, -0.387037037037037, -0.387037037037037, -0.387037037037037, -0.387037037037037, 0.3787037037037037]"	"[1, 1, 1, 1, 1, 1, 1, 1, 1, 1, 1, 1, 1, 1, 1, 1, 1, 1, 1, 1, 1, 1, 1, 1, 1, 0]"	"[0, 0, 0, 0, 0, 0, 0, 0, 0, 0, 0, 0, 0, 0, 0, 0, 0, 0, 0, 0, 0, 0, 0, 0, 0, 0]"	"[0, 0, 0, 0, 0, 0, 0, 0, 0, 0, 0, 0, 0, 0, 0, 0, 0, 0, 0, 0, 0, 0, 0, 0, 0, 1]"	"[1.0503838999993604, 1.217058399999587, 1.3755486999998539, 1.558987000000343, 1.8839102999991155, 2.700654799999029, 2.875693300000421, 3.058919600000081, 3.334026599999561, 3.625625599999694, 3.9922525999991194, 4.525782299999264, 4.9342670000005455, 5.12600939999902, 5.309215299999778, 5.567513500000132, 5.825762500000565, 6.275905000000421, 6.8507730000001175, 7.292644600000131, 7.600829599999997, 8.69280930000059, 9.11780109999927, 9.467764299999544, 9.842721099999835, 10.976216299999578]"	25	"[1.0458177000000433, 1.2124870000006922, 1.370973099999901, 1.5544205000005604, 1.8793375000004744, 2.6960822000000917, 2.871124100000088, 3.054344600001059, 3.329452100000708, 3.621051800000714, 3.987681700000394, 4.5212061000001995, 4.929697200001101, 5.121441200000845, 5.304645100000926, 5.562935900001321, 5.821183800000654, 6.27133270000013, 6.846198500001265, 7.288067999999839, 7.596255000000383, 8.688236699999834, 9.113231900000756, 9.4631913000012, 9.838149300001533]"	"[1.1289935000004334, 1.3123274999998102, 1.4540200999999797, 1.712429900000643, 2.0040585000006104, 2.8041339999999764, 2.987462400000368, 3.1707894999999553, 3.445852599999853, 3.729260500000237, 4.0958547000009276, 4.637567300000228, 5.004250300000422, 5.179284400001052, 5.3709987000002, 5.671004800000446, 5.929376100000809, 6.379423100001077, 6.954399800000829, 7.387771100000464, 7.696091900001193, 8.77952440000081, 9.204551900000297, 9.529585199999929, 9.887943700001415]"	67.1402710000002	67.1457740999995	68.6377279999997	68.6459171000006	NA	NA	NA	NA	NA	NA	NA	16	"01"	"2024-02-08_11h10.04.537"	"BART_exp"	"2023.2.3"	119.89846997545	"2024-02-08 11h10.24.552487 +0100"	NA
"balloon.png"	75	0	4	4	17	68.6459171000006	NA	NA	NA	NA	NA	NA	NA	NA	NA	NA	NA	NA	68.6379042999997	68.6459171000006	68.6459171000006	68.6459171000006	68.6459171000006	68.6459171000006	0.00570909999987634	0.00570909999987634	0.00570909999987634	68.6459171000006	79.7482459000003	25	1.25	FALSE	"[-0.020370370370370372, -0.020370370370370372, -0.020370370370370372, -0.020370370370370372, -0.020370370370370372, -0.020370370370370372, -0.020370370370370372, -0.020370370370370372, -0.020370370370370372, -0.020370370370370372, -0.020370370370370372, -0.020370370370370372, -0.020370370370370372, -0.020370370370370372, -0.020370370370370372, -0.020370370370370372, -0.020370370370370372, -0.020370370370370372, -0.020370370370370372, -0.020370370370370372, -0.020370370370370372, -0.020370370370370372, -0.020370370370370372, -0.020370370370370372, -0.020370370370370372, -0.6907407407407408]"	"[-0.3824074074074074, -0.3824074074074074, -0.3824074074074074, -0.3824074074074074, -0.3824074074074074, -0.3824074074074074, -0.3824074074074074, -0.3824074074074074, -0.3824074074074074, -0.3824074074074074, -0.3824074074074074, -0.3824074074074074, -0.3824074074074074, -0.3824074074074074, -0.3824074074074074, -0.3824074074074074, -0.3824074074074074, -0.3824074074074074, -0.3824074074074074, -0.3824074074074074, -0.3824074074074074, -0.3824074074074074, -0.3824074074074074, -0.3824074074074074, -0.3824074074074074, 0.39351851851851855]"	"[1, 1, 1, 1, 1, 1, 1, 1, 1, 1, 1, 1, 1, 1, 1, 1, 1, 1, 1, 1, 1, 1, 1, 1, 1, 0]"	"[0, 0, 0, 0, 0, 0, 0, 0, 0, 0, 0, 0, 0, 0, 0, 0, 0, 0, 0, 0, 0, 0, 0, 0, 0, 0]"	"[0, 0, 0, 0, 0, 0, 0, 0, 0, 0, 0, 0, 0, 0, 0, 0, 0, 0, 0, 0, 0, 0, 0, 0, 0, 1]"	"[0.8505816999986564, 0.9922182999998768, 1.175370999999359, 1.4756478999988758, 1.8005690999998478, 2.292357499998616, 2.4756235999993805, 2.7754750000003696, 3.425730199998725, 3.6091220999987854, 4.0091180999988865, 4.3925209999997605, 4.759167899999738, 5.150665099999969, 5.634216099999321, 6.250899799999388, 6.442573399999674, 6.692463299999872, 7.0760438999986945, 7.984444599998824, 8.334221699999034, 8.550881799999843, 8.86775579999994, 9.23443749999933, 10.017858699999124, 11.109440999998696]"	24	"[0.8487555000010616, 0.9903954000001249, 1.1735451000004105, 1.4738233000007313, 1.7987480000010692, 2.290528699999413, 2.473796100000982, 3.423902200000157, 3.607294900000852, 4.007289600000149, 4.390700500000094, 4.757342200000494, 5.1488344999997935, 5.6323983000002045, 6.249070100000608, 6.440744999999879, 6.69064360000084, 7.0742166, 7.982620000000679, 8.332393300001058, 8.549054900000556, 8.86592969999947, 9.232610500001101, 10.016035000000556]"	"[0.9234109000008175, 1.0817478999997547, 1.2400639000006777, 1.5650729999997566, 1.9151237000005494, 2.3734824000002845, 2.8735513999999966, 3.506900800000949, 3.656922600001053, 4.090270099999543, 4.473631599999862, 4.848692800000208, 5.23213510000096, 5.715393200000108, 6.3237564000010025, 6.490439299999707, 6.782158300000447, 7.1571433000008255, 8.065564800001084, 8.432272500000181, 8.649015099999815, 8.965669799999887, 9.340633899999375, 10.074013499999637]"	79.7493064999999	79.7549966999995	81.2469474000009	81.2634952999997	NA	NA	NA	NA	NA	NA	NA	16	"01"	"2024-02-08_11h10.04.537"	"BART_exp"	"2023.2.3"	119.89846997545	"2024-02-08 11h10.24.552487 +0100"	NA
"balloon.png"	5	0	5	5	1	81.2634952999997	NA	NA	NA	NA	NA	NA	NA	NA	NA	NA	NA	NA	81.2471208000006	81.2634952999997	81.2634952999997	81.2634952999997	81.2634952999997	81.2634952999997	-0.00099199999931443	-0.00099199999931443	-0.00099199999931443	81.2634952999997	83.3321223000003	6	0.25	TRUE	"[0.03611111111111111, 0.03611111111111111, 0.03611111111111111, 0.03611111111111111, 0.03611111111111111, 0.03611111111111111]"	"[-0.3851851851851852, -0.3851851851851852, -0.3851851851851852, -0.3851851851851852, -0.3851851851851852, -0.3851851851851852]"	"[1, 1, 1, 1, 1, 1]"	"[0, 0, 0, 0, 0, 0]"	"[0, 0, 0, 0, 0, 0]"	"[0.7086904999996477, 0.8920149999994464, 1.0422087000006286, 1.2005539999991015, 1.575567100000626, 1.9757449999997334]"	6	"[0.6993442000002688, 0.8826695999996446, 1.0328663000000233, 1.191208700000061, 1.566220599999724, 1.9663989000000583]"	"[0.7659182999996119, 0.9325303000005079, 1.1242146999993565, 1.2909061999998812, 1.6325895999998465, 2.065935599999648]"	83.3327711000002	83.3385794000005	84.8305469000006	84.8470717	NA	NA	NA	NA	NA	NA	NA	16	"01"	"2024-02-08_11h10.04.537"	"BART_exp"	"2023.2.3"	119.89846997545	"2024-02-08 11h10.24.552487 +0100"	NA
"balloon.png"	114	0	6	6	26	84.8470717	NA	NA	NA	NA	NA	NA	NA	NA	NA	NA	NA	NA	84.8307174000001	84.8470717	84.8470717	84.8470717	84.8470717	84.8470717	-0.00081280000085826	-0.00081280000085826	-0.00081280000085826	84.8470717	92.6990973000011	16	0.8	FALSE	"[0.004629629629629629, 0.004629629629629629, 0.004629629629629629, 0.004629629629629629, 0.004629629629629629, 0.004629629629629629, 0.003703703703703704, 0.003703703703703704, 0.003703703703703704, 0.003703703703703704, 0.003703703703703704, 0.003703703703703704, 0.003703703703703704, 0.003703703703703704, 0.003703703703703704, 0.003703703703703704, -0.787962962962963]"	"[-0.36203703703703705, -0.36203703703703705, -0.36203703703703705, -0.36203703703703705, -0.36203703703703705, -0.36203703703703705, -0.37222222222222223, -0.37222222222222223, -0.37222222222222223, -0.37222222222222223, -0.37222222222222223, -0.37222222222222223, -0.37222222222222223, -0.37222222222222223, -0.37222222222222223, -0.37222222222222223, 0.41574074074074074]"	"[1, 1, 1, 1, 1, 1, 1, 1, 1, 1, 1, 1, 1, 1, 1, 1, 0]"	"[0, 0, 0, 0, 0, 0, 0, 0, 0, 0, 0, 0, 0, 0, 0, 0, 0]"	"[0, 0, 0, 0, 0, 0, 0, 0, 0, 0, 0, 0, 0, 0, 0, 0, 1]"	"[0.575518199999351, 0.7586960999997245, 1.0255290000004607, 1.342239999999947, 1.6671260999992228, 2.075428300000567, 2.9338561999993544, 3.1088294999990467, 3.2838596000001417, 3.6507235999997647, 4.150705800000651, 4.358916699999099, 4.7174304999989545, 5.05897510000068, 5.575933800000712, 6.1758805999998, 7.867495000000417]"	16	"[0.5696163000011438, 0.7528480000000854, 1.0196291000011115, 1.3363401000005979, 1.6612238000016077, 2.069526600000245, 2.9279497000006813, 3.1029272000014316, 3.277953200000411, 3.6448215000000346, 4.144797599999947, 4.353008000000045, 4.711527600000409, 5.053072000000611, 5.570027700001447, 6.169977300000028]"	"[0.6526185000002442, 0.8276287000007869, 1.1110057000005327, 1.419341600001644, 1.7693556000012904, 2.1693791000016063, 3.027777300001617, 3.2027868000004673, 3.3695123000015883, 3.7445280000010825, 4.252859800000806, 4.45305290000033, 4.794565500000317, 5.144638300000224, 5.661297000000559, 6.286333300000479]"	92.6999644999996	92.705901700001	94.1979618999994	94.2144198000005	NA	NA	NA	NA	NA	NA	NA	16	"01"	"2024-02-08_11h10.04.537"	"BART_exp"	"2023.2.3"	119.89846997545	"2024-02-08 11h10.24.552487 +0100"	NA
"balloon.png"	27	0	7	7	6	94.2144198000005	NA	NA	NA	NA	NA	NA	NA	NA	NA	NA	NA	NA	94.1981455999994	94.2144198000005	94.2144198000005	94.2144198000005	94.2144198000005	94.2144198000005	-0.00057109999943349	-0.00057109999943349	-0.00057109999943349	94.2144198000005	104.7416416	26	1.3	FALSE	"[0.001851851851851852, 0.001851851851851852, 0.001851851851851852, 0.001851851851851852, 0.001851851851851852, 0.001851851851851852, 0.001851851851851852, 0.001851851851851852, 0.001851851851851852, 0.001851851851851852, 0.001851851851851852, 0.001851851851851852, 0.001851851851851852, 0.001851851851851852, 0.001851851851851852, 0.001851851851851852, 0.001851851851851852, 0.001851851851851852, 0.001851851851851852, 0.001851851851851852, 0.001851851851851852, 0.001851851851851852, 0.001851851851851852, 0.001851851851851852, 0.001851851851851852, 0.001851851851851852, -0.7962962962962963]"	"[-0.35648148148148145, -0.35648148148148145, -0.35648148148148145, -0.35648148148148145, -0.35648148148148145, -0.35648148148148145, -0.35648148148148145, -0.35648148148148145, -0.35648148148148145, -0.35648148148148145, -0.35648148148148145, -0.35648148148148145, -0.35648148148148145, -0.35648148148148145, -0.35648148148148145, -0.35648148148148145, -0.35648148148148145, -0.35648148148148145, -0.35648148148148145, -0.35648148148148145, -0.35648148148148145, -0.35648148148148145, -0.35648148148148145, -0.35648148148148145, -0.35648148148148145, -0.35648148148148145, 0.44166666666666665]"	"[1, 1, 1, 1, 1, 1, 1, 1, 1, 1, 1, 1, 1, 1, 1, 1, 1, 1, 1, 1, 1, 1, 1, 1, 1, 1, 0]"	"[0, 0, 0, 0, 0, 0, 0, 0, 0, 0, 0, 0, 0, 0, 0, 0, 0, 0, 0, 0, 0, 0, 0, 0, 0, 0, 0]"	"[0, 0, 0, 0, 0, 0, 0, 0, 0, 0, 0, 0, 0, 0, 0, 0, 0, 0, 0, 0, 0, 0, 0, 0, 0, 0, 1]"	"[0.9669486000002507, 1.1502576000002591, 1.3003807999994024, 1.4670718999987002, 1.7586156999986997, 2.033842299999378, 2.283816499999375, 2.5837902999992366, 2.817157599998609, 3.1003624999993917, 3.483858699999473, 3.6672213000001648, 3.833930799999507, 4.200744499999928, 4.5513398999992205, 4.992492899998979, 5.558870299999398, 5.742216200000257, 5.925557700000354, 6.217408099999375, 6.56053780000002, 7.350764900000286, 7.9257005999988905, 8.28411099999903, 8.760695899998609, 9.51749319999908, 10.542542399998638]"	26	"[0.9585867000005237, 1.1418909000003623, 1.292023899999549, 1.4587056999989727, 1.7502523000002839, 2.0254771999989316, 2.2754540000005363, 2.57542999999896, 2.8087993999997707, 3.0919974999997066, 3.4754933999993227, 3.65885679999883, 3.825560499999483, 4.192381599999862, 4.543143699998836, 4.984126699999251, 5.550510099999883, 5.733847600000445, 5.9171910999994, 6.209044799999901, 6.552450699999099, 7.342401699999755, 7.917337400000179, 8.275740499999301, 8.75261109999883, 9.509130099999311]"	"[1.0500935999989451, 1.225075199999992, 1.3833943999998155, 1.5751411999990523, 1.8584429999991698, 2.133424899999227, 2.3751367000004393, 2.65015510000012, 2.908724999999322, 3.208578399999169, 3.5586442000003444, 3.7502795999989758, 3.933560399998896, 4.2919655999994575, 4.633617399998911, 5.067018399999142, 5.625454699998954, 5.808697599999505, 6.033716300000378, 6.32544659999985, 6.6754562000005535, 7.442305000000488, 7.983874999999898, 8.350570499998867, 8.833910800000012, 9.608960100000331]"	104.7426987	104.748415	106.240437599999	106.2569079	NA	NA	NA	NA	NA	NA	NA	16	"01"	"2024-02-08_11h10.04.537"	"BART_exp"	"2023.2.3"	119.89846997545	"2024-02-08 11h10.24.552487 +0100"	NA
"balloon.png"	97	0	8	8	22	106.2569079	NA	NA	NA	NA	NA	NA	NA	NA	NA	NA	NA	NA	106.240615500001	106.2569079	106.2569079	106.2569079	106.2569079	106.2569079	-0.00075970000034431	-0.00075970000034431	-0.00075970000034431	106.2569079	118.9510892	29	1.45	FALSE	"[-0.07777777777777778, -0.07777777777777778, -0.07777777777777778, -0.07777777777777778, -0.07777777777777778, -0.07777777777777778, -0.07777777777777778, -0.07777777777777778, -0.07777777777777778, -0.07777777777777778, -0.07777777777777778, -0.07777777777777778, -0.07777777777777778, -0.07777777777777778, -0.07777777777777778, -0.07777777777777778, -0.07777777777777778, -0.07777777777777778, -0.07777777777777778, -0.07777777777777778, -0.07777777777777778, -0.019444444444444445, -0.019444444444444445, -0.019444444444444445, -0.019444444444444445, -0.019444444444444445, -0.06388888888888888, -0.06388888888888888, -0.06388888888888888, -0.8185185185185185]"	"[-0.3648148148148148, -0.3648148148148148, -0.3648148148148148, -0.3648148148148148, -0.3648148148148148, -0.3648148148148148, -0.3648148148148148, -0.3648148148148148, -0.3648148148148148, -0.3648148148148148, -0.3648148148148148, -0.3648148148148148, -0.3648148148148148, -0.3648148148148148, -0.3648148148148148, -0.3648148148148148, -0.3648148148148148, -0.3648148148148148, -0.3648148148148148, -0.3648148148148148, -0.3648148148148148, -0.3814814814814815, -0.3814814814814815, -0.3814814814814815, -0.3814814814814815, -0.3814814814814815, -0.3888888888888889, -0.3888888888888889, -0.3888888888888889, 0.36574074074074076]"	"[1, 1, 1, 1, 1, 1, 1, 1, 1, 1, 1, 1, 1, 1, 1, 1, 1, 1, 1, 1, 1, 1, 1, 1, 1, 1, 1, 1, 1, 0]"	"[0, 0, 0, 0, 0, 0, 0, 0, 0, 0, 0, 0, 0, 0, 0, 0, 0, 0, 0, 0, 0, 0, 0, 0, 0, 0, 0, 0, 0, 0]"	"[0, 0, 0, 0, 0, 0, 0, 0, 0, 0, 0, 0, 0, 0, 0, 0, 0, 0, 0, 0, 0, 0, 0, 0, 0, 0, 0, 0, 0, 1]"	"[0.9421854000011081, 1.0919310000008409, 1.4171089000010397, 1.7003058999998757, 1.9339699000011024, 2.167993799999749, 2.5922000000009575, 2.9505989000008412, 3.10896750000029, 3.4254722999994556, 3.6504686000007496, 4.000799999999799, 4.6339038999994955, 4.81735000000117, 5.033893300000273, 5.28409400000055, 5.667250300000887, 6.750879700000951, 6.909004500001174, 7.092613000000711, 7.442396200000076, 8.809313100000509, 8.967655399999785, 9.14275439999983, 9.492838199999824, 9.809342100001231, 10.60935530000097, 10.825979999999618, 11.276105799999641, 12.709557600001062]"	29	"[0.9364306999996188, 1.086172199999055, 1.4113569999990432, 1.694547999999486, 1.9282194999996136, 2.162410799999634, 2.5864590000001044, 2.9448427999996056, 3.1032132000000274, 3.419715300000462, 3.6447107999993023, 3.995051300000341, 4.6281464000003325, 4.811596300000019, 5.0281414999990375, 5.278343300000415, 5.661496700000498, 6.7451251999991655, 6.9032441999988805, 7.086867099998926, 7.43664279999939, 8.803559399999358, 8.961901900000157, 9.137001900000541, 9.487178800000038, 9.803592299998854, 10.60360529999889, 10.820226599998932, 11.27034950000052]"	"[1.011026199999833, 1.1777543999996851, 1.4862636999987444, 1.7527532000003703, 2.0110961999998835, 2.2527695999997377, 2.6694642000002204, 3.019534900000508, 3.1861773999989964, 3.494713899999624, 3.744561600000452, 4.086292899999535, 4.711282599999322, 4.894644399999379, 5.111326599999302, 5.369706299999962, 5.769687300000442, 6.811491599999499, 6.994789700000183, 7.169794399998864, 7.519839200000206, 8.89500389999921, 9.069934199998897, 9.244936199998847, 9.570048899999165, 9.878434500000367, 10.686707200000455, 10.886757899999793, 11.35349899999892]"	118.952150700001	118.9660831	120.457898500001	NA	NA	NA	NA	NA	NA	NA	NA	16	"01"	"2024-02-08_11h10.04.537"	"BART_exp"	"2023.2.3"	119.89846997545	"2024-02-08 11h10.24.552487 +0100"	NA
"balloon.png"	40	0	9	9	9	120.474552	NA	NA	NA	NA	NA	NA	NA	NA	NA	NA	NA	NA	120.458076200001	120.474552	120.474552	120.474552	120.474552	120.474552	0.00724809999883291	0.00724809999883291	0.00724809999883291	120.474552	134.8358018	41	2	TRUE	"[-0.06574074074074074, -0.06574074074074074, -0.06574074074074074, -0.06574074074074074, -0.06574074074074074, -0.06574074074074074, -0.06574074074074074, -0.06574074074074074, -0.06574074074074074, -0.06574074074074074, -0.06574074074074074, -0.06481481481481481, -0.06481481481481481, -0.06481481481481481, -0.06481481481481481, -0.06481481481481481, -0.06481481481481481, -0.06481481481481481, -0.06481481481481481, -0.06481481481481481, -0.06481481481481481, -0.06481481481481481, -0.06481481481481481, -0.06481481481481481, -0.06481481481481481, -0.06481481481481481, -0.06481481481481481, -0.06481481481481481, -0.06481481481481481, -0.06481481481481481, -0.06481481481481481, -0.06481481481481481, -0.06481481481481481, -0.06481481481481481, -0.06481481481481481, -0.06481481481481481, -0.06481481481481481, -0.06481481481481481, -0.06481481481481481, -0.06481481481481481, -0.06481481481481481]"	"[-0.3888888888888889, -0.3888888888888889, -0.3888888888888889, -0.3888888888888889, -0.3888888888888889, -0.3888888888888889, -0.3888888888888889, -0.3888888888888889, -0.3888888888888889, -0.3888888888888889, -0.3888888888888889, -0.3851851851851852, -0.3851851851851852, -0.3851851851851852, -0.3851851851851852, -0.3851851851851852, -0.3851851851851852, -0.3851851851851852, -0.3851851851851852, -0.3851851851851852, -0.3851851851851852, -0.3851851851851852, -0.3851851851851852, -0.3851851851851852, -0.3851851851851852, -0.3851851851851852, -0.3851851851851852, -0.3851851851851852, -0.3851851851851852, -0.3851851851851852, -0.3851851851851852, -0.3851851851851852, -0.3851851851851852, -0.3851851851851852, -0.3851851851851852, -0.3851851851851852, -0.3851851851851852, -0.3851851851851852, -0.3851851851851852, -0.3851851851851852, -0.3851851851851852]"	"[1, 1, 1, 1, 1, 1, 1, 1, 1, 1, 1, 1, 1, 1, 1, 1, 1, 1, 1, 1, 1, 1, 1, 1, 1, 1, 1, 1, 1, 1, 1, 1, 1, 1, 1, 1, 1, 1, 1, 1, 1]"	"[0, 0, 0, 0, 0, 0, 0, 0, 0, 0, 0, 0, 0, 0, 0, 0, 0, 0, 0, 0, 0, 0, 0, 0, 0, 0, 0, 0, 0, 0, 0, 0, 0, 0, 0, 0, 0, 0, 0, 0, 0]"	"[0, 0, 0, 0, 0, 0, 0, 0, 0, 0, 0, 0, 0, 0, 0, 0, 0, 0, 0, 0, 0, 0, 0, 0, 0, 0, 0, 0, 0, 0, 0, 0, 0, 0, 0, 0, 0, 0, 0, 0, 0]"	"[0.6338052000010066, 0.7755157999999938, 0.95209960000102, 1.1256791000014346, 1.3506950000009965, 1.6671972000003734, 1.9673942999997962, 2.1758363000008103, 2.342645300001095, 2.517420199999833, 2.867458100001386, 3.2673191000012594, 3.459126200001265, 3.6340366000003996, 3.834008600000743, 4.117611700001362, 4.526005100000475, 5.050784099999873, 5.917675900000177, 6.1260059000014735, 6.284472900000765, 6.451051500000176, 6.609212600000319, 7.592616100000669, 7.767785800000638, 7.917869300001257, 8.41769960000056, 8.759542800000418, 9.02609080000002, 9.267900099999679, 9.567905800000517, 10.059579300001133, 10.542993400000341, 10.901390900000479, 11.47652890000063, 11.668124300000272, 12.034613900001204, 12.768117700001312, 13.018012200000157, 13.4848920000004, 14.284924800000226]"	41	"[0.624977299999955, 0.7666956000011851, 0.9434417000011308, 1.1168496999998752, 1.341871100001299, 1.6583919000004244, 1.9585698999999295, 2.167020400000183, 2.3338161000010587, 2.5085940000008122, 2.858630599999742, 3.258489300000292, 3.450296900000467, 3.625215300000491, 3.8251754000011715, 4.108792700000777, 4.517192799999975, 5.041956099999879, 5.908852500000648, 6.117178700000295, 6.275642800001151, 6.442224100001113, 6.600383500001044, 7.583788500000082, 7.758962800000518, 7.909046300001137, 8.408867899999677, 8.750718000001143, 9.017263400000957, 9.259082800001124, 9.559073399999761, 10.05075190000025, 10.534165700000813, 10.892566200000147, 11.467701900000975, 11.659293800001251, 12.025788799999646, 12.759286200000133, 13.009186100000079, 13.476062200001252, 14.276094599999851]"	"[0.6914907000009407, 0.8499492000009923, 1.0331678000002285, 1.199861900000542, 1.4498677000010503, 1.7499119000003702, 2.0583793000005244, 2.258371600000828, 2.433353000000352, 2.6333186000010755, 2.966684400000304, 3.3500996000002488, 3.5500430000010965, 3.725030499999775, 3.925098400000934, 4.225270000000819, 4.625180799999725, 5.150140300000203, 6.0001943999996, 6.191876400000183, 6.358706200000597, 6.5335539000006975, 6.691914099999849, 7.65034949999972, 7.825312500001019, 8.000338900001225, 8.502138699999705, 8.858729499999754, 9.10874160000094, 9.358981999999742, 9.658913299999767, 10.126878000000943, 10.608905099999902, 10.975548200000048, 11.550572300000567, 11.74225370000022, 12.125704000000042, 12.86747110000033, 13.075748500001282, 13.575726400000349, 14.359145100001115]"	134.8370407	134.8422039	136.334256600001	136.3423298	NA	NA	NA	NA	NA	NA	NA	16	"01"	"2024-02-08_11h10.04.537"	"BART_exp"	"2023.2.3"	119.89846997545	"2024-02-08 11h10.24.552487 +0100"	NA
"balloon.png"	84	0	10	10	19	136.3423298	NA	NA	NA	NA	NA	NA	NA	NA	NA	NA	NA	NA	136.3344452	136.3423298	136.3423298	136.3423298	136.3423298	136.3423298	0.00534869999864895	NA	NA	136.3423298	143.336323699999	23	1.15	FALSE	"[-0.04722222222222222, -0.04722222222222222, -0.04722222222222222, -0.04722222222222222, -0.04722222222222222, -0.04722222222222222, -0.04722222222222222, -0.04722222222222222, -0.04722222222222222, -0.04722222222222222, -0.04722222222222222, -0.04722222222222222, -0.04722222222222222, -0.04722222222222222, -0.04722222222222222, -0.04722222222222222, -0.04722222222222222, -0.04722222222222222, -0.04722222222222222, -0.04722222222222222, -0.04722222222222222, -0.04722222222222222, -0.04722222222222222, -0.7944444444444444]"	"[-0.38796296296296295, -0.38796296296296295, -0.38796296296296295, -0.38796296296296295, -0.38796296296296295, -0.38796296296296295, -0.38796296296296295, -0.38796296296296295, -0.38796296296296295, -0.38796296296296295, -0.38796296296296295, -0.38796296296296295, -0.38796296296296295, -0.38796296296296295, -0.38796296296296295, -0.38796296296296295, -0.38796296296296295, -0.38796296296296295, -0.38796296296296295, -0.38796296296296295, -0.38796296296296295, -0.38796296296296295, -0.38796296296296295, 0.42685185185185187]"	"[1, 1, 1, 1, 1, 1, 1, 1, 1, 1, 1, 1, 1, 1, 1, 1, 1, 1, 1, 1, 1, 1, 1, 0]"	"[0, 0, 0, 0, 0, 0, 0, 0, 0, 0, 0, 0, 0, 0, 0, 0, 0, 0, 0, 0, 0, 0, 0, 0]"	"[0, 0, 0, 0, 0, 0, 0, 0, 0, 0, 0, 0, 0, 0, 0, 0, 0, 0, 0, 0, 0, 0, 0, 1]"	"[0.5335744000003615, 0.6752360000009503, 0.8587387000006856, 1.0253879000010784, 1.1837018000005628, 1.3586954000002152, 1.7169768000003387, 1.9003522000002704, 2.0919871000005514, 2.283788700000514, 2.5505248999998003, 2.9503617999998824, 3.1170355000012933, 3.2672254999997676, 3.4005483000000822, 3.7254205999997794, 3.933766400001332, 4.2689358000006905, 4.633979199999885, 5.200653200001398, 5.4838936000014655, 5.759012200000143, 6.125582300001042, 7.000943600000028]"	23	"[0.5316376999999193, 0.6733034999997471, 0.8568085999995674, 1.0234545000002981, 1.1817690999996557, 1.3567607999993925, 1.7150427999986277, 1.898418999999194, 2.0900501999985863, 2.281859599999734, 2.548594399999274, 2.9484279999996943, 3.1150963000000047, 3.2652933999997913, 3.398610099999132, 3.7234854999987874, 3.931831099998817, 4.267188599998917, 4.632042799999908, 5.19871239999884, 5.48196149999967, 5.757074299999658, 6.123650800000178]"	"[0.5814429999991262, 0.7565063000001828, 0.9564946999998938, 1.1231489000001602, 1.289855199998783, 1.4398562999995193, 1.8231868000002578, 2.006548199999088, 2.1815713999985746, 2.3648938999995153, 2.6568104999987554, 3.031605899999704, 3.2065999999995256, 3.3649895999988075, 3.506631999998717, 3.8233650000001944, 4.0400271999988036, 4.37337419999858, 4.740045399999872, 5.298426399998789, 5.5651500999993, 5.865133299999798, 6.190157199998794]"	143.3373347	143.342838300001	144.834804	144.8429333	NA	NA	NA	NA	NA	NA	NA	16	"01"	"2024-02-08_11h10.04.537"	"BART_exp"	"2023.2.3"	119.89846997545	"2024-02-08 11h10.24.552487 +0100"	NA
"balloon.png"	92	0	11	11	21	144.8429333	NA	NA	NA	NA	NA	NA	NA	NA	NA	NA	NA	NA	144.834984500001	144.8429333	144.8429333	144.8429333	144.8429333	144.8429333	0.00565760000063164	0.00565760000063164	0.00565760000063164	144.8429333	154.136993100001	31	1.55	FALSE	"[0.010185185185185186, 0.010185185185185186, 0.010185185185185186, 0.010185185185185186, 0.010185185185185186, 0.010185185185185186, 0.010185185185185186, 0.010185185185185186, 0.010185185185185186, 0.010185185185185186, 0.010185185185185186, 0.010185185185185186, 0.010185185185185186, 0.010185185185185186, 0.010185185185185186, 0.010185185185185186, 0.010185185185185186, 0.010185185185185186, 0.010185185185185186, 0.010185185185185186, 0.010185185185185186, 0.010185185185185186, 0.010185185185185186, 0.010185185185185186, 0.010185185185185186, 0.010185185185185186, 0.010185185185185186, 0.010185185185185186, 0.010185185185185186, 0.010185185185185186, 0.010185185185185186, -0.7194444444444444]"	"[-0.3787037037037037, -0.3787037037037037, -0.3787037037037037, -0.3787037037037037, -0.3787037037037037, -0.3787037037037037, -0.3787037037037037, -0.3787037037037037, -0.3787037037037037, -0.3787037037037037, -0.3787037037037037, -0.3787037037037037, -0.3787037037037037, -0.3787037037037037, -0.3787037037037037, -0.3787037037037037, -0.3787037037037037, -0.3787037037037037, -0.3787037037037037, -0.3787037037037037, -0.3787037037037037, -0.3787037037037037, -0.3787037037037037, -0.3787037037037037, -0.3787037037037037, -0.3787037037037037, -0.3787037037037037, -0.3787037037037037, -0.3787037037037037, -0.3787037037037037, -0.3787037037037037, 0.35833333333333334]"	"[1, 1, 1, 1, 1, 1, 1, 1, 1, 1, 1, 1, 1, 1, 1, 1, 1, 1, 1, 1, 1, 1, 1, 1, 1, 1, 1, 1, 1, 1, 1, 0]"	"[0, 0, 0, 0, 0, 0, 0, 0, 0, 0, 0, 0, 0, 0, 0, 0, 0, 0, 0, 0, 0, 0, 0, 0, 0, 0, 0, 0, 0, 0, 0, 0]"	"[0, 0, 0, 0, 0, 0, 0, 0, 0, 0, 0, 0, 0, 0, 0, 0, 0, 0, 0, 0, 0, 0, 0, 0, 0, 0, 0, 0, 0, 0, 0, 1]"	"[0.4086041999998997, 0.5836495999992621, 0.7337687999988702, 1.0336208999997325, 1.2336789000000863, 1.4003032999989955, 1.6003461999989668, 2.183739500000229, 2.3837317999987135, 2.5588964999988093, 2.7088966999999684, 2.8588972999987163, 3.018656899999769, 3.167198199998893, 3.342276100000163, 3.758818299998893, 4.067433000000165, 4.400515399998767, 4.559029899999587, 4.83391759999904, 5.734108599999672, 5.875795799998741, 6.067444599999362, 6.225650999998834, 6.5341692000001785, 7.08424819999891, 7.2508381999996345, 7.418735899998865, 7.609407599999031, 7.834190899999157, 8.309301699999196, 9.301096199998938]"	31	"[0.4067847999995138, 0.5818249999992986, 0.7319418000006408, 1.031797199999346, 1.231854600000588, 1.3984768999998778, 1.5985356000001048, 2.1819252999994205, 2.3819091000004846, 2.557072600000538, 2.7070748999994976, 2.8570847000009962, 3.017002599999614, 3.1653793000004953, 3.340448999999353, 3.756995100000495, 4.065608599999905, 4.39868639999986, 4.557203599999411, 4.832090899999457, 5.732282700000724, 5.873979100000724, 6.065620600000329, 6.223822899999504, 6.532347300000765, 7.08242860000064, 7.2490156999992905, 7.417078099999344, 7.607583500001056, 7.832365500000378, 8.307478099999571]"	"[0.5066016000000673, 0.6568487999993522, 0.848477699999421, 1.1316513000001578, 1.3233282000001054, 1.5066876000000775, 1.690021100001104, 2.299845400000777, 2.4651792000004207, 2.631801400000768, 2.7901387000001705, 2.9317647999996552, 3.0902956999998423, 3.2401350000000093, 3.4234680000008666, 3.848588099999688, 4.181874399999288, 4.4819413000004715, 4.64025969999966, 4.931956899999932, 5.815293600000587, 5.965332400000989, 6.115400399999999, 6.28201529999933, 6.640363900000011, 7.16542920000029, 7.307079500000327, 7.482097600000998, 7.657186399999773, 7.915454699999827, 8.390492500000619]"	154.138121100001	154.143661100001	155.6355528	155.643686200001	NA	NA	NA	NA	NA	NA	NA	16	"01"	"2024-02-08_11h10.04.537"	"BART_exp"	"2023.2.3"	119.89846997545	"2024-02-08 11h10.24.552487 +0100"	NA
"balloon.png"	44	0	12	12	10	155.643686200001	NA	NA	NA	NA	NA	NA	NA	NA	NA	NA	NA	NA	155.635728900001	155.643686200001	155.643686200001	155.643686200001	155.643686200001	155.643686200001	0.00562540000100852	0.00562540000100852	0.00562540000100852	155.643686200001	162.954303100001	26	1.3	FALSE	"[0.028703703703703703, 0.028703703703703703, 0.028703703703703703, 0.028703703703703703, 0.028703703703703703, 0.028703703703703703, 0.028703703703703703, 0.028703703703703703, 0.028703703703703703, 0.028703703703703703, 0.028703703703703703, 0.028703703703703703, 0.041666666666666664, 0.041666666666666664, 0.041666666666666664, 0.041666666666666664, 0.041666666666666664, 0.041666666666666664, 0.041666666666666664, 0.041666666666666664, 0.041666666666666664, 0.041666666666666664, 0.041666666666666664, 0.041666666666666664, 0.041666666666666664, 0.041666666666666664, -0.7518518518518519]"	"[-0.4101851851851852, -0.4101851851851852, -0.4101851851851852, -0.4101851851851852, -0.4101851851851852, -0.4101851851851852, -0.4101851851851852, -0.4101851851851852, -0.4101851851851852, -0.4101851851851852, -0.4101851851851852, -0.40925925925925927, -0.38796296296296295, -0.38796296296296295, -0.38796296296296295, -0.38796296296296295, -0.38796296296296295, -0.38796296296296295, -0.38796296296296295, -0.38796296296296295, -0.38796296296296295, -0.38796296296296295, -0.38796296296296295, -0.38796296296296295, -0.38796296296296295, -0.38796296296296295, 0.37407407407407406]"	"[1, 1, 1, 1, 1, 1, 1, 1, 1, 1, 1, 1, 1, 1, 1, 1, 1, 1, 1, 1, 1, 1, 1, 1, 1, 1, 0]"	"[0, 0, 0, 0, 0, 0, 0, 0, 0, 0, 0, 0, 0, 0, 0, 0, 0, 0, 0, 0, 0, 0, 0, 0, 0, 0, 0]"	"[0, 0, 0, 0, 0, 0, 0, 0, 0, 0, 0, 0, 0, 0, 0, 0, 0, 0, 0, 0, 0, 0, 0, 0, 0, 0, 1]"	"[0.34213699999963865, 0.5087980999996944, 0.6671035999988817, 0.8337549999996554, 1.000347299999703, 1.1503794000000198, 1.3586662999987311, 1.7088772999995854, 1.8757581999998365, 2.0673477000000275, 2.333763499998895, 2.525580399998944, 2.9587997999988147, 3.167273799999748, 3.325640899998689, 3.4604939999990165, 3.825710600000093, 4.109029499999451, 4.4592080999991595, 4.6341136999999435, 4.792223999998896, 5.208937299999889, 5.434112699998877, 5.642443400000047, 6.017305600000327, 6.46895559999939, 7.317622200000187]"	26	"[0.34025370000017574, 0.506911600001331, 0.6652172000012797, 0.8318706000009115, 0.9984746999998606, 1.1484947000008106, 1.3567777000007482, 1.7069912000006298, 1.873873900000035, 2.065461600001072, 2.3318820000004052, 2.523691600001257, 2.9569169000005786, 3.1653841999996075, 3.3237537000004522, 3.458771400000842, 3.8238335000005463, 4.1071491000002425, 4.457330799999909, 4.632224400000268, 4.7904858000001695, 5.207046600000467, 5.43222440000136, 5.640552500000922, 6.015417000000525, 6.467228999999861]"	"[0.4149023000009038, 0.5982519000008324, 0.7649065000005066, 0.9232971000001271, 1.0816320000012638, 1.231610400000136, 1.4067504000013287, 1.798403500000859, 1.9734047000001738, 2.1317216999996162, 2.4233937000008154, 2.6233960000008665, 3.07343260000016, 3.2484471000007034, 3.4151106999997864, 3.590171300000293, 3.923458200000823, 4.223664000001008, 4.548517000001084, 4.71517649999987, 4.898570600000312, 5.315237300001172, 5.565320100000463, 5.748623100000259, 6.098682900001222, 6.565407800000685]"	162.9554584	162.9608859	164.452878100001	164.460951999999	NA	NA	NA	NA	NA	NA	NA	16	"01"	"2024-02-08_11h10.04.537"	"BART_exp"	"2023.2.3"	119.89846997545	"2024-02-08 11h10.24.552487 +0100"	NA
"balloon.png"	105	0	13	13	24	164.460951999999	NA	NA	NA	NA	NA	NA	NA	NA	NA	NA	NA	NA	164.453063500001	164.460951999999	164.460951999999	164.460951999999	164.460951999999	164.460951999999	0.00555359999998472	0.00555359999998472	0.00555359999998472	164.460951999999	172.729956900001	32	1.6	FALSE	"[0.028703703703703703, 0.028703703703703703, 0.028703703703703703, 0.028703703703703703, 0.028703703703703703, 0.028703703703703703, 0.028703703703703703, 0.028703703703703703, 0.028703703703703703, 0.028703703703703703, 0.028703703703703703, 0.028703703703703703, 0.028703703703703703, 0.028703703703703703, 0.028703703703703703, 0.028703703703703703, 0.028703703703703703, 0.028703703703703703, 0.028703703703703703, 0.028703703703703703, 0.028703703703703703, 0.028703703703703703, 0.028703703703703703, 0.028703703703703703, 0.028703703703703703, 0.028703703703703703, 0.028703703703703703, 0.028703703703703703, 0.028703703703703703, 0.028703703703703703, 0.028703703703703703, 0.028703703703703703, -0.7675925925925926]"	"[-0.3814814814814815, -0.3814814814814815, -0.3814814814814815, -0.3814814814814815, -0.3814814814814815, -0.3814814814814815, -0.3814814814814815, -0.3814814814814815, -0.3814814814814815, -0.3814814814814815, -0.3814814814814815, -0.3814814814814815, -0.3814814814814815, -0.3814814814814815, -0.3814814814814815, -0.3814814814814815, -0.3814814814814815, -0.3814814814814815, -0.3814814814814815, -0.3814814814814815, -0.3814814814814815, -0.3814814814814815, -0.3814814814814815, -0.3814814814814815, -0.3814814814814815, -0.3814814814814815, -0.3814814814814815, -0.3814814814814815, -0.3814814814814815, -0.3814814814814815, -0.3814814814814815, -0.3814814814814815, 0.36018518518518516]"	"[1, 1, 1, 1, 1, 1, 1, 1, 1, 1, 1, 1, 1, 1, 1, 1, 1, 1, 1, 1, 1, 1, 1, 1, 1, 1, 1, 1, 1, 1, 1, 1, 0]"	"[0, 0, 0, 0, 0, 0, 0, 0, 0, 0, 0, 0, 0, 0, 0, 0, 0, 0, 0, 0, 0, 0, 0, 0, 0, 0, 0, 0, 0, 0, 0, 0, 0]"	"[0, 0, 0, 0, 0, 0, 0, 0, 0, 0, 0, 0, 0, 0, 0, 0, 0, 0, 0, 0, 0, 0, 0, 0, 0, 0, 0, 0, 0, 0, 0, 0, 1]"	"[0.2253772999993089, 0.41698820000056, 0.5918784999994386, 0.75902060000044, 0.9169624999994994, 1.100449600000502, 1.3336715000004915, 1.5171212000004743, 1.6921275999993668, 1.8921374000001379, 2.1020454000008613, 2.2504865000009886, 2.425531900000351, 2.6087038000005123, 2.792149900000368, 2.983711500000936, 3.158723900000041, 3.5337928000008105, 3.700591799999529, 3.8673515999998926, 4.034115500000553, 4.200623700000506, 4.5171673000004375, 4.800493500000812, 5.1005533000006835, 5.3923383000001195, 5.642397199999323, 5.8508832000006805, 6.434156699999221, 6.600883099999919, 7.075879800000621, 7.484257600001001, 8.275950100000045]"	32	"[0.2235435000002326, 0.4151523000000452, 0.5900347999995574, 0.7573492999999871, 0.91512689999945, 1.0986078999994788, 1.331829500000822, 1.5152859999998327, 1.6902835000000778, 1.8902926999999181, 2.100365399999646, 2.248647100001108, 2.4236971999998786, 2.6068601999995735, 2.790312900000572, 2.981872000000294, 3.1568805999995675, 3.5319584000008035, 3.698752800000875, 3.8655109999999695, 4.03227280000101, 4.198783899999398, 4.515327299999626, 4.798649000000296, 5.098713900000803, 5.390496600000915, 5.6405577000005, 5.849047400000927, 6.432315399999425, 6.599040799999784, 7.074044799999683, 7.482421099999556]"	"[0.31486039999981585, 0.49822210000093037, 0.6815702000003512, 0.8317327000004298, 0.9997916000011173, 1.190081700000519, 1.4399329000007128, 1.6066174999996292, 1.8066398999999365, 1.9899836000004143, 2.181661200000235, 2.348336200000631, 2.5235216000000946, 2.7150485000001936, 2.8984388999997464, 3.073581099999501, 3.2484349999995175, 3.615117700001065, 3.79014719999941, 3.973695000000589, 4.115137400000094, 4.31514419999985, 4.6402830999995786, 4.915245700000014, 5.2068813999994745, 5.506936600000699, 5.748585400000593, 5.973637299999609, 6.548711299999923, 6.698656000000483, 7.182059300001129, 7.582060300001103]"	172.7311374	172.7448632	174.236674900001	NA	NA	NA	NA	NA	NA	NA	NA	16	"01"	"2024-02-08_11h10.04.537"	"BART_exp"	"2023.2.3"	119.89846997545	"2024-02-08 11h10.24.552487 +0100"	NA
"balloon.png"	57	0	14	14	13	174.2533652	NA	NA	NA	NA	NA	NA	NA	NA	NA	NA	NA	NA	174.236846900001	174.2533652	174.2533652	174.2533652	174.2533652	174.2533652	0.00694289999955799	0.00694289999955799	0.00694289999955799	174.2533652	183.7471854	29	1.45	FALSE	"[-0.1361111111111111, -0.1361111111111111, -0.1361111111111111, -0.1361111111111111, -0.1361111111111111, -0.1361111111111111, -0.1361111111111111, -0.1361111111111111, -0.1361111111111111, -0.1361111111111111, -0.1361111111111111, -0.1361111111111111, -0.1361111111111111, -0.1361111111111111, -0.1361111111111111, -0.1361111111111111, -0.1361111111111111, -0.1361111111111111, -0.1361111111111111, -0.1361111111111111, -0.1361111111111111, -0.1361111111111111, -0.1361111111111111, -0.1361111111111111, -0.1361111111111111, -0.1361111111111111, -0.1361111111111111, -0.1361111111111111, -0.1361111111111111, -0.7675925925925926]"	"[-0.4203703703703704, -0.4203703703703704, -0.4203703703703704, -0.4203703703703704, -0.4203703703703704, -0.4203703703703704, -0.4203703703703704, -0.4203703703703704, -0.4203703703703704, -0.4203703703703704, -0.4203703703703704, -0.4203703703703704, -0.4203703703703704, -0.4203703703703704, -0.4203703703703704, -0.4203703703703704, -0.4203703703703704, -0.4203703703703704, -0.4203703703703704, -0.4203703703703704, -0.4203703703703704, -0.4203703703703704, -0.4203703703703704, -0.4203703703703704, -0.4203703703703704, -0.4203703703703704, -0.4203703703703704, -0.4203703703703704, -0.4203703703703704, 0.39166666666666666]"	"[1, 1, 1, 1, 1, 1, 1, 1, 1, 1, 1, 1, 1, 1, 1, 1, 1, 1, 1, 1, 1, 1, 1, 1, 1, 1, 1, 1, 1, 0]"	"[0, 0, 0, 0, 0, 0, 0, 0, 0, 0, 0, 0, 0, 0, 0, 0, 0, 0, 0, 0, 0, 0, 0, 0, 0, 0, 0, 0, 0, 0]"	"[0, 0, 0, 0, 0, 0, 0, 0, 0, 0, 0, 0, 0, 0, 0, 0, 0, 0, 0, 0, 0, 0, 0, 0, 0, 0, 0, 0, 0, 1]"	"[1.2005407999986346, 1.6257198999992397, 1.8090965999999753, 2.000811399999293, 2.1674272999989626, 2.3506680999998935, 2.6258065000001807, 2.8676783999999316, 3.2675282999989577, 3.4425202999991598, 3.7853973000001133, 4.192538799999966, 4.392462300000261, 4.57587009999952, 4.725853599999027, 5.05930459999945, 5.967554499999096, 6.117549099999451, 6.292753300000186, 6.426056000000244, 6.601047799998923, 6.8679542999998375, 7.1927491999995254, 7.392633399998886, 7.517658200000369, 7.6928408999992826, 7.851170399999319, 8.009526599998935, 8.192708599999605, 9.509455999999773]"	29	"[1.1904713999992964, 1.6156491000001552, 1.7990208999999595, 1.9907445999997435, 2.1573662999999215, 2.3405951999993704, 2.615733000000546, 2.857604299999366, 3.2574566999992385, 3.4324467000005825, 3.7754908999995678, 4.182466199999908, 4.382396200000585, 4.565802099999928, 4.715779399999519, 5.049228300000323, 5.957479700000476, 6.107471799999985, 6.282676400000128, 6.415983299999425, 6.590977300000304, 6.857879400000456, 7.182677099999637, 7.382558400000562, 7.507582000000184, 7.682763700000578, 7.841102800000954, 7.999449999999342, 8.1826302999998]"	"[1.2653184999999212, 1.7153326000006928, 1.857086399999389, 2.099076000000423, 2.2656363000005513, 2.4237315000009403, 2.698746199999732, 2.9655115000005026, 3.3404632000001584, 3.532136100000571, 3.898874099999375, 4.307210499999201, 4.490715399999317, 4.640771200000017, 4.8155783000001975, 5.1658840000000055, 6.0323098999997455, 6.199113099999522, 6.374066500000481, 6.515703900000517, 6.682366299999558, 6.982597000000169, 7.282400199999756, 7.440740100000767, 7.599133800000345, 7.774184699999751, 7.940792699999292, 8.090864100000545, 8.274143299999196]"	183.748219000001	183.753969700001	185.2460075	185.270776200001	NA	NA	NA	NA	NA	NA	NA	16	"01"	"2024-02-08_11h10.04.537"	"BART_exp"	"2023.2.3"	119.89846997545	"2024-02-08 11h10.24.552487 +0100"	NA
"balloon.png"	110	0	15	15	25	185.270776200001	NA	NA	NA	NA	NA	NA	NA	NA	NA	NA	NA	NA	185.246194900001	185.270776200001	185.270776200001	185.270776200001	185.270776200001	185.270776200001	-0.00066499999957159	-0.00066499999957159	-0.00066499999957159	185.270776200001	189.7226259	13	0.65	FALSE	"[-0.030555555555555555, -0.030555555555555555, -0.030555555555555555, -0.030555555555555555, -0.030555555555555555, -0.030555555555555555, -0.030555555555555555, -0.030555555555555555, -0.030555555555555555, -0.030555555555555555, -0.030555555555555555, -0.030555555555555555, -0.030555555555555555, -0.6861111111111111]"	"[-0.36574074074074076, -0.36574074074074076, -0.36574074074074076, -0.36574074074074076, -0.36574074074074076, -0.36574074074074076, -0.36574074074074076, -0.36574074074074076, -0.36574074074074076, -0.36574074074074076, -0.36574074074074076, -0.36574074074074076, -0.36574074074074076, 0.3851851851851852]"	"[1, 1, 1, 1, 1, 1, 1, 1, 1, 1, 1, 1, 1, 0]"	"[0, 0, 0, 0, 0, 0, 0, 0, 0, 0, 0, 0, 0, 0]"	"[0, 0, 0, 0, 0, 0, 0, 0, 0, 0, 0, 0, 0, 1]"	"[0.8337742000003345, 1.0004430000008142, 1.1754304000005504, 1.3336381999997684, 1.5003231999999116, 1.6671463000002404, 1.9836510000004637, 2.1756550000009156, 2.375477600000522, 2.5420193999998446, 2.725524100000257, 3.0588855000005424, 3.250575000000026, 4.475511500000721]"	13	"[0.8229171999992104, 0.9895875999991404, 1.16457089999858, 1.322778699999617, 1.489499599998453, 1.656283700000131, 1.972788799999762, 2.1648255000000063, 2.3646186999994825, 2.531160499998805, 2.714666199999556, 3.048024899999291, 3.239716399999452]"	"[0.9226483999991615, 1.0894432999994024, 1.2476171999987855, 1.41429959999914, 1.58104319999984, 1.7644297999995615, 2.0726428999987547, 2.2810638999999355, 2.489344399999027, 2.647675199999867, 2.8393524999992223, 3.1560616999995545, 3.3477241000000504]"	189.723451	189.729399	191.2221708	191.2378334	NA	NA	NA	NA	NA	NA	NA	16	"01"	"2024-02-08_11h10.04.537"	"BART_exp"	"2023.2.3"	119.89846997545	"2024-02-08 11h10.24.552487 +0100"	NA
"balloon.png"	71	0	16	16	16	191.2378334	NA	NA	NA	NA	NA	NA	NA	NA	NA	NA	NA	NA	191.222369500001	191.2378334	191.2378334	191.2378334	191.2378334	191.2378334	0.0002145999987988	0.0002145999987988	0.0002145999987988	191.2378334	201.1568188	36	1.8	FALSE	"[0.10833333333333334, 0.10833333333333334, 0.10833333333333334, 0.10833333333333334, 0.10833333333333334, 0.10833333333333334, 0.10833333333333334, 0.10833333333333334, 0.10833333333333334, 0.10833333333333334, 0.10833333333333334, 0.10833333333333334, 0.10833333333333334, 0.10833333333333334, 0.10833333333333334, 0.10833333333333334, 0.10833333333333334, 0.10833333333333334, 0.10833333333333334, 0.10833333333333334, 0.10833333333333334, 0.10833333333333334, 0.10833333333333334, 0.10833333333333334, 0.10833333333333334, 0.10833333333333334, 0.10833333333333334, 0.10833333333333334, 0.10833333333333334, 0.10833333333333334, 0.10833333333333334, 0.10833333333333334, 0.10833333333333334, 0.10833333333333334, 0.10833333333333334, 0.10833333333333334, -0.7574074074074074]"	"[-0.3990740740740741, -0.3990740740740741, -0.3990740740740741, -0.3990740740740741, -0.3990740740740741, -0.3990740740740741, -0.3990740740740741, -0.3990740740740741, -0.3990740740740741, -0.3990740740740741, -0.3990740740740741, -0.3990740740740741, -0.3990740740740741, -0.3990740740740741, -0.3990740740740741, -0.3990740740740741, -0.3990740740740741, -0.3990740740740741, -0.3990740740740741, -0.3990740740740741, -0.3990740740740741, -0.3990740740740741, -0.3990740740740741, -0.3990740740740741, -0.3990740740740741, -0.3990740740740741, -0.3990740740740741, -0.3990740740740741, -0.3990740740740741, -0.3990740740740741, -0.3990740740740741, -0.3990740740740741, -0.3990740740740741, -0.3990740740740741, -0.3990740740740741, -0.3990740740740741, 0.42685185185185187]"	"[1, 1, 1, 1, 1, 1, 1, 1, 1, 1, 1, 1, 1, 1, 1, 1, 1, 1, 1, 1, 1, 1, 1, 1, 1, 1, 1, 1, 1, 1, 1, 1, 1, 1, 1, 1, 0]"	"[0, 0, 0, 0, 0, 0, 0, 0, 0, 0, 0, 0, 0, 0, 0, 0, 0, 0, 0, 0, 0, 0, 0, 0, 0, 0, 0, 0, 0, 0, 0, 0, 0, 0, 0, 0, 0]"	"[0, 0, 0, 0, 0, 0, 0, 0, 0, 0, 0, 0, 0, 0, 0, 0, 0, 0, 0, 0, 0, 0, 0, 0, 0, 0, 0, 0, 0, 0, 0, 0, 0, 0, 0, 0, 1]"	"[0.9494869000009203, 1.099511899999925, 1.2748707000009745, 1.4581225000001723, 1.6496858000009524, 1.8081770000007964, 1.9745421999996324, 2.183029699999679, 2.3912644000010914, 2.791276399999333, 2.9746085999995557, 3.1746335000007093, 3.3163351000002876, 3.4915421000005153, 3.9163939000009123, 4.083141799999794, 4.25821680000081, 4.4415614000008645, 4.633239000000685, 5.000106400000732, 5.316463299999668, 5.583291200000531, 5.941508300000351, 6.400195399999575, 6.583335900000748, 6.749877300000662, 6.933410800000274, 7.091576000000714, 7.275092199999563, 7.425102100000004, 7.6251394000009896, 7.80845600000066, 7.983301399999618, 8.350034200000664, 8.566691600000922, 8.900043800000276, 9.93349599999965]"	36	"[0.9451396999993449, 1.0951583000005485, 1.2705265999993571, 1.4537779999991471, 1.6453419999998005, 1.8038300999996864, 1.9701922999993258, 2.1786792000002606, 2.3869188000007853, 2.786923100000422, 2.9702615999995032, 3.170286799999303, 3.3119886000004044, 3.487191599999278, 3.9120474999999715, 4.07879099999991, 4.25386509999953, 4.437212599999839, 4.628887999999279, 4.995776600000681, 5.312110299999404, 5.578946100000394, 5.937160899999071, 6.395849000000453, 6.578984399999172, 6.745523999999932, 6.9290622000007716, 7.087223299999096, 7.270741799999087, 7.4207566999994015, 7.620788500000344, 7.804103700000269, 7.978954300000623, 8.345682900000611, 8.56234459999905, 8.895689599999969]"	"[1.0199888000006467, 1.186700899999778, 1.3703346999991481, 1.5700775000004796, 1.7535100999994029, 1.9367020999998203, 2.103474899999128, 2.2951004000005923, 2.478422500000306, 2.8951223000003665, 3.0702590000000782, 3.238188799999989, 3.38687199999913, 3.5952378999991197, 4.003594800000428, 4.1952290999997786, 4.3702353999997285, 4.561901900000521, 4.745292199999312, 5.111962200000562, 5.428634899999452, 5.695342600000004, 6.062007299999095, 6.512030199999572, 6.687076399999569, 6.853755300000557, 7.028948200000741, 7.195515299999897, 7.353884800000742, 7.528771600000255, 7.737140400000499, 7.912144600000829, 8.070533000000069, 8.437163399999918, 8.670508100000006, 8.978893100000278]"	201.1581651	201.16353	202.655488599999	202.6636383	NA	NA	NA	NA	NA	NA	NA	16	"01"	"2024-02-08_11h10.04.537"	"BART_exp"	"2023.2.3"	119.89846997545	"2024-02-08 11h10.24.552487 +0100"	NA
"balloon.png"	53	0	17	17	12	202.6636383	NA	NA	NA	NA	NA	NA	NA	NA	NA	NA	NA	NA	202.6556626	202.6636383	202.6636383	202.6636383	202.6636383	202.6636383	0.00553319999926316	0.00553319999926316	0.00553319999926316	202.6636383	212.824538299999	32	1.6	FALSE	"[-0.009259259259259259, -0.009259259259259259, -0.009259259259259259, -0.009259259259259259, -0.009259259259259259, -0.009259259259259259, -0.009259259259259259, -0.009259259259259259, -0.009259259259259259, -0.009259259259259259, -0.009259259259259259, -0.009259259259259259, -0.009259259259259259, -0.009259259259259259, -0.009259259259259259, -0.009259259259259259, -0.009259259259259259, -0.009259259259259259, -0.009259259259259259, -0.009259259259259259, -0.009259259259259259, -0.009259259259259259, -0.009259259259259259, -0.009259259259259259, -0.009259259259259259, -0.009259259259259259, -0.009259259259259259, -0.009259259259259259, -0.009259259259259259, -0.009259259259259259, -0.009259259259259259, -0.009259259259259259, -0.7305555555555555]"	"[-0.40370370370370373, -0.40370370370370373, -0.40370370370370373, -0.40370370370370373, -0.40370370370370373, -0.40370370370370373, -0.40370370370370373, -0.40370370370370373, -0.40370370370370373, -0.40370370370370373, -0.40370370370370373, -0.40370370370370373, -0.40370370370370373, -0.40370370370370373, -0.40370370370370373, -0.40370370370370373, -0.40370370370370373, -0.40370370370370373, -0.40370370370370373, -0.40370370370370373, -0.40370370370370373, -0.40370370370370373, -0.40370370370370373, -0.40370370370370373, -0.40370370370370373, -0.40370370370370373, -0.40370370370370373, -0.40370370370370373, -0.40370370370370373, -0.40370370370370373, -0.40370370370370373, -0.40370370370370373, 0.37222222222222223]"	"[1, 1, 1, 1, 1, 1, 1, 1, 1, 1, 1, 1, 1, 1, 1, 1, 1, 1, 1, 1, 1, 1, 1, 1, 1, 1, 1, 1, 1, 1, 1, 1, 0]"	"[0, 0, 0, 0, 0, 0, 0, 0, 0, 0, 0, 0, 0, 0, 0, 0, 0, 0, 0, 0, 0, 0, 0, 0, 0, 0, 0, 0, 0, 0, 0, 0, 0]"	"[0, 0, 0, 0, 0, 0, 0, 0, 0, 0, 0, 0, 0, 0, 0, 0, 0, 0, 0, 0, 0, 0, 0, 0, 0, 0, 0, 0, 0, 0, 0, 0, 1]"	"[0.5003535999985615, 0.6753435999999056, 0.8503891999989719, 1.0172038000000612, 1.1924353999984305, 1.3672174999992421, 1.5338848999999755, 1.7170897999985755, 1.9087783999984822, 2.1088106999995944, 2.2921361999997316, 2.492180199998984, 2.700485800000024, 2.9005936999983533, 3.0922946999999112, 3.258874299999661, 3.425817099998312, 3.917250699998476, 4.083925199998703, 4.26735109999936, 4.492344699998284, 4.642311899999186, 4.842513300000064, 5.234139599999253, 5.417612199998985, 5.600868399998944, 5.775872499998513, 5.975918299998739, 6.184243299998343, 7.050814799998989, 7.234181799998623, 7.41769099999874, 10.167980299998817]"	32	"[0.4985034999990603, 0.673494099999516, 0.8485352999996394, 1.015351299998656, 1.1905876000000717, 1.3653630999997404, 1.5320370999997976, 1.7152363999994122, 1.906929200000377, 2.1069628999994165, 2.2902835000004416, 2.4903276999993977, 2.698634000000311, 2.898744299998725, 3.090446399999564, 3.257018700000117, 3.423967200000334, 3.91539929999999, 4.082072499999413, 4.265498900000239, 4.490501000000222, 4.6404607000004034, 4.840672899999845, 5.232287099999667, 5.415765300000203, 5.599015399999189, 5.7740217999999, 5.974067400000422, 6.182395399999223, 7.048960799998895, 7.232335599999715, 7.415842000000339]"	"[0.590046600000278, 0.7733831999994436, 0.9567162000003009, 1.123369900000398, 1.290095599999404, 1.4666251999988162, 1.64841609999894, 1.8150986000000557, 2.0068728999995074, 2.2153010000001814, 2.398485499999879, 2.623527699999613, 2.8151942000004055, 2.9905208999989554, 3.1651791999993293, 3.365207900000314, 3.548573599999145, 4.015371499999674, 4.182092299999567, 4.3653887000000395, 4.548624600000039, 4.748631899999964, 4.965385600000445, 5.34036659999947, 5.523718499998722, 5.70703709999907, 5.9154079999989335, 6.107108199999857, 6.315411399998993, 7.15723749999961, 7.340525100000377, 7.523829899999328]"	212.8256905	212.831046900001	214.3230088	214.3311856	NA	NA	NA	NA	NA	NA	NA	16	"01"	"2024-02-08_11h10.04.537"	"BART_exp"	"2023.2.3"	119.89846997545	"2024-02-08 11h10.24.552487 +0100"	NA
"balloon.png"	23	0	18	18	5	214.3311856	NA	NA	NA	NA	NA	NA	NA	NA	NA	NA	NA	NA	214.323185900001	214.3311856	214.3311856	214.3311856	214.3311856	214.3311856	0.00555600000006961	0.00555600000006961	0.00555600000006961	214.3311856	219.449968299999	20	1	FALSE	"[-0.046296296296296294, -0.046296296296296294, -0.046296296296296294, -0.046296296296296294, -0.046296296296296294, -0.046296296296296294, -0.046296296296296294, -0.046296296296296294, -0.046296296296296294, -0.046296296296296294, -0.046296296296296294, -0.046296296296296294, -0.046296296296296294, -0.046296296296296294, -0.046296296296296294, -0.046296296296296294, -0.046296296296296294, -0.046296296296296294, -0.046296296296296294, -0.046296296296296294, -0.6787037037037037]"	"[-0.4046296296296296, -0.4046296296296296, -0.4046296296296296, -0.4046296296296296, -0.4046296296296296, -0.4046296296296296, -0.4046296296296296, -0.4046296296296296, -0.4046296296296296, -0.4046296296296296, -0.4046296296296296, -0.4046296296296296, -0.4046296296296296, -0.4046296296296296, -0.4046296296296296, -0.4046296296296296, -0.4046296296296296, -0.4046296296296296, -0.4046296296296296, -0.4046296296296296, 0.3888888888888889]"	"[1, 1, 1, 1, 1, 1, 1, 1, 1, 1, 1, 1, 1, 1, 1, 1, 1, 1, 1, 1, 0]"	"[0, 0, 0, 0, 0, 0, 0, 0, 0, 0, 0, 0, 0, 0, 0, 0, 0, 0, 0, 0, 0]"	"[0, 0, 0, 0, 0, 0, 0, 0, 0, 0, 0, 0, 0, 0, 0, 0, 0, 0, 0, 0, 1]"	"[0.46710299999904237, 0.6253441999997449, 0.783632900000157, 0.9421210999989853, 1.1171242000000348, 1.275523999998768, 1.483879600000364, 1.6586781999994855, 1.8170169000004535, 1.992068499999732, 2.1670837000001484, 2.375413399999161, 2.550554399998873, 2.7422528999995848, 2.9256341000000248, 3.0843167999992147, 3.2756300999990344, 3.4506170000004204, 3.8520673000002716, 4.0757140000005165, 5.125864100000399]"	20	"[0.46517449999919336, 0.6234072999995988, 0.7817035999996733, 0.9401894000002358, 1.115187800000058, 1.2735897000002296, 1.481945599998653, 1.6567446999997628, 1.8150799999984883, 1.9901334999995015, 2.165145899998606, 2.3734774999993533, 2.548618400000123, 2.7403227999984665, 2.9237010999986524, 3.0825508999987505, 3.2736951999995654, 3.4486829999987094, 3.8502996999995958, 4.073791499999061]"	"[0.5481745999986742, 0.7148631000000023, 0.8815336999996362, 1.0399206999991293, 1.2149078000002191, 1.406551899999613, 1.5899547999997594, 1.7566611999991437, 1.9233143999990716, 2.1149509999995644, 2.289966299998923, 2.49832669999887, 2.6650018000000273, 2.8484771999992518, 3.031694499999503, 3.206686300000001, 3.3900410999995074, 3.565083699999377, 3.956785200000013, 4.190099399998871]"	219.451103200001	219.456500300001	220.948512200001	220.9566559	NA	NA	NA	NA	NA	NA	NA	16	"01"	"2024-02-08_11h10.04.537"	"BART_exp"	"2023.2.3"	119.89846997545	"2024-02-08 11h10.24.552487 +0100"	NA
"balloon.png"	127	0	19	19	29	220.9566559	NA	NA	NA	NA	NA	NA	NA	NA	NA	NA	NA	NA	220.948690200001	220.9566559	220.9566559	220.9566559	220.9566559	220.9566559	0.00561779999952705	0.00561779999952705	0.00561779999952705	220.9566559	230.1923842	33	1.65	FALSE	"[-0.07777777777777778, -0.07777777777777778, -0.07777777777777778, -0.07777777777777778, -0.07777777777777778, -0.07777777777777778, -0.07777777777777778, -0.07777777777777778, -0.07777777777777778, -0.07777777777777778, -0.07777777777777778, -0.07777777777777778, -0.07777777777777778, -0.07777777777777778, -0.07777777777777778, -0.07777777777777778, -0.07777777777777778, -0.07777777777777778, -0.07777777777777778, -0.07777777777777778, -0.07777777777777778, -0.07777777777777778, -0.07777777777777778, -0.07777777777777778, -0.07777777777777778, -0.07777777777777778, -0.07777777777777778, -0.07777777777777778, -0.07777777777777778, -0.07777777777777778, -0.07777777777777778, -0.07777777777777778, -0.07777777777777778, -0.7388888888888889]"	"[-0.40925925925925927, -0.40925925925925927, -0.40925925925925927, -0.40925925925925927, -0.40925925925925927, -0.40925925925925927, -0.40925925925925927, -0.40925925925925927, -0.40925925925925927, -0.40925925925925927, -0.40925925925925927, -0.40925925925925927, -0.40925925925925927, -0.40925925925925927, -0.40925925925925927, -0.40925925925925927, -0.40925925925925927, -0.40925925925925927, -0.40925925925925927, -0.40925925925925927, -0.40925925925925927, -0.40925925925925927, -0.40925925925925927, -0.40925925925925927, -0.40925925925925927, -0.40925925925925927, -0.40925925925925927, -0.40925925925925927, -0.40925925925925927, -0.40925925925925927, -0.40925925925925927, -0.40925925925925927, -0.40925925925925927, 0.3972222222222222]"	"[1, 1, 1, 1, 1, 1, 1, 1, 1, 1, 1, 1, 1, 1, 1, 1, 1, 1, 1, 1, 1, 1, 1, 1, 1, 1, 1, 1, 1, 1, 1, 1, 1, 0]"	"[0, 0, 0, 0, 0, 0, 0, 0, 0, 0, 0, 0, 0, 0, 0, 0, 0, 0, 0, 0, 0, 0, 0, 0, 0, 0, 0, 0, 0, 0, 0, 0, 0, 0]"	"[0, 0, 0, 0, 0, 0, 0, 0, 0, 0, 0, 0, 0, 0, 0, 0, 0, 0, 0, 0, 0, 0, 0, 0, 0, 0, 0, 0, 0, 0, 0, 0, 0, 1]"	"[0.5170904000005976, 0.6671755999996094, 0.8421409000002313, 1.0003042999996978, 1.1919825000004494, 1.4003102999995463, 1.5753569999997126, 1.7586675999991712, 1.9670229999992443, 2.125556400000278, 2.3172047000007296, 2.5255422000009276, 2.7089185000004363, 2.900590799999918, 3.108927200000835, 3.2922739000005095, 3.483947700000499, 3.6923160000005737, 3.8839700000007724, 4.075666799999453, 4.2592055999994045, 4.475703000000067, 4.642368799999531, 4.83413069999915, 5.017407800000001, 5.234034999999494, 5.509126799999649, 6.39230999999927, 6.8425741999999445, 7.40935460000037, 7.67590569999993, 7.9757998999994015, 8.28430119999939, 9.24275309999939]"	33	"[0.5152182999991055, 0.6653004999989207, 0.8402636999999231, 0.9984234000003198, 1.1901034000002255, 1.3984270999990258, 1.573474900000292, 1.75678489999882, 1.9651420999998663, 2.1236759000003076, 2.3153408999987732, 2.5236619999996037, 2.707036199999493, 2.898708299999271, 3.107050499998877, 3.290390699999989, 3.4820646999996825, 3.6904328999989957, 3.882093000000168, 4.073789699999907, 4.257329299998673, 4.473825199998828, 4.640484999999899, 4.832247199999983, 5.015528599999016, 5.23215589999927, 5.5072447000002285, 6.390431199999512, 6.840691899999001, 7.407476999998835, 7.674033999999665, 7.973917600000277, 8.282425800000055]"	"[0.5898837999993702, 0.7815950000003795, 0.9483385999992606, 1.1067829999992682, 1.2899954000004072, 1.4982841000000917, 1.6816195999999763, 1.8568273000000772, 2.048332099999243, 2.240105400000175, 2.423350400000345, 2.6317031999988103, 2.82342349999999, 3.0233917999994446, 3.215104999999312, 3.3984232999991946, 3.6069683999994595, 3.806791400000293, 4.006791799998609, 4.190199099999518, 4.365165100000013, 4.5734967999997025, 4.756904399999257, 4.956848499999978, 5.14022549999936, 5.348699000000124, 5.665278999998918, 6.4986642000003485, 6.95699439999953, 7.515486999998757, 7.790439099999276, 8.08213269999942, 8.382103500000085]"	230.1935627	230.1989082	231.690944100001	231.707369400001	NA	NA	NA	NA	NA	NA	NA	16	"01"	"2024-02-08_11h10.04.537"	"BART_exp"	"2023.2.3"	119.89846997545	"2024-02-08 11h10.24.552487 +0100"	NA
"balloon.png"	66	0	20	20	15	231.707369400001	NA	NA	NA	NA	NA	NA	NA	NA	NA	NA	NA	NA	231.691132800001	231.707369400001	231.707369400001	231.707369400001	231.707369400001	231.707369400001	-0.00082690000090224	-0.00082690000090224	-0.00082690000090224	231.707369400001	239.117772200001	28	1.4	FALSE	"[-0.1361111111111111, -0.1361111111111111, -0.1361111111111111, -0.1361111111111111, -0.1361111111111111, -0.1361111111111111, -0.1361111111111111, -0.1361111111111111, -0.1361111111111111, -0.1361111111111111, -0.1361111111111111, -0.1361111111111111, -0.1361111111111111, -0.1361111111111111, -0.1361111111111111, -0.1361111111111111, -0.1361111111111111, -0.1361111111111111, -0.1361111111111111, -0.1361111111111111, -0.1361111111111111, -0.1361111111111111, -0.1361111111111111, -0.1361111111111111, -0.1361111111111111, -0.1361111111111111, -0.1361111111111111, -0.1361111111111111, -0.7981481481481482]"	"[-0.4064814814814815, -0.4064814814814815, -0.4064814814814815, -0.4064814814814815, -0.4064814814814815, -0.4064814814814815, -0.4064814814814815, -0.4064814814814815, -0.4064814814814815, -0.4064814814814815, -0.4064814814814815, -0.4064814814814815, -0.4064814814814815, -0.4064814814814815, -0.4064814814814815, -0.4064814814814815, -0.4064814814814815, -0.4064814814814815, -0.4064814814814815, -0.4064814814814815, -0.4064814814814815, -0.4064814814814815, -0.4064814814814815, -0.4064814814814815, -0.4064814814814815, -0.4064814814814815, -0.4064814814814815, -0.4064814814814815, 0.37962962962962965]"	"[1, 1, 1, 1, 1, 1, 1, 1, 1, 1, 1, 1, 1, 1, 1, 1, 1, 1, 1, 1, 1, 1, 1, 1, 1, 1, 1, 1, 0]"	"[0, 0, 0, 0, 0, 0, 0, 0, 0, 0, 0, 0, 0, 0, 0, 0, 0, 0, 0, 0, 0, 0, 0, 0, 0, 0, 0, 0, 0]"	"[0, 0, 0, 0, 0, 0, 0, 0, 0, 0, 0, 0, 0, 0, 0, 0, 0, 0, 0, 0, 0, 0, 0, 0, 0, 0, 0, 0, 1]"	"[0.45880399999987276, 0.6587552000000869, 0.8169481999993877, 0.9835882999996102, 1.150470700000369, 1.3254359000002296, 1.4921252999993158, 1.6588441999992938, 1.8337307999991026, 1.9920504000001529, 2.167064900000696, 2.3588557000002766, 2.5255644999997457, 2.842034400000557, 3.292253699999492, 3.4672381000000314, 3.6338434999997844, 3.7921298000001116, 3.9588997999999265, 4.134085600000617, 4.302105599999777, 4.634732799999256, 4.867403599999307, 5.25915890000033, 5.81729230000019, 6.000625000000582, 6.1673829999999725, 6.309197599999607, 7.425720699999147]"	28	"[0.4531483999999182, 0.6530908999993699, 0.8112866999999824, 0.9779259999995702, 1.1448081999988062, 1.3197746999994706, 1.4864587999982177, 1.6531903999984934, 1.828067899999951, 1.9863912999990134, 2.1613962999999785, 2.353190399999221, 2.5199022999986482, 2.836370999999417, 3.2865892999998323, 3.461576099998638, 3.628175199999532, 3.78646739999931, 3.953236499999548, 4.128416999999899, 4.296600199999375, 4.629240099999151, 4.861742199998844, 5.253560499999367, 5.8116249999984575, 5.994958899998892, 6.161720299998706, 6.303530999999566]"	"[0.5610588999988977, 0.7612018999989232, 0.9111399999983405, 1.069533699999738, 1.244472099999257, 1.419475799999418, 1.6028304999999818, 1.752864199999749, 1.927829499998552, 2.1029165999989345, 2.2695735999986937, 2.4445355999996536, 2.619813299999805, 2.9446077999982663, 3.3863077999994857, 3.5613036999984615, 3.7280458999994153, 3.8779713999992964, 4.061517099999037, 4.228035699999964, 4.369657899998856, 4.736403999999311, 4.995075299999371, 5.344774699999107, 5.911440499998207, 6.061465299999327, 6.23652569999831, 6.386480499999379]"	239.118835499999	239.1245344	240.6164973	240.63298	NA	NA	NA	NA	NA	NA	NA	16	"01"	"2024-02-08_11h10.04.537"	"BART_exp"	"2023.2.3"	119.89846997545	"2024-02-08 11h10.24.552487 +0100"	NA
"balloon.png"	14	0	21	21	3	240.63298	NA	NA	NA	NA	NA	NA	NA	NA	NA	NA	NA	NA	240.6166677	240.63298	240.63298	240.63298	240.63298	240.63298	-0.00091790000078617	-0.00091790000078617	-0.00091790000078617	240.63298	244.5186087	15	0.7	TRUE	"[-0.08148148148148149, -0.08148148148148149, -0.08148148148148149, -0.08148148148148149, -0.08148148148148149, -0.08148148148148149, -0.08148148148148149, -0.08148148148148149, -0.08148148148148149, -0.08148148148148149, -0.08148148148148149, -0.08148148148148149, -0.08148148148148149, -0.08148148148148149, -0.08148148148148149]"	"[-0.4222222222222222, -0.4222222222222222, -0.4222222222222222, -0.4222222222222222, -0.4222222222222222, -0.4222222222222222, -0.4222222222222222, -0.4222222222222222, -0.4222222222222222, -0.4222222222222222, -0.4222222222222222, -0.4222222222222222, -0.4222222222222222, -0.4222222222222222, -0.4222222222222222]"	"[1, 1, 1, 1, 1, 1, 1, 1, 1, 1, 1, 1, 1, 1, 1]"	"[0, 0, 0, 0, 0, 0, 0, 0, 0, 0, 0, 0, 0, 0, 0]"	"[0, 0, 0, 0, 0, 0, 0, 0, 0, 0, 0, 0, 0, 0, 0]"	"[0.9921935000002122, 1.1755205999997997, 1.3339522999995097, 1.500721299998986, 1.6838088999993488, 1.850422499999695, 2.0422218999992765, 2.208935200000269, 2.40898659999948, 2.7173118999999133, 2.9589880000003177, 3.1673742000002676, 3.392434299999877, 3.58414780000021, 3.7757069999988744]"	15	"[0.9818214000006265, 1.1651385000004666, 1.3235705999995844, 1.4903415999997378, 1.673428400001285, 1.8400390000006155, 2.031838799999605, 2.1985612000007677, 2.398607600000105, 2.7069314000000304, 2.948611699999674, 3.157008100000894, 3.3820543000001635, 3.573771100000158, 3.7653267000005144]"	"[1.081492100000105, 1.256503900000098, 1.414840000001277, 1.5982088000000658, 1.7815747000004194, 1.9315751000012824, 2.148263200000656, 2.306626800000231, 2.5066382000004523, 2.8482858000006672, 3.065002100000129, 3.281647600000724, 3.4983348000005208, 3.6817026999997324, 3.8817603000006784]"	244.519421000001	244.5249348	246.016935400001	246.0333919	NA	NA	NA	NA	NA	NA	NA	16	"01"	"2024-02-08_11h10.04.537"	"BART_exp"	"2023.2.3"	119.89846997545	"2024-02-08 11h10.24.552487 +0100"	NA
"balloon.png"	123	0	22	22	28	246.0333919	NA	NA	NA	NA	NA	NA	NA	NA	NA	NA	NA	NA	246.017112400001	246.0333919	246.0333919	246.0333919	246.0333919	246.0333919	-0.00093180000112624	-0.00093180000112624	-0.00093180000112624	246.0333919	251.618763	18	0.9	FALSE	"[0.017592592592592594, 0.017592592592592594, 0.017592592592592594, 0.017592592592592594, 0.017592592592592594, 0.017592592592592594, 0.017592592592592594, 0.017592592592592594, 0.017592592592592594, 0.017592592592592594, 0.017592592592592594, 0.017592592592592594, 0.017592592592592594, 0.017592592592592594, 0.017592592592592594, 0.017592592592592594, 0.017592592592592594, 0.017592592592592594, -0.6759259259259259]"	"[-0.3851851851851852, -0.3851851851851852, -0.3851851851851852, -0.3851851851851852, -0.3851851851851852, -0.3851851851851852, -0.3851851851851852, -0.3851851851851852, -0.3851851851851852, -0.3851851851851852, -0.3851851851851852, -0.3851851851851852, -0.3851851851851852, -0.3851851851851852, -0.3851851851851852, -0.3851851851851852, -0.3851851851851852, -0.3851851851851852, 0.4]"	"[1, 1, 1, 1, 1, 1, 1, 1, 1, 1, 1, 1, 1, 1, 1, 1, 1, 1, 0]"	"[0, 0, 0, 0, 0, 0, 0, 0, 0, 0, 0, 0, 0, 0, 0, 0, 0, 0, 0]"	"[0, 0, 0, 0, 0, 0, 0, 0, 0, 0, 0, 0, 0, 0, 0, 0, 0, 0, 1]"	"[0.7339198999998189, 0.9172749999997905, 1.1087361000008968, 1.3004949000005581, 1.50880110000071, 1.6921622999998363, 1.9003310999996756, 2.1006765000001906, 2.4337052000009862, 2.60887940000066, 2.783889199999976, 2.9255395000000135, 3.1339444000004733, 3.5341643000010663, 3.717289600001095, 3.8840423000001465, 4.033853700000691, 4.433860600000116, 5.600739400000748]"	18	"[0.7239176000002772, 0.9072704999998678, 1.0987316999999166, 1.2904951999989862, 1.4987934999990102, 1.6821583000000828, 1.8903205999995407, 2.0906665999991674, 2.42369349999899, 2.5988741000001028, 2.773881799999799, 2.9155293999992864, 3.123937999998816, 3.5241557999997895, 3.707279700000072, 3.8740858000001026, 4.023845699999583, 4.423852399999305]"	"[0.8234732000000804, 1.0067983999997523, 1.1901631999990059, 1.4068427000001975, 1.6234786999993958, 1.8068769999990764, 2.006856099998913, 2.206891399999222, 2.506894899999679, 2.673555399998804, 2.8570437999987917, 3.0070601999996143, 3.248595799999748, 3.6319579999999405, 3.807091999999102, 3.9569964000002074, 4.115353799999866, 4.523688299999776]"	251.619714599999	251.625434900001	253.1173765	253.1338488	NA	NA	NA	NA	NA	NA	NA	16	"01"	"2024-02-08_11h10.04.537"	"BART_exp"	"2023.2.3"	119.89846997545	"2024-02-08 11h10.24.552487 +0100"	NA
"balloon.png"	18	0	23	23	4	253.1338488	NA	NA	NA	NA	NA	NA	NA	NA	NA	NA	NA	NA	253.1175516	253.1338488	253.1338488	253.1338488	253.1338488	253.1338488	-0.00082110000039392	-0.00082110000039392	-0.00082110000039392	253.1338488	258.0357764	17	0.85	FALSE	"[-0.05648148148148148, -0.05648148148148148, -0.05648148148148148, -0.05648148148148148, -0.05648148148148148, -0.05648148148148148, -0.05648148148148148, -0.05648148148148148, -0.05648148148148148, -0.05648148148148148, -0.05648148148148148, -0.05648148148148148, -0.05648148148148148, -0.05648148148148148, -0.05648148148148148, -0.05648148148148148, -0.05648148148148148, -0.7611111111111111]"	"[-0.3907407407407407, -0.3907407407407407, -0.3907407407407407, -0.3907407407407407, -0.3907407407407407, -0.3907407407407407, -0.3907407407407407, -0.3907407407407407, -0.3907407407407407, -0.3907407407407407, -0.3907407407407407, -0.3907407407407407, -0.3907407407407407, -0.3907407407407407, -0.3907407407407407, -0.3907407407407407, -0.3907407407407407, 0.375]"	"[1, 1, 1, 1, 1, 1, 1, 1, 1, 1, 1, 1, 1, 1, 1, 1, 1, 0]"	"[0, 0, 0, 0, 0, 0, 0, 0, 0, 0, 0, 0, 0, 0, 0, 0, 0, 0]"	"[0, 0, 0, 0, 0, 0, 0, 0, 0, 0, 0, 0, 0, 0, 0, 0, 0, 1]"	"[0.33368719999998575, 0.5086572999989585, 0.683840899999268, 0.8505521999995835, 1.0173732000002929, 1.192033100000117, 1.3754288999989512, 1.5504626000001736, 1.692112200000338, 1.8673254999994242, 2.0506071999989217, 2.492279000000053, 2.759277799999836, 3.1839875999994547, 3.6507618999985425, 3.809061500000098, 3.950645299999451, 4.917325999998866]"	17	"[0.3240114000000176, 0.4989803000007669, 0.6741632000012032, 0.8408747000012227, 1.007698999999775, 1.1823475000001054, 1.365746900000886, 1.5407893000010517, 1.6824372000010044, 1.857643100000132, 2.04092750000018, 2.4825993000013113, 2.7497700000003533, 3.1743096000009245, 3.6410881000010704, 3.7993850000002567, 3.94096030000037]"	"[0.4238412000013341, 0.5904903999999078, 0.7738629000014043, 0.948943400000644, 1.115525000001071, 1.2655446999997366, 1.4405402000011236, 1.6073106000003463, 1.7739156000006915, 1.93225750000056, 2.0990295999999944, 2.5739552000013646, 2.8504954, 3.274018400001296, 3.740771400000085, 3.8991280000009283, 4.024106400000164]"	258.036698899999	258.042527699999	259.534551000001	259.550978000001	NA	NA	NA	NA	NA	NA	NA	16	"01"	"2024-02-08_11h10.04.537"	"BART_exp"	"2023.2.3"	119.89846997545	"2024-02-08 11h10.24.552487 +0100"	NA
"balloon.png"	118	0	24	24	27	259.550978000001	NA	NA	NA	NA	NA	NA	NA	NA	NA	NA	NA	NA	259.534734000001	259.550978000001	259.550978000001	259.550978000001	259.550978000001	259.550978000001	-0.00063320000117528	-0.00063320000117528	-0.00063320000117528	259.550978000001	265.4195946	24	1.2	FALSE	"[0.001851851851851852, 0.001851851851851852, 0.001851851851851852, 0.001851851851851852, 0.001851851851851852, 0.001851851851851852, 0.001851851851851852, 0.001851851851851852, 0.001851851851851852, 0.001851851851851852, 0.001851851851851852, 0.001851851851851852, 0.001851851851851852, 0.001851851851851852, 0.001851851851851852, 0.001851851851851852, 0.001851851851851852, 0.001851851851851852, 0.001851851851851852, 0.001851851851851852, 0.001851851851851852, 0.001851851851851852, 0.001851851851851852, 0.001851851851851852, -0.7148148148148148]"	"[-0.38796296296296295, -0.38796296296296295, -0.38796296296296295, -0.38796296296296295, -0.38796296296296295, -0.38796296296296295, -0.38796296296296295, -0.38796296296296295, -0.38796296296296295, -0.38796296296296295, -0.38796296296296295, -0.38796296296296295, -0.38796296296296295, -0.38796296296296295, -0.38796296296296295, -0.38796296296296295, -0.38796296296296295, -0.38796296296296295, -0.38796296296296295, -0.38796296296296295, -0.38796296296296295, -0.38796296296296295, -0.38796296296296295, -0.38796296296296295, 0.37777777777777777]"	"[1, 1, 1, 1, 1, 1, 1, 1, 1, 1, 1, 1, 1, 1, 1, 1, 1, 1, 1, 1, 1, 1, 1, 1, 0]"	"[0, 0, 0, 0, 0, 0, 0, 0, 0, 0, 0, 0, 0, 0, 0, 0, 0, 0, 0, 0, 0, 0, 0, 0, 0]"	"[0, 0, 0, 0, 0, 0, 0, 0, 0, 0, 0, 0, 0, 0, 0, 0, 0, 0, 0, 0, 0, 0, 0, 0, 1]"	"[0.4171167000004061, 0.6087691000011546, 0.7586067000011099, 0.9169681000003038, 1.100294900001245, 1.2919919000014488, 1.4754881000008027, 1.6670306000014534, 1.8421762000016315, 2.0088654999999562, 2.2005357000016375, 2.3839354000010644, 2.5672305000007327, 2.8255860000008397, 3.025584600000002, 3.2089692000008654, 3.3923440000016853, 3.5671709000016563, 3.7338376000006974, 4.025678800000605, 4.217525600000954, 4.48398250000173, 4.775713700000779, 5.083918500000436, 5.88396720000128]"	24	"[0.4146103999992192, 0.6062590999990789, 0.7560993999995844, 0.9144543999991583, 1.0977927999992971, 1.2894868000003044, 1.4729819999993197, 1.664527499999167, 1.8396661999995558, 2.0063614999999118, 2.198023799999646, 2.381439799999498, 2.564720099999249, 2.8230757000001176, 3.023078099999111, 3.2064661999993405, 3.389839800000118, 3.564662299999327, 3.731326099999933, 4.023175999998784, 4.215020300000106, 4.481475599999612, 4.773206099998788, 5.081407199999376]"	"[0.5060138999997434, 0.6727859000002354, 0.8559619999996357, 1.0226757000000362, 1.2143282999986695, 1.3978300999988278, 1.5893550999990111, 1.772671499998978, 1.939420099999552, 2.1393669999997655, 2.314415299999382, 2.489418099999966, 2.6561127999993914, 2.92291429999932, 3.139492299998892, 3.322846600000048, 3.4811714999996184, 3.6561682999999903, 3.831235599998763, 4.131178800000271, 4.3395490999992035, 4.58955160000005, 4.88125779999973, 5.156254699999408]"	265.420581800001	265.4263909	266.918423500001	266.9348333	NA	NA	NA	NA	NA	NA	NA	16	"01"	"2024-02-08_11h10.04.537"	"BART_exp"	"2023.2.3"	119.89846997545	"2024-02-08 11h10.24.552487 +0100"	NA
"balloon.png"	49	0	25	25	11	266.9348333	NA	NA	NA	NA	NA	NA	NA	NA	NA	NA	NA	NA	266.9186073	266.9348333	266.9348333	266.9348333	266.9348333	266.9348333	-0.00063960000079532	-0.00063960000079532	-0.00063960000079532	266.9348333	271.128506200001	16	0.8	FALSE	"[-0.075, -0.075, -0.075, -0.075, -0.075, -0.075, -0.075, -0.075, -0.075, -0.075, -0.075, -0.075, -0.075, -0.075, -0.075, -0.075, -0.7342592592592593]"	"[-0.4, -0.4, -0.4, -0.4, -0.4, -0.4, -0.4, -0.4, -0.4, -0.4, -0.4, -0.4, -0.4, -0.4, -0.4, -0.4, 0.4148148148148148]"	"[1, 1, 1, 1, 1, 1, 1, 1, 1, 1, 1, 1, 1, 1, 1, 1, 0]"	"[0, 0, 0, 0, 0, 0, 0, 0, 0, 0, 0, 0, 0, 0, 0, 0, 0]"	"[0, 0, 0, 0, 0, 0, 0, 0, 0, 0, 0, 0, 0, 0, 0, 0, 1]"	"[0.44210410000050615, 0.6170493999998143, 0.7921640999993542, 0.9587154999990162, 1.1419219999988854, 1.3087139999988722, 1.4754400000001624, 1.6421571999999287, 1.8004655999993702, 1.9838012000000163, 2.167014000000563, 2.3253485999994155, 2.4838156000005256, 2.658903999999893, 3.008930500000133, 3.308738899999298, 4.208972700000231]"	16	"[0.4334617000004073, 0.608403800000815, 0.7835180000001856, 0.9500647000004392, 1.1332703999996738, 1.3000611999996181, 1.4667876999992586, 1.6335065999992366, 1.7918169000004127, 1.9751522000005934, 2.1583630999994057, 2.316698599999654, 2.4751634000003833, 2.650254899999709, 3.0002831000001606, 3.3000888000005943]"	"[0.5415149000000383, 0.6999448000005941, 0.8747806999999739, 1.066477099999247, 1.216468900000109, 1.374800999999934, 1.5415334999997867, 1.708153300000049, 1.8748756000004505, 2.074997699999585, 2.2415813999996317, 2.416569499999241, 2.5916003000002092, 2.749924600000668, 3.124963000000207, 3.416618799999924]"	271.129356200001	271.135140100001	272.6270991	272.6435643	NA	NA	NA	NA	NA	NA	NA	16	"01"	"2024-02-08_11h10.04.537"	"BART_exp"	"2023.2.3"	119.89846997545	"2024-02-08 11h10.24.552487 +0100"	NA
"balloon.png"	62	0	26	26	14	272.6435643	NA	NA	NA	NA	NA	NA	NA	NA	NA	NA	NA	NA	272.6272735	272.6435643	272.6435643	272.6435643	272.6435643	272.6435643	-0.00084079999942332	-0.00084079999942332	-0.00084079999942332	272.6435643	280.237350400001	31	1.55	FALSE	"[0.044444444444444446, 0.044444444444444446, 0.044444444444444446, 0.044444444444444446, 0.044444444444444446, 0.044444444444444446, 0.044444444444444446, 0.044444444444444446, 0.044444444444444446, 0.044444444444444446, 0.044444444444444446, 0.044444444444444446, 0.044444444444444446, 0.044444444444444446, 0.044444444444444446, 0.044444444444444446, 0.044444444444444446, 0.044444444444444446, 0.044444444444444446, 0.044444444444444446, 0.044444444444444446, 0.044444444444444446, 0.044444444444444446, 0.044444444444444446, 0.044444444444444446, 0.044444444444444446, 0.044444444444444446, 0.044444444444444446, 0.044444444444444446, 0.044444444444444446, 0.044444444444444446, -0.8157407407407408]"	"[-0.3768518518518518, -0.3768518518518518, -0.3768518518518518, -0.3768518518518518, -0.3768518518518518, -0.3768518518518518, -0.3768518518518518, -0.3768518518518518, -0.3768518518518518, -0.3768518518518518, -0.3768518518518518, -0.3768518518518518, -0.3768518518518518, -0.3768518518518518, -0.3768518518518518, -0.3768518518518518, -0.3768518518518518, -0.3768518518518518, -0.3768518518518518, -0.3768518518518518, -0.3768518518518518, -0.3768518518518518, -0.3768518518518518, -0.3768518518518518, -0.3768518518518518, -0.3768518518518518, -0.3768518518518518, -0.3768518518518518, -0.3768518518518518, -0.3768518518518518, -0.3768518518518518, 0.3824074074074074]"	"[1, 1, 1, 1, 1, 1, 1, 1, 1, 1, 1, 1, 1, 1, 1, 1, 1, 1, 1, 1, 1, 1, 1, 1, 1, 1, 1, 1, 1, 1, 1, 0]"	"[0, 0, 0, 0, 0, 0, 0, 0, 0, 0, 0, 0, 0, 0, 0, 0, 0, 0, 0, 0, 0, 0, 0, 0, 0, 0, 0, 0, 0, 0, 0, 0]"	"[0, 0, 0, 0, 0, 0, 0, 0, 0, 0, 0, 0, 0, 0, 0, 0, 0, 0, 0, 0, 0, 0, 0, 0, 0, 0, 0, 0, 0, 0, 0, 1]"	"[0.4420501999993576, 0.6502970000001369, 0.8003683000006276, 0.9922219000000041, 1.2005208000009588, 1.5255286999999953, 1.7672282000003179, 1.9172232000000804, 2.0838724999994156, 2.2588912999999593, 2.4589381000005233, 2.6839870999992854, 2.8840092000009463, 3.0171479000000545, 3.2254824999999983, 3.392178199999762, 3.5423453000003065, 3.7256864000009955, 3.9090202000006684, 4.050735599999825, 4.2173309000008885, 4.3755786000001535, 4.533914699999514, 4.675918700000693, 5.075770600000396, 5.334132100000716, 5.567321000000447, 5.775654299999587, 5.960359000000608, 6.1423704000008, 6.700926999999865, 7.609159499999805]"	31	"[0.4326622000007774, 0.6409050000002026, 0.7909763999996358, 0.9828364000004512, 1.1911383000006026, 1.5161426000013307, 1.757837400000426, 1.907830100000865, 2.0744797000006656, 2.2494980999999825, 2.449546600000758, 2.6746012000003248, 2.8746284000008018, 3.0077555000007123, 3.216092700000445, 3.3827849000008428, 3.5329572999999073, 3.7162980000011885, 3.8996278000013262, 4.041346699999849, 4.207938900000954, 4.366186600000219, 4.524521400000594, 4.666540399999576, 5.066382799999701, 5.324740699999893, 5.557933600000979, 5.766262799999822, 5.9511338000011165, 6.132980000000316, 6.691542399999889]"	"[0.5241057000002911, 0.6991065000001981, 0.9075740999996924, 1.099320200000875, 1.3158260000000155, 1.640837000000829, 1.83250980000048, 2.015905800000837, 2.1825538000011875, 2.3909333999999944, 2.5992593000009947, 2.7743086999998923, 2.9742483999998512, 3.1242995000011433, 3.2992634000002, 3.4827600000007806, 3.6410403000008955, 3.824311399999715, 3.999320599999919, 4.1577242000003025, 4.307685699999638, 4.432756300000619, 4.607721399999718, 4.782834400000866, 5.149400300000707, 5.449594400000933, 5.699484000000666, 5.86623900000086, 6.057812200000626, 6.232861200000116, 6.7579789999999775]"	280.2384351	280.244093200001	281.736074500001	281.7608917	NA	NA	NA	NA	NA	NA	NA	16	"01"	"2024-02-08_11h10.04.537"	"BART_exp"	"2023.2.3"	119.89846997545	"2024-02-08 11h10.24.552487 +0100"	NA
"balloon.png"	88	0	27	27	20	281.7608917	NA	NA	NA	NA	NA	NA	NA	NA	NA	NA	NA	NA	281.736247500001	281.7608917	281.7608917	281.7608917	281.7608917	281.7608917	-0.00095619999956397	-0.00095619999956397	-0.00095619999956397	281.7608917	289.854794000001	35	1.75	FALSE	"[-0.044444444444444446, -0.044444444444444446, -0.044444444444444446, -0.044444444444444446, -0.044444444444444446, -0.044444444444444446, -0.044444444444444446, -0.044444444444444446, -0.044444444444444446, -0.044444444444444446, -0.044444444444444446, -0.044444444444444446, -0.044444444444444446, -0.044444444444444446, -0.044444444444444446, -0.044444444444444446, -0.044444444444444446, -0.044444444444444446, -0.044444444444444446, -0.044444444444444446, -0.044444444444444446, -0.044444444444444446, -0.044444444444444446, -0.044444444444444446, -0.044444444444444446, -0.044444444444444446, -0.044444444444444446, -0.044444444444444446, -0.044444444444444446, -0.044444444444444446, -0.044444444444444446, -0.044444444444444446, -0.044444444444444446, -0.044444444444444446, -0.044444444444444446, -0.7833333333333333]"	"[-0.3861111111111111, -0.3861111111111111, -0.3861111111111111, -0.3861111111111111, -0.3861111111111111, -0.3861111111111111, -0.3861111111111111, -0.3861111111111111, -0.3861111111111111, -0.3861111111111111, -0.3861111111111111, -0.3861111111111111, -0.3861111111111111, -0.3861111111111111, -0.3861111111111111, -0.3861111111111111, -0.3861111111111111, -0.3861111111111111, -0.3861111111111111, -0.3861111111111111, -0.3861111111111111, -0.3861111111111111, -0.3861111111111111, -0.3861111111111111, -0.3861111111111111, -0.3861111111111111, -0.3861111111111111, -0.3861111111111111, -0.3861111111111111, -0.3861111111111111, -0.3861111111111111, -0.3861111111111111, -0.3861111111111111, -0.3861111111111111, -0.3861111111111111, 0.39351851851851855]"	"[1, 1, 1, 1, 1, 1, 1, 1, 1, 1, 1, 1, 1, 1, 1, 1, 1, 1, 1, 1, 1, 1, 1, 1, 1, 1, 1, 1, 1, 1, 1, 1, 1, 1, 1, 0]"	"[0, 0, 0, 0, 0, 0, 0, 0, 0, 0, 0, 0, 0, 0, 0, 0, 0, 0, 0, 0, 0, 0, 0, 0, 0, 0, 0, 0, 0, 0, 0, 0, 0, 0, 0, 0]"	"[0, 0, 0, 0, 0, 0, 0, 0, 0, 0, 0, 0, 0, 0, 0, 0, 0, 0, 0, 0, 0, 0, 0, 0, 0, 0, 0, 0, 0, 0, 0, 0, 0, 0, 0, 1]"	"[0.42548700000043027, 0.6088307999998506, 0.7671427999994194, 0.9337945999996009, 1.0836902000010014, 1.2670565999997052, 1.4421041999994486, 1.617203800000425, 1.8005611000007775, 1.9839073000002827, 2.1672409000002517, 2.3590273999998317, 2.5255739000003814, 2.7087886999997863, 2.8921490000011545, 3.0423160000009375, 3.2256725000006554, 3.3673524999994697, 3.5340233000006265, 3.700516000000789, 3.8755634000008286, 4.042257200000677, 4.217474900000525, 4.6092215000007855, 4.925601299999471, 5.192627200000061, 5.384194600001138, 5.542497100001128, 5.725722000001042, 5.875679400000081, 6.092377200000556, 6.434213599999566, 6.9344185999998444, 7.100879400000849, 7.234272499999861, 8.117645899999843]"	35	"[0.4144553000005544, 0.5978214999995544, 0.7561127999997552, 0.9227609999998094, 1.072659499999645, 1.2560314000002109, 1.431072100000165, 1.6061764000005496, 1.789531000000352, 1.9728754999996454, 2.156211400000757, 2.347994400000971, 2.5145431000000826, 2.6977540999996563, 2.8811153000006016, 3.031290799999624, 3.2146415000006527, 3.3563212000008207, 3.5229973000004975, 3.689486499999475, 3.8645350000006147, 4.031227800000124, 4.206441500000437, 4.598204399999304, 4.914566999999806, 5.181604100000186, 5.37316120000105, 5.531468600000153, 5.71468620000087, 5.86464370000067, 6.081343800000468, 6.423198000000411, 6.923390600000857, 7.089851599999747, 7.223243000000366]"	"[0.4975217999999586, 0.6656352000009065, 0.8474889999997686, 1.0141958999993221, 1.180840700000772, 1.3558475999998336, 1.5392102999994677, 1.7147611000000325, 1.9142353999995976, 2.08928190000006, 2.272585299999264, 2.4642877999995108, 2.6226657000006526, 2.7810583999998926, 2.9559472000000824, 3.1393069999994623, 3.297686199999589, 3.456034400000135, 3.63257429999976, 3.7893674000006285, 3.9561412000002747, 4.131098699999711, 4.331069699999716, 4.697753000000375, 5.022819499999969, 5.2644546999999875, 5.481212400000004, 5.639777200000026, 5.789506499999334, 5.947838399999455, 6.189699599999585, 6.531212399999276, 7.022969699999521, 7.181273399999554, 7.33965999999964]"	289.8560148	289.8614435	291.3534743	291.3616081	NA	NA	NA	NA	NA	NA	NA	16	"01"	"2024-02-08_11h10.04.537"	"BART_exp"	"2023.2.3"	119.89846997545	"2024-02-08 11h10.24.552487 +0100"	NA
"balloon.png"	101	0	28	28	23	291.3616081	NA	NA	NA	NA	NA	NA	NA	NA	NA	NA	NA	NA	291.353658600001	291.3616081	291.3616081	291.3616081	291.3616081	291.3616081	0.00565419999838923	0.00565419999838923	0.00565419999838923	291.3616081	296.813464500001	22	1.1	FALSE	"[-0.17407407407407408, -0.17407407407407408, -0.17407407407407408, -0.17407407407407408, -0.17407407407407408, -0.17407407407407408, -0.17407407407407408, -0.17407407407407408, -0.17407407407407408, -0.17407407407407408, -0.17407407407407408, -0.17407407407407408, -0.17407407407407408, -0.17407407407407408, -0.17407407407407408, -0.17407407407407408, -0.17407407407407408, -0.17407407407407408, -0.17407407407407408, -0.17407407407407408, -0.17407407407407408, -0.17407407407407408, -0.700925925925926]"	"[-0.39166666666666666, -0.39166666666666666, -0.39166666666666666, -0.39166666666666666, -0.39166666666666666, -0.39166666666666666, -0.39166666666666666, -0.39166666666666666, -0.39166666666666666, -0.39166666666666666, -0.39166666666666666, -0.39166666666666666, -0.39166666666666666, -0.39166666666666666, -0.39166666666666666, -0.39166666666666666, -0.39166666666666666, -0.39166666666666666, -0.39166666666666666, -0.39166666666666666, -0.39166666666666666, -0.39166666666666666, 0.4009259259259259]"	"[1, 1, 1, 1, 1, 1, 1, 1, 1, 1, 1, 1, 1, 1, 1, 1, 1, 1, 1, 1, 1, 1, 0]"	"[0, 0, 0, 0, 0, 0, 0, 0, 0, 0, 0, 0, 0, 0, 0, 0, 0, 0, 0, 0, 0, 0, 0]"	"[0, 0, 0, 0, 0, 0, 0, 0, 0, 0, 0, 0, 0, 0, 0, 0, 0, 0, 0, 0, 0, 0, 1]"	"[0.5254349000006187, 0.7089503999995941, 0.8837215000003198, 1.075267399999575, 1.258643099999972, 1.4169815000004746, 1.592146999999386, 1.758812100000796, 1.9255166000002646, 2.100387200000114, 2.3005090999995446, 2.475371599999562, 2.642050800001016, 2.83373070000016, 3.008750200000577, 3.2089305000008608, 3.3506139000000985, 3.5255952999996225, 3.700598600000376, 3.8421292000002722, 4.184003000000303, 4.50899120000031, 5.45891230000052]"	22	"[0.5234830999997939, 0.7069967999996152, 0.8817663999998331, 1.0733087999997224, 1.256687700000839, 1.4150315999995655, 1.5901950000006764, 1.756860900000902, 1.9235616000005393, 2.0984291000004305, 2.2985580999993545, 2.473411599999963, 2.6400945000004867, 2.831791599999633, 3.006796800000302, 3.206974900000205, 3.348659299999781, 3.523639999999432, 3.698644300000524, 3.8401799999992363, 4.182051199999478, 4.507035099999484]"	"[0.6397928999995202, 0.8148371000006591, 0.9898537000008218, 1.1648478000006435, 1.3481993999994302, 1.50652749999972, 1.6899653000000399, 1.8649273000009998, 2.0315635000006296, 2.1817472000002454, 2.3817440000002534, 2.5649494000008417, 2.7399667000008776, 2.923289599999407, 3.0983288000006723, 3.25675450000017, 3.4400361999996676, 3.615025799999785, 3.765037700000903, 3.956689799999367, 4.281953499999872, 4.606737500000236]"	296.8144342	296.820260500001	298.3122119	298.3287017	NA	NA	NA	NA	NA	NA	NA	16	"01"	"2024-02-08_11h10.04.537"	"BART_exp"	"2023.2.3"	119.89846997545	"2024-02-08 11h10.24.552487 +0100"	NA
"balloon.png"	10	0	29	29	2	298.3287017	NA	NA	NA	NA	NA	NA	NA	NA	NA	NA	NA	NA	298.3123841	298.3287017	298.3287017	298.3287017	298.3287017	298.3287017	-0.00080890000026556	-0.00080890000026556	-0.00080890000026556	298.3287017	300.4725076	11	0.5	TRUE	"[-0.06574074074074074, -0.06666666666666667, -0.06666666666666667, -0.06759259259259259, -0.06759259259259259, -0.06759259259259259, -0.06759259259259259, -0.06759259259259259, -0.06759259259259259, -0.06759259259259259, -0.06759259259259259]"	"[-0.41203703703703703, -0.41203703703703703, -0.41203703703703703, -0.41388888888888886, -0.41388888888888886, -0.41388888888888886, -0.41388888888888886, -0.41388888888888886, -0.41388888888888886, -0.41388888888888886, -0.41388888888888886]"	"[1, 1, 1, 1, 1, 1, 1, 1, 1, 1, 1]"	"[0, 0, 0, 0, 0, 0, 0, 0, 0, 0, 0]"	"[0, 0, 0, 0, 0, 0, 0, 0, 0, 0, 0]"	"[0.49200569999993604, 0.6256610000000364, 0.7671991999995953, 0.9255554000010306, 1.0922730000002048, 1.2670823999997083, 1.4255606000006082, 1.567229899999802, 1.7339566999999079, 1.908756300001187, 2.0754412000005686]"	11	"[0.48777270000027784, 0.6214323000003787, 0.7629665000004024, 0.9213271999997232, 1.0880371000002924, 1.262847600000896, 1.421324500000992, 1.5629931000003126, 1.7297245000008843, 1.9045227999995404, 2.0712117000002763]"	"[0.5376297000002523, 0.6959748000008403, 0.862630600000557, 1.0126392000001943, 1.1959793000005448, 1.3376666000003752, 1.4876631000006455, 1.6543519999995624, 1.8377975000003062, 1.9960494999995717, 2.1462704000005033]"	300.473337200001	300.4789411	301.970812900001	301.978955300001	NA	NA	NA	NA	NA	NA	NA	16	"01"	"2024-02-08_11h10.04.537"	"BART_exp"	"2023.2.3"	119.89846997545	"2024-02-08 11h10.24.552487 +0100"	NA
NA	NA	NA	NA	NA	NA	NA	NA	NA	NA	NA	NA	NA	NA	NA	NA	NA	NA	NA	NA	NA	NA	NA	NA	NA	NA	NA	NA	NA	NA	NA	NA	NA	NA	NA	NA	NA	NA	NA	NA	NA	NA	NA	NA	NA	NA	301.9708508	301.978955300001	301.978955300001	309.3382014	"space"	7.35460860000057	"None"	16	"01"	"2024-02-08_11h10.04.537"	"BART_exp"	"2023.2.3"	119.89846997545	"2024-02-08 11h10.24.552487 +0100"	NA
