"diceImage"	"d_number"	"dice_loop.thisRepN"	"dice_loop.thisTrialN"	"dice_loop.thisN"	"dice_loop.thisIndex"	"thisRow.t"	"notes"	"Start.started"	"text_start.started"	"continue_start.started"	"mouse_start.started"	"Start.stopped"	"mouse_start.x"	"mouse_start.y"	"mouse_start.leftButton"	"mouse_start.midButton"	"mouse_start.rightButton"	"mouse_start.time"	"trial.started"	"box_dice.started"	"text_dice_header.started"	"text_gain.started"	"value_gain.started"	"text_bank.started"	"value_bank.started"	"img_dice_1.started"	"img_dice_2.started"	"img_dice_3.started"	"img_dice_4.started"	"img_dice_5.started"	"img_dice_6.started"	"img_dice_1_2.started"	"img_dice_3_4.started"	"img_dice_5_6.started"	"img_dice_1_2_3.started"	"img_dice_4_5_6.started"	"img_dice_1_2_3_4.started"	"img_dice_2_3_4_5.started"	"img_dice_3_4_5_6.started"	"text_value_header.started"	"text_value_1000.started"	"text_value_500.started"	"text_value_200.started"	"text_value_100.started"	"mouse_task.started"	"gain_sound.started"	"img_dice_throw_trials.started"	"gain_sound.stopped"	"img_dice_throw_trials.stopped"	"trial.stopped"	"mouse_task.x"	"mouse_task.y"	"mouse_task.leftButton"	"mouse_task.midButton"	"mouse_task.rightButton"	"mouse_task.time"	"choice"	"gain"	"loss_sound.started"	"End.started"	"text_end.started"	"key_end.started"	"End.stopped"	"key_end.keys"	"key_end.rt"	"key_end.duration"	"participant"	"session"	"date"	"expName"	"psychopyVersion"	"frameRate"	"expStart"	"...75"
NA	NA	NA	NA	NA	NA	NA	NA	0.0474207000806928	0.0531350998207927	0.0531350998207927	0.0477549997158348	22.2386067998596	"[0.7027777777777777]"	"[-0.40185185185185185]"	"[1]"	"[0]"	"[0]"	"[22.190282000228763]"	NA	NA	NA	NA	NA	NA	NA	NA	NA	NA	NA	NA	NA	NA	NA	NA	NA	NA	NA	NA	NA	NA	NA	NA	NA	NA	NA	NA	NA	NA	NA	NA	NA	NA	NA	NA	NA	NA	NA	NA	NA	NA	NA	NA	NA	NA	NA	NA	"04"	"03"	"2024-01-31_14h00.39.245"	"GDT_exp"	"2023.2.3"	119.994000645419	"2024-01-31 14h00.49.988485 +0100"	NA
"dice_4.png"	4	0	0	0	3	22.3213356002234	NA	NA	NA	NA	NA	NA	NA	NA	NA	NA	NA	NA	22.2434502998367	22.3213356002234	22.3213356002234	22.3213356002234	22.3213356002234	22.3213356002234	22.3213356002234	22.3213356002234	22.3213356002234	22.3213356002234	22.3213356002234	22.3213356002234	22.3213356002234	22.3213356002234	22.3213356002234	22.3213356002234	22.3213356002234	22.3213356002234	22.3213356002234	22.3213356002234	22.3213356002234	22.3213356002234	22.3213356002234	22.3213356002234	22.3213356002234	22.3213356002234	0.0226640002802014	4.29130730032921	26.5966274999082	5.79994400031865	28.1384085002355	28.099323600065	"[0.046296296296296294, 0.046296296296296294]"	"[-0.35648148148148145, -0.35648148148148145]"	"[1, 0]"	"[0, 0]"	"[0, 1]"	"[3.4959833002649248, 4.237490199971944]"	4	100	NA	NA	NA	NA	NA	NA	NA	NA	"04"	"03"	"2024-01-31_14h00.39.245"	"GDT_exp"	"2023.2.3"	119.994000645419	"2024-01-31 14h00.49.988485 +0100"	NA
"dice_2.png"	2	0	1	1	1	28.1384085002355	NA	NA	NA	NA	NA	NA	NA	NA	NA	NA	NA	NA	28.1001165001653	28.1384085002355	28.1384085002355	28.1384085002355	28.1384085002355	28.1384085002355	28.1384085002355	28.1384085002355	28.1384085002355	28.1384085002355	28.1384085002355	28.1384085002355	28.1384085002355	28.1384085002355	28.1384085002355	28.1384085002355	28.1384085002355	28.1384085002355	28.1384085002355	28.1384085002355	28.1384085002355	28.1384085002355	28.1384085002355	28.1384085002355	28.1384085002355	28.1384085002355	0.0155398999340832	NA	29.0384582001716	NA	30.5887278001755	30.5495668998919	"[0.046296296296296294, 0.046296296296296294]"	"[-0.35648148148148145, -0.35648148148148145]"	"[1, 0]"	"[0, 0]"	"[0, 1]"	"[0.3559046001173556, 0.8476145002059639]"	4	-100	0.863501099869609	NA	NA	NA	NA	NA	NA	NA	"04"	"03"	"2024-01-31_14h00.39.245"	"GDT_exp"	"2023.2.3"	119.994000645419	"2024-01-31 14h00.49.988485 +0100"	NA
"dice_1.png"	1	0	2	2	0	30.5887278001755	NA	NA	NA	NA	NA	NA	NA	NA	NA	NA	NA	NA	30.5501699000597	30.5887278001755	30.5887278001755	30.5887278001755	30.5887278001755	30.5887278001755	30.5887278001755	30.5887278001755	30.5887278001755	30.5887278001755	30.5887278001755	30.5887278001755	30.5887278001755	30.5887278001755	30.5887278001755	30.5887278001755	30.5887278001755	30.5887278001755	30.5887278001755	30.5887278001755	30.5887278001755	30.5887278001755	30.5887278001755	30.5887278001755	30.5887278001755	30.5887278001755	0.0146546000614762	NA	31.646962699946	NA	33.1970955999568	33.1496311998926	"[-0.22592592592592592, -0.22592592592592592]"	"[-0.36203703703703705, -0.36018518518518516]"	"[1, 0]"	"[0, 0]"	"[0, 1]"	"[0.023771699983626604, 1.0151673001237214]"	4	-100	1.03033079998568	NA	NA	NA	NA	NA	NA	NA	"04"	"03"	"2024-01-31_14h00.39.245"	"GDT_exp"	"2023.2.3"	119.994000645419	"2024-01-31 14h00.49.988485 +0100"	NA
"dice_6.png"	6	0	3	3	5	33.1970955999568	NA	NA	NA	NA	NA	NA	NA	NA	NA	NA	NA	NA	33.1501668998972	33.1970955999568	33.1970955999568	33.1970955999568	33.1970955999568	33.1970955999568	33.1970955999568	33.1970955999568	33.1970955999568	33.1970955999568	33.1970955999568	33.1970955999568	33.1970955999568	33.1970955999568	33.1970955999568	33.1970955999568	33.1970955999568	33.1970955999568	33.1970955999568	33.1970955999568	33.1970955999568	33.1970955999568	33.1970955999568	33.1970955999568	33.1970955999568	33.1970955999568	0.0181482001207769	0.930434999987483	34.1471278001554	2.46392930019647	35.7222560998052	35.6833536000922	"[-0.11944444444444445, -0.11944444444444445]"	"[-0.24722222222222223, -0.24814814814814815]"	"[1, 0]"	"[0, 0]"	"[0, 1]"	"[0.3535463996231556, 0.9118964998051524]"	3	200	NA	NA	NA	NA	NA	NA	NA	NA	"04"	"03"	"2024-01-31_14h00.39.245"	"GDT_exp"	"2023.2.3"	119.994000645419	"2024-01-31 14h00.49.988485 +0100"	NA
"dice_3.png"	3	0	4	4	2	35.7222560998052	NA	NA	NA	NA	NA	NA	NA	NA	NA	NA	NA	NA	35.6839327998459	35.7222560998052	35.7222560998052	35.7222560998052	35.7222560998052	35.7222560998052	35.7222560998052	35.7222560998052	35.7222560998052	35.7222560998052	35.7222560998052	35.7222560998052	35.7222560998052	35.7222560998052	35.7222560998052	35.7222560998052	35.7222560998052	35.7222560998052	35.7222560998052	35.7222560998052	35.7222560998052	35.7222560998052	35.7222560998052	35.7222560998052	35.7222560998052	35.7222560998052	0.0152344000525773	1.63856570003554	37.3891587997787	3.15537759987637	38.9474835000001	38.8999764001928	"[-0.6296296296296297, -0.6296296296296297]"	"[-0.36018518518518516, -0.36018518518518516]"	"[1, 0]"	"[0, 0]"	"[0, 1]"	"[1.0732124000787735, 1.6230478999204934]"	4	100	NA	NA	NA	NA	NA	NA	NA	NA	"04"	"03"	"2024-01-31_14h00.39.245"	"GDT_exp"	"2023.2.3"	119.994000645419	"2024-01-31 14h00.49.988485 +0100"	NA
"dice_5.png"	5	0	5	5	4	38.9474835000001	NA	NA	NA	NA	NA	NA	NA	NA	NA	NA	NA	NA	38.9005705001764	38.9474835000001	38.9474835000001	38.9474835000001	38.9474835000001	38.9474835000001	38.9474835000001	38.9474835000001	38.9474835000001	38.9474835000001	38.9474835000001	38.9474835000001	38.9474835000001	38.9474835000001	38.9474835000001	38.9474835000001	38.9474835000001	38.9474835000001	38.9474835000001	38.9474835000001	38.9474835000001	38.9474835000001	38.9474835000001	38.9474835000001	38.9474835000001	38.9474835000001	0.0176535998471081	NA	41.3309634001926	NA	42.8893956998363	42.8512638001703	"[-0.5731481481481482, -0.5731481481481482]"	"[-0.3453703703703704, -0.3453703703703704]"	"[1, 0]"	"[0, 0]"	"[0, 1]"	"[1.8627092000097036, 2.34602709999308]"	4	-100	2.36390589969233	NA	NA	NA	NA	NA	NA	NA	"04"	"03"	"2024-01-31_14h00.39.245"	"GDT_exp"	"2023.2.3"	119.994000645419	"2024-01-31 14h00.49.988485 +0100"	NA
"dice_4.png"	4	1	0	6	3	42.8893956998363	NA	NA	NA	NA	NA	NA	NA	NA	NA	NA	NA	NA	42.8518555001356	42.8893956998363	42.8893956998363	42.8893956998363	42.8893956998363	42.8893956998363	42.8893956998363	42.8893956998363	42.8893956998363	42.8893956998363	42.8893956998363	42.8893956998363	42.8893956998363	42.8893956998363	42.8893956998363	42.8893956998363	42.8893956998363	42.8893956998363	42.8893956998363	42.8893956998363	42.8893956998363	42.8893956998363	42.8893956998363	42.8893956998363	42.8893956998363	42.8893956998363	0.0147724002599716	1.57114760018885	44.497832799796	3.09622030006722	46.0479402998462	46.0087141999975	"[0.019444444444444445, 0.019444444444444445]"	"[-0.3416666666666667, -0.3416666666666667]"	"[1, 0]"	"[0, 0]"	"[0, 1]"	"[0.9977031997404993, 1.55609120009467]"	4	100	NA	NA	NA	NA	NA	NA	NA	NA	"04"	"03"	"2024-01-31_14h00.39.245"	"GDT_exp"	"2023.2.3"	119.994000645419	"2024-01-31 14h00.49.988485 +0100"	NA
"dice_6.png"	6	1	1	7	5	46.0479402998462	NA	NA	NA	NA	NA	NA	NA	NA	NA	NA	NA	NA	46.009290299844	46.0479402998462	46.0479402998462	46.0479402998462	46.0479402998462	46.0479402998462	46.0479402998462	46.0479402998462	46.0479402998462	46.0479402998462	46.0479402998462	46.0479402998462	46.0479402998462	46.0479402998462	46.0479402998462	46.0479402998462	46.0479402998462	46.0479402998462	46.0479402998462	46.0479402998462	46.0479402998462	46.0479402998462	46.0479402998462	46.0479402998462	46.0479402998462	46.0479402998462	0.0147150000557303	NA	48.8647972000763	NA	50.423252500128	50.3839190998115	"[-0.24166666666666667, -0.24166666666666667]"	"[-0.3611111111111111, -0.3611111111111111]"	"[1, 0]"	"[0, 0]"	"[0, 1]"	"[2.2909090002067387, 2.7740865000523627]"	4	-100	2.78899409994483	NA	NA	NA	NA	NA	NA	NA	"04"	"03"	"2024-01-31_14h00.39.245"	"GDT_exp"	"2023.2.3"	119.994000645419	"2024-01-31 14h00.49.988485 +0100"	NA
"dice_2.png"	2	1	2	8	1	50.423252500128	NA	NA	NA	NA	NA	NA	NA	NA	NA	NA	NA	NA	50.3845032998361	50.423252500128	50.423252500128	50.423252500128	50.423252500128	50.423252500128	50.423252500128	50.423252500128	50.423252500128	50.423252500128	50.423252500128	50.423252500128	50.423252500128	50.423252500128	50.423252500128	50.423252500128	50.423252500128	50.423252500128	50.423252500128	50.423252500128	50.423252500128	50.423252500128	50.423252500128	50.423252500128	50.423252500128	50.423252500128	0.0145157002843916	NA	51.6566519001499	NA	53.1984346001409	53.1591771999374	"[-0.10925925925925926, -0.10925925925925926]"	"[-0.22962962962962963, -0.22962962962962963]"	"[1, 0]"	"[0, 0]"	"[0, 1]"	"[0.7153859999962151, 1.1891024997457862]"	3	-200	1.20562770031393	NA	NA	NA	NA	NA	NA	NA	"04"	"03"	"2024-01-31_14h00.39.245"	"GDT_exp"	"2023.2.3"	119.994000645419	"2024-01-31 14h00.49.988485 +0100"	NA
"dice_3.png"	3	1	3	9	2	53.1984346001409	NA	NA	NA	NA	NA	NA	NA	NA	NA	NA	NA	NA	53.1597083001398	53.1984346001409	53.1984346001409	53.1984346001409	53.1984346001409	53.1984346001409	53.1984346001409	53.1984346001409	53.1984346001409	53.1984346001409	53.1984346001409	53.1984346001409	53.1984346001409	53.1984346001409	53.1984346001409	53.1984346001409	53.1984346001409	53.1984346001409	53.1984346001409	53.1984346001409	53.1984346001409	53.1984346001409	53.1984346001409	53.1984346001409	53.1984346001409	53.1984346001409	0.0148080000653863	0.772371700033545	53.9984796000645	2.29745349986479	55.5569386999123	55.5179901001975	"[-0.4027777777777778, -0.4027777777777778]"	"[-0.25925925925925924, -0.25925925925925924]"	"[1, 0]"	"[0, 0]"	"[0, 1]"	"[0.1988188000395894, 0.7574708997271955]"	3	200	NA	NA	NA	NA	NA	NA	NA	NA	"04"	"03"	"2024-01-31_14h00.39.245"	"GDT_exp"	"2023.2.3"	119.994000645419	"2024-01-31 14h00.49.988485 +0100"	NA
"dice_5.png"	5	1	4	10	4	55.5569386999123	NA	NA	NA	NA	NA	NA	NA	NA	NA	NA	NA	NA	55.5185239999555	55.5569386999123	55.5569386999123	55.5569386999123	55.5569386999123	55.5569386999123	55.5569386999123	55.5569386999123	55.5569386999123	55.5569386999123	55.5569386999123	55.5569386999123	55.5569386999123	55.5569386999123	55.5569386999123	55.5569386999123	55.5569386999123	55.5569386999123	55.5569386999123	55.5569386999123	55.5569386999123	55.5569386999123	55.5569386999123	55.5569386999123	55.5569386999123	55.5569386999123	0.0147795998491347	1.4553294996731	57.04037170019	2.98044630000368	58.5989173999988	58.5595657001249	"[0.06574074074074074, 0.06666666666666667]"	"[-0.3509259259259259, -0.3509259259259259]"	"[1, 0]"	"[0, 0]"	"[0, 1]"	"[0.9323479998856783, 1.440290099941194]"	4	100	NA	NA	NA	NA	NA	NA	NA	NA	"04"	"03"	"2024-01-31_14h00.39.245"	"GDT_exp"	"2023.2.3"	119.994000645419	"2024-01-31 14h00.49.988485 +0100"	NA
"dice_1.png"	1	1	5	11	0	58.5989173999988	NA	NA	NA	NA	NA	NA	NA	NA	NA	NA	NA	NA	58.5601241998374	58.5989173999988	58.5989173999988	58.5989173999988	58.5989173999988	58.5989173999988	58.5989173999988	58.5989173999988	58.5989173999988	58.5989173999988	58.5989173999988	58.5989173999988	58.5989173999988	58.5989173999988	58.5989173999988	58.5989173999988	58.5989173999988	58.5989173999988	58.5989173999988	58.5989173999988	58.5989173999988	58.5989173999988	58.5989173999988	58.5989173999988	58.5989173999988	58.5989173999988	0.0144504001364112	NA	59.9822074999101	NA	61.5240058000199	61.48495549988	"[0.017592592592592594, 0.017592592592592594]"	"[-0.35, -0.35]"	"[1, 0]"	"[0, 0]"	"[0, 1]"	"[0.8325489000417292, 1.3410774003714323]"	4	-100	1.35556960012764	NA	NA	NA	NA	NA	NA	NA	"04"	"03"	"2024-01-31_14h00.39.245"	"GDT_exp"	"2023.2.3"	119.994000645419	"2024-01-31 14h00.49.988485 +0100"	NA
"dice_4.png"	4	2	0	12	3	61.5240058000199	NA	NA	NA	NA	NA	NA	NA	NA	NA	NA	NA	NA	61.4854926997796	61.5240058000199	61.5240058000199	61.5240058000199	61.5240058000199	61.5240058000199	61.5240058000199	61.5240058000199	61.5240058000199	61.5240058000199	61.5240058000199	61.5240058000199	61.5240058000199	61.5240058000199	61.5240058000199	61.5240058000199	61.5240058000199	61.5240058000199	61.5240058000199	61.5240058000199	61.5240058000199	61.5240058000199	61.5240058000199	61.5240058000199	61.5240058000199	61.5240058000199	0.0146544999442995	0.772013199981302	62.3240354000591	2.2721629999578	63.899141300004	63.8598028998822	"[0.017592592592592594, 0.017592592592592594]"	"[-0.35, -0.35]"	"[1, 0]"	"[0, 0]"	"[0, 1]"	"[0.09045570017769933, 0.757245700340718]"	4	100	NA	NA	NA	NA	NA	NA	NA	NA	"04"	"03"	"2024-01-31_14h00.39.245"	"GDT_exp"	"2023.2.3"	119.994000645419	"2024-01-31 14h00.49.988485 +0100"	NA
"dice_3.png"	3	2	1	13	2	63.899141300004	NA	NA	NA	NA	NA	NA	NA	NA	NA	NA	NA	NA	63.860380299855	63.899141300004	63.899141300004	63.899141300004	63.899141300004	63.899141300004	63.899141300004	63.899141300004	63.899141300004	63.899141300004	63.899141300004	63.899141300004	63.899141300004	63.899141300004	63.899141300004	63.899141300004	63.899141300004	63.899141300004	63.899141300004	63.899141300004	63.899141300004	63.899141300004	63.899141300004	63.899141300004	63.899141300004	63.899141300004	0.014505899976939	1.83903560042381	65.7660739999264	3.3641815003939	67.3327111001126	67.293353700079	"[-0.6111111111111112, -0.6083333333333333]"	"[-0.3472222222222222, -0.3453703703703704]"	"[1, 0]"	"[0, 0]"	"[0, 1]"	"[1.1576113998889923, 1.8243347997777164]"	4	100	NA	NA	NA	NA	NA	NA	NA	NA	"04"	"03"	"2024-01-31_14h00.39.245"	"GDT_exp"	"2023.2.3"	119.994000645419	"2024-01-31 14h00.49.988485 +0100"	NA
"dice_1.png"	1	2	2	14	0	67.3327111001126	NA	NA	NA	NA	NA	NA	NA	NA	NA	NA	NA	NA	67.293884200044	67.3327111001126	67.3327111001126	67.3327111001126	67.3327111001126	67.3327111001126	67.3327111001126	67.3327111001126	67.3327111001126	67.3327111001126	67.3327111001126	67.3327111001126	67.3327111001126	67.3327111001126	67.3327111001126	67.3327111001126	67.3327111001126	67.3327111001126	67.3327111001126	67.3327111001126	67.3327111001126	67.3327111001126	67.3327111001126	67.3327111001126	67.3327111001126	67.3327111001126	0.0176025000400841	NA	69.0912870001048	NA	70.6412852001376	70.6020983997732	"[-0.35833333333333334, -0.35833333333333334]"	"[-0.35185185185185186, -0.35185185185185186]"	"[1, 0]"	"[0, 0]"	"[0, 1]"	"[1.2047060998156667, 1.7045895997434855]"	4	-100	1.72243450023234	NA	NA	NA	NA	NA	NA	NA	"04"	"03"	"2024-01-31_14h00.39.245"	"GDT_exp"	"2023.2.3"	119.994000645419	"2024-01-31 14h00.49.988485 +0100"	NA
"dice_6.png"	6	2	3	15	5	70.6412852001376	NA	NA	NA	NA	NA	NA	NA	NA	NA	NA	NA	NA	70.6026817001402	70.6412852001376	70.6412852001376	70.6412852001376	70.6412852001376	70.6412852001376	70.6412852001376	70.6412852001376	70.6412852001376	70.6412852001376	70.6412852001376	70.6412852001376	70.6412852001376	70.6412852001376	70.6412852001376	70.6412852001376	70.6412852001376	70.6412852001376	70.6412852001376	70.6412852001376	70.6412852001376	70.6412852001376	70.6412852001376	70.6412852001376	70.6412852001376	70.6412852001376	0.014614500105381	NA	71.7413516999222	NA	73.2914947997779	73.2529694000259	"[-0.48703703703703705, -0.48703703703703705, -0.487962962962963]"	"[-0.25462962962962965, -0.25462962962962965, -0.25555555555555554]"	"[1, 0, 1]"	"[0, 0, 0]"	"[0, 1, 0]"	"[0.5738144000060856, 1.0571555001661181, 2.6242575999349356]"	3	-200	1.07213959982619	NA	NA	NA	NA	NA	NA	NA	"04"	"03"	"2024-01-31_14h00.39.245"	"GDT_exp"	"2023.2.3"	119.994000645419	"2024-01-31 14h00.49.988485 +0100"	NA
"dice_5.png"	5	2	4	16	4	73.2914947997779	NA	NA	NA	NA	NA	NA	NA	NA	NA	NA	NA	NA	73.2535556000657	73.2914947997779	73.2914947997779	73.2914947997779	73.2914947997779	73.2914947997779	73.2914947997779	73.2914947997779	73.2914947997779	73.2914947997779	73.2914947997779	73.2914947997779	73.2914947997779	73.2914947997779	73.2914947997779	73.2914947997779	73.2914947997779	73.2914947997779	73.2914947997779	73.2914947997779	73.2914947997779	73.2914947997779	73.2914947997779	73.2914947997779	73.2914947997779	73.2914947997779	0.0151080000214279	NA	73.9081578999758	NA	75.4832586999983	75.4397241999395	"[-0.487962962962963, -0.5703703703703704]"	"[-0.25555555555555554, -0.3416666666666667]"	"[0, 1]"	"[0, 0]"	"[1, 0]"	"[0.5724941999651492, 2.031038499902934]"	4	-200	0.588073499966413	NA	NA	NA	NA	NA	NA	NA	"04"	"03"	"2024-01-31_14h00.39.245"	"GDT_exp"	"2023.2.3"	119.994000645419	"2024-01-31 14h00.49.988485 +0100"	NA
"dice_2.png"	2	2	5	17	1	75.4832586999983	NA	NA	NA	NA	NA	NA	NA	NA	NA	NA	NA	NA	75.4402557001449	75.4832586999983	75.4832586999983	75.4832586999983	75.4832586999983	75.4832586999983	75.4832586999983	75.4832586999983	75.4832586999983	75.4832586999983	75.4832586999983	75.4832586999983	75.4832586999983	75.4832586999983	75.4832586999983	75.4832586999983	75.4832586999983	75.4832586999983	75.4832586999983	75.4832586999983	75.4832586999983	75.4832586999983	75.4832586999983	75.4832586999983	75.4832586999983	75.4832586999983	0.0182150998152792	1.16828330000862	76.691677799914	2.70187400002033	78.2251363000832	78.2113470002078	"[-0.5703703703703704, -0.5703703703703704]"	"[-0.3416666666666667, -0.34074074074074073]"	"[1, 0]"	"[0, 0]"	"[0, 1]"	"[0.6497328002005816, 1.1500031999312341]"	4	100	NA	NA	NA	NA	NA	NA	NA	NA	"04"	"03"	"2024-01-31_14h00.39.245"	"GDT_exp"	"2023.2.3"	119.994000645419	"2024-01-31 14h00.49.988485 +0100"	NA
NA	NA	NA	NA	NA	NA	NA	NA	NA	NA	NA	NA	NA	NA	NA	NA	NA	NA	NA	NA	NA	NA	NA	NA	NA	NA	NA	NA	NA	NA	NA	NA	NA	NA	NA	NA	NA	NA	NA	NA	NA	NA	NA	NA	NA	NA	NA	NA	NA	NA	NA	NA	NA	NA	NA	NA	NA	NA	NA	NA	78.2117944997735	78.2251363000832	78.2251363000832	86.0178764997981	"space"	7.78426719969139	"None"	"04"	"03"	"2024-01-31_14h00.39.245"	"GDT_exp"	"2023.2.3"	119.994000645419	"2024-01-31 14h00.49.988485 +0100"	NA
