"image"	"max_pumps"	"pump_loop.thisRepN"	"pump_loop.thisTrialN"	"pump_loop.thisN"	"pump_loop.thisIndex"	"thisRow.t"	"notes"	"Start.started"	"text_start.started"	"continue_start.started"	"mouse_start.started"	"Start.stopped"	"mouse_start.x"	"mouse_start.y"	"mouse_start.leftButton"	"mouse_start.midButton"	"mouse_start.rightButton"	"mouse_start.time"	"trials.started"	"stim_balloon.started"	"stim_balloon_burst.started"	"stim_balloon_burst.stopped"	"text_ballon_value.started"	"text_bank.started"	"mouse.started"	"sound_bang.started"	"sound_bang.stopped"	"button_balloon.started"	"trials.stopped"	"n_pumps"	"earnings"	"popped"	"mouse.x"	"mouse.y"	"mouse.leftButton"	"mouse.midButton"	"mouse.rightButton"	"mouse.time"	"button_balloon.numClicks"	"button_balloon.timesOn"	"button_balloon.timesOff"	"Feedback.started"	"text_feedback.started"	"Feedback.stopped"	"text_feedback.stopped"	"End.started"	"text_end.started"	"key_end.started"	"End.stopped"	"key_end.keys"	"key_end.rt"	"key_end.duration"	"participant"	"session"	"date"	"expName"	"psychopyVersion"	"frameRate"	"expStart"	"...61"
NA	NA	NA	NA	NA	NA	NA	NA	0.0361492000520229	0.0451115001924336	0.0451115001924336	0.0364696998149157	384.038478299975	"[0.6555555555555556]"	"[-0.3990740740740741]"	"[1]"	"[0]"	"[0]"	"[384.00141650019214]"	NA	NA	NA	NA	NA	NA	NA	NA	NA	NA	NA	NA	NA	NA	NA	NA	NA	NA	NA	NA	NA	NA	NA	NA	NA	NA	NA	NA	NA	NA	NA	NA	NA	NA	"03"	"01"	"2024-01-31_11h11.16.052"	"BART_exp"	"2023.2.3"	119.984209678414	"2024-01-31 11h11.25.790166 +0100"	NA
"balloon.png"	36	0	0	0	8	384.121191599872	NA	NA	NA	NA	NA	NA	NA	NA	NA	NA	NA	NA	384.052847099956	384.121191599872	384.121191599872	384.121191599872	384.121191599872	384.121191599872	0.0163227999582887	0.0163227999582887	0.0163227999582887	384.121191599872	393.081872799899	7	0.35	FALSE	"[-0.10925925925925926, -0.10925925925925926, -0.10925925925925926, -0.10925925925925926, -0.10925925925925926, -0.10925925925925926, -0.10925925925925926, -0.10925925925925926]"	"[-0.3814814814814815, -0.3814814814814815, -0.3814814814814815, -0.3814814814814815, -0.3814814814814815, -0.3814814814814815, -0.3814814814814815, -0.3814814814814815]"	"[1, 1, 1, 1, 1, 1, 1, 0]"	"[0, 0, 0, 0, 0, 0, 0, 0]"	"[0, 0, 0, 0, 0, 0, 0, 1]"	"[2.98583950009197, 3.894196900073439, 4.569423700217158, 5.237526699900627, 6.294511599931866, 7.35299179982394, 7.894466400146484, 9.028081600088626]"	8	"[2.932876900304109, 3.841239199973643, 4.5164617002010345, 5.184757600072771, 6.241554700303823, 7.300034000072628, 7.841502299997956, 8.975057000294328]"	"[3.0410343003459275, 3.9994722004048526, 4.682815900072455, 5.291307399980724, 6.36624910030514, 7.433081299997866, 7.991361699998379, 8.975061300210655]"	393.082990199793	393.096697499976	394.588591400068	NA	NA	NA	NA	NA	NA	NA	NA	"03"	"01"	"2024-01-31_11h11.16.052"	"BART_exp"	"2023.2.3"	119.984209678414	"2024-01-31 11h11.25.790166 +0100"	NA
"balloon.png"	114	0	1	1	26	394.605221199803	NA	NA	NA	NA	NA	NA	NA	NA	NA	NA	NA	NA	394.588770200033	394.605221199803	394.605221199803	394.605221199803	394.605221199803	394.605221199803	0.00701959989964962	0.00701959989964962	0.00701959989964962	394.605221199803	398.548816599883	4	0.2	FALSE	"[-0.10740740740740741, -0.10740740740740741, -0.10555555555555556, -0.10555555555555556, -0.10555555555555556]"	"[-0.3814814814814815, -0.3814814814814815, -0.3814814814814815, -0.3814814814814815, -0.3814814814814815]"	"[1, 1, 1, 1, 0]"	"[0, 0, 0, 0, 0]"	"[0, 0, 0, 0, 1]"	"[0.8006357997655869, 1.6507266000844538, 2.300598199944943, 3.459010399878025, 3.9591643000021577]"	5	"[0.7931678998284042, 1.6432617995887995, 2.2931308997794986, 3.451539299916476, 3.9516320996917784]"	"[0.909634199924767, 1.7597335996106267, 2.401333899702877, 3.5847487999126315, 3.951636199839413]"	398.549514200073	398.555473700166	400.047456699889	400.06390920002	NA	NA	NA	NA	NA	NA	NA	"03"	"01"	"2024-01-31_11h11.16.052"	"BART_exp"	"2023.2.3"	119.984209678414	"2024-01-31 11h11.25.790166 +0100"	NA
"balloon.png"	84	0	2	2	19	400.06390920002	NA	NA	NA	NA	NA	NA	NA	NA	NA	NA	NA	NA	400.047635400202	400.06390920002	400.06390920002	400.06390920002	400.06390920002	400.06390920002	-0.00063379993662238	-0.00063379993662238	-0.00063379993662238	400.06390920002	407.341072999872	8	0.4	FALSE	"[-0.10277777777777777, -0.10277777777777777, -0.10277777777777777, -0.10277777777777777, -0.10277777777777777, -0.10277777777777777, -0.10277777777777777, -0.1, -0.1]"	"[-0.3814814814814815, -0.3814814814814815, -0.3814814814814815, -0.3814814814814815, -0.3814814814814815, -0.3814814814814815, -0.3814814814814815, -0.3814814814814815, -0.3814814814814815]"	"[1, 1, 1, 1, 1, 1, 1, 1, 0]"	"[0, 0, 0, 0, 0, 0, 0, 0, 0]"	"[0, 0, 0, 0, 0, 0, 0, 0, 1]"	"[0.46709700021892786, 0.8672585999593139, 1.6504027000628412, 2.775625200010836, 3.9173789001069963, 5.025653600227088, 5.650642600376159, 6.767405900172889, 7.2925353003665805]"	9	"[0.4589289999566972, 0.859086100012064, 1.642237199936062, 2.767455799970776, 3.9092088998295367, 5.017482399940491, 5.642469599843025, 6.759242099709809, 7.284305999986827]"	"[0.5753170000389218, 0.9754491997882724, 1.750592999625951, 2.892148300074041, 4.050557299982756, 5.175647200085223, 5.767336699645966, 6.875738899689168, 7.284310299903154]"	407.341814899817	407.347759400029	408.839779799804	408.856176900212	NA	NA	NA	NA	NA	NA	NA	"03"	"01"	"2024-01-31_11h11.16.052"	"BART_exp"	"2023.2.3"	119.984209678414	"2024-01-31 11h11.25.790166 +0100"	NA
"balloon.png"	66	0	3	3	15	408.856176900212	NA	NA	NA	NA	NA	NA	NA	NA	NA	NA	NA	NA	408.839961600024	408.856176900212	408.856176900212	408.856176900212	408.856176900212	408.856176900212	-0.00059069972485303	-0.00059069972485303	-0.00059069972485303	408.856176900212	418.508566299919	17	0.85	FALSE	"[-0.09907407407407408, -0.09907407407407408, -0.09907407407407408, -0.09907407407407408, -0.09907407407407408, -0.09814814814814815, -0.09814814814814815, -0.09814814814814815, -0.09814814814814815, -0.09814814814814815, -0.09814814814814815, -0.09814814814814815, -0.09814814814814815, -0.09537037037037037, -0.09537037037037037, -0.09537037037037037, -0.09537037037037037, -0.09537037037037037]"	"[-0.3814814814814815, -0.3814814814814815, -0.3814814814814815, -0.3814814814814815, -0.3814814814814815, -0.3814814814814815, -0.3814814814814815, -0.3814814814814815, -0.3814814814814815, -0.3814814814814815, -0.3814814814814815, -0.3814814814814815, -0.3814814814814815, -0.3814814814814815, -0.3814814814814815, -0.3814814814814815, -0.3814814814814815, -0.3814814814814815]"	"[1, 1, 1, 1, 1, 1, 1, 1, 1, 1, 1, 1, 1, 1, 1, 1, 1, 0]"	"[0, 0, 0, 0, 0, 0, 0, 0, 0, 0, 0, 0, 0, 0, 0, 0, 0, 0]"	"[0, 0, 0, 0, 0, 0, 0, 0, 0, 0, 0, 0, 0, 0, 0, 0, 0, 1]"	"[0.4252236997708678, 0.8838172000832856, 1.4336274997331202, 2.075466999784112, 2.658703299704939, 3.1255683000199497, 3.650424199644476, 4.292300899978727, 4.825541399884969, 5.27569769974798, 5.8006581999361515, 6.267429200001061, 6.842400299850851, 7.709304499905556, 8.225734799634665, 8.66762109985575, 9.16750039998442, 9.667686199769378]"	18	"[0.4193191002123058, 0.8779084999114275, 1.4277225001715124, 2.0695568001829088, 2.652792400214821, 3.1196615998633206, 3.644514299929142, 4.286391300149262, 4.819633000064641, 5.269790700171143, 5.794751199893653, 6.261518099810928, 6.836496400181204, 7.703399499878287, 8.219824700150639, 8.661709299776703, 9.161586499772966, 9.661712700035423]"	"[0.5441657002083957, 0.9525335999205709, 1.5359371001832187, 2.2193873999640346, 2.819410600233823, 3.2443403000943363, 3.7777518001385033, 4.444529800210148, 4.969495600089431, 5.436150100082159, 5.936335599981248, 6.436226800084114, 7.003000699914992, 7.861348299775273, 8.361367200035602, 8.811383900232613, 9.286465699784458, 9.661716899834573]"	418.50948160002	418.515170400031	420.007123900112	420.023595800158	NA	NA	NA	NA	NA	NA	NA	"03"	"01"	"2024-01-31_11h11.16.052"	"BART_exp"	"2023.2.3"	119.984209678414	"2024-01-31 11h11.25.790166 +0100"	NA
"balloon.png"	1	0	4	4	0	420.023595800158	NA	NA	NA	NA	NA	NA	NA	NA	NA	NA	NA	NA	420.00729790004	420.023595800158	420.023595800158	420.023595800158	420.023595800158	420.023595800158	-0.00095359981060028	-0.00095359981060028	-0.00095359981060028	420.023595800158	420.950642500073	2	0.05	TRUE	"[-0.09444444444444444, -0.09444444444444444]"	"[-0.3814814814814815, -0.3814814814814815]"	"[1, 1]"	"[0, 0]"	"[0, 0]"	"[0.4336490002460778, 0.8253448000177741]"	2	"[0.4253217000514269, 0.8170155002735555]"	"[0.5585449999198318, 0.9252233002334833]"	420.951179699972	420.965326100122	422.457137300167	NA	NA	NA	NA	NA	NA	NA	NA	"03"	"01"	"2024-01-31_11h11.16.052"	"BART_exp"	"2023.2.3"	119.984209678414	"2024-01-31 11h11.25.790166 +0100"	NA
"balloon.png"	62	0	5	5	14	422.473769200034	NA	NA	NA	NA	NA	NA	NA	NA	NA	NA	NA	NA	422.45730930008	422.473769200034	422.473769200034	422.473769200034	422.473769200034	422.473769200034	0.00741329975426197	0.00741329975426197	0.00741329975426197	422.473769200034	432.826008100063	20	1	FALSE	"[-0.09444444444444444, -0.09444444444444444, -0.09444444444444444, -0.09444444444444444, -0.09444444444444444, -0.09444444444444444, -0.09444444444444444, -0.09444444444444444, -0.09444444444444444, -0.09444444444444444, -0.09444444444444444, -0.09444444444444444, -0.09444444444444444, -0.09444444444444444, -0.09444444444444444, -0.09444444444444444, -0.09444444444444444, -0.09444444444444444, -0.09444444444444444, -0.09444444444444444, -0.09444444444444444]"	"[-0.3814814814814815, -0.3814814814814815, -0.3814814814814815, -0.3814814814814815, -0.3814814814814815, -0.3814814814814815, -0.3814814814814815, -0.3814814814814815, -0.3814814814814815, -0.3814814814814815, -0.3814814814814815, -0.3814814814814815, -0.3814814814814815, -0.3814814814814815, -0.3814814814814815, -0.3814814814814815, -0.3814814814814815, -0.3814814814814815, -0.3814814814814815, -0.3814814814814815, -0.3814814814814815]"	"[1, 1, 1, 1, 1, 1, 1, 1, 1, 1, 1, 1, 1, 1, 1, 1, 1, 1, 1, 1, 0]"	"[0, 0, 0, 0, 0, 0, 0, 0, 0, 0, 0, 0, 0, 0, 0, 0, 0, 0, 0, 0, 0]"	"[0, 0, 0, 0, 0, 0, 0, 0, 0, 0, 0, 0, 0, 0, 0, 0, 0, 0, 0, 0, 1]"	"[0.5588206998072565, 1.0423408998176455, 1.5256937998346984, 2.017415000125766, 2.4757699999026954, 2.9175907000899315, 3.3673439999110997, 3.8091803998686373, 4.252294399775565, 4.69260249985382, 5.217674400191754, 5.842649099882692, 6.342547799926251, 6.80923689994961, 7.2677837000228465, 7.767710300162435, 8.209431400056928, 8.784352399874479, 9.317895899992436, 9.884661300107837, 10.367794299963862]"	21	"[0.5502617000602186, 1.0337812001816928, 1.5171386003494263, 2.0088593000546098, 2.467207900248468, 2.909031300339848, 3.358788500074297, 3.800620600115508, 4.243904200382531, 4.68404750013724, 5.209118000231683, 5.834089600015432, 6.333987700287253, 6.80067910021171, 7.259227000176907, 7.7591543002054095, 8.200874200090766, 8.775792600121349, 9.309357300400734, 9.876102900132537, 10.35917180031538]"	"[0.7168558002449572, 1.2001803000457585, 1.658503600396216, 2.1585588003508747, 2.600248500239104, 3.0419306000694633, 3.5089716003276408, 3.958720500115305, 4.400386900175363, 4.842054600361735, 5.383847000077367, 6.017138299997896, 6.483907000161707, 6.958888200111687, 7.425598100293428, 7.908956300001591, 8.383977900259197, 8.933989700395614, 9.467418400105089, 10.042561000213027, 10.35917600011453]"	432.826895100065	432.832797899842	434.324774300214	434.34956309991	NA	NA	NA	NA	NA	NA	NA	"03"	"01"	"2024-01-31_11h11.16.052"	"BART_exp"	"2023.2.3"	119.984209678414	"2024-01-31 11h11.25.790166 +0100"	NA
"balloon.png"	97	0	6	6	22	434.34956309991	NA	NA	NA	NA	NA	NA	NA	NA	NA	NA	NA	NA	434.324949900154	434.34956309991	434.34956309991	434.34956309991	434.34956309991	434.34956309991	-0.00069200014695525	-0.00069200014695525	-0.00069200014695525	434.34956309991	447.02696050005	22	1.1	FALSE	"[-0.09444444444444444, -0.09444444444444444, -0.09444444444444444, -0.09444444444444444, -0.09444444444444444, -0.09444444444444444, -0.09444444444444444, -0.09444444444444444, -0.09444444444444444, -0.09444444444444444, -0.09444444444444444, -0.09444444444444444, -0.09444444444444444, -0.09444444444444444, -0.09444444444444444, -0.09444444444444444, -0.09444444444444444, -0.09444444444444444, -0.09444444444444444, -0.09444444444444444, -0.09444444444444444, -0.09444444444444444, -0.09444444444444444]"	"[-0.3814814814814815, -0.3814814814814815, -0.3814814814814815, -0.3814814814814815, -0.3814814814814815, -0.3814814814814815, -0.3814814814814815, -0.3814814814814815, -0.3814814814814815, -0.3814814814814815, -0.3814814814814815, -0.3814814814814815, -0.3814814814814815, -0.3814814814814815, -0.3814814814814815, -0.3814814814814815, -0.3814814814814815, -0.3814814814814815, -0.3814814814814815, -0.3814814814814815, -0.3814814814814815, -0.3814814814814815, -0.3814814814814815]"	"[1, 1, 1, 1, 1, 1, 1, 1, 1, 1, 1, 1, 1, 1, 1, 1, 1, 1, 1, 1, 1, 1, 0]"	"[0, 0, 0, 0, 0, 0, 0, 0, 0, 0, 0, 0, 0, 0, 0, 0, 0, 0, 0, 0, 0, 0, 0]"	"[0, 0, 0, 0, 0, 0, 0, 0, 0, 0, 0, 0, 0, 0, 0, 0, 0, 0, 0, 0, 0, 0, 1]"	"[0.5755055001936853, 1.4255313999019563, 1.9087319998070598, 2.4089524000883102, 3.150655400007963, 3.5506823998875916, 4.0006921999156475, 4.417413199786097, 4.827177899889648, 5.292329099960625, 5.7508028000593185, 6.1843433999456465, 6.625868100207299, 7.075783499982208, 7.525823900010437, 7.925821700133383, 8.36767779989168, 8.877159799914807, 9.376091800164431, 9.809486899990588, 10.334433199837804, 12.109549900051206, 12.701110399793833]"	23	"[0.5644586998969316, 1.414479199796915, 1.8976803999394178, 2.397914699744433, 3.1396045996807516, 3.5396288000047207, 3.9896445996128023, 4.406359099783003, 4.8162874998524785, 5.281285499688238, 5.73975529987365, 6.173295999877155, 6.614828399848193, 7.064731599763036, 7.50670969998464, 7.914771399926394, 8.356626599561423, 8.86610659956932, 9.36503929970786, 9.798446899745613, 10.323382699862123, 12.098497899714857, 12.68999689957127]"	"[0.7307776999659836, 1.5391642996110022, 2.0142383999191225, 2.530906999949366, 3.280947499908507, 3.6809929995797575, 4.122702199965715, 4.572701999917626, 4.96441729972139, 5.447790499776602, 5.8811548999510705, 6.297832099720836, 6.714524099603295, 7.16468649962917, 7.623040699865669, 8.072958799544722, 8.514692399650812, 8.99800039967522, 9.48145669978112, 9.93975259969011, 10.464760399889201, 12.281581099610776, 12.690000999718904]"	447.02789090015	447.033769399859	448.525738100056	448.542256100103	NA	NA	NA	NA	NA	NA	NA	"03"	"01"	"2024-01-31_11h11.16.052"	"BART_exp"	"2023.2.3"	119.984209678414	"2024-01-31 11h11.25.790166 +0100"	NA
"balloon.png"	57	0	7	7	13	448.542256100103	NA	NA	NA	NA	NA	NA	NA	NA	NA	NA	NA	NA	448.525912600104	448.542256100103	448.542256100103	448.542256100103	448.542256100103	448.542256100103	-0.00070359976962208	-0.00070359976962208	-0.00070359976962208	448.542256100103	460.594523199834	22	1.1	FALSE	"[-0.09351851851851851, -0.09351851851851851, -0.09351851851851851, -0.09351851851851851, -0.09351851851851851, -0.09351851851851851, -0.09351851851851851, -0.09351851851851851, -0.09351851851851851, -0.09351851851851851, -0.09351851851851851, -0.09351851851851851, -0.09351851851851851, -0.09351851851851851, -0.09351851851851851, -0.09351851851851851, -0.09351851851851851, -0.09351851851851851, -0.09351851851851851, -0.09351851851851851, -0.09351851851851851, -0.09351851851851851, -0.09351851851851851]"	"[-0.3814814814814815, -0.3814814814814815, -0.3814814814814815, -0.3814814814814815, -0.3814814814814815, -0.3814814814814815, -0.3814814814814815, -0.3814814814814815, -0.3814814814814815, -0.3814814814814815, -0.3814814814814815, -0.3814814814814815, -0.3814814814814815, -0.3814814814814815, -0.3814814814814815, -0.3814814814814815, -0.3814814814814815, -0.3814814814814815, -0.3814814814814815, -0.3814814814814815, -0.3814814814814815, -0.3814814814814815, -0.3814814814814815]"	"[1, 1, 1, 1, 1, 1, 1, 1, 1, 1, 1, 1, 1, 1, 1, 1, 1, 1, 1, 1, 1, 1, 0]"	"[0, 0, 0, 0, 0, 0, 0, 0, 0, 0, 0, 0, 0, 0, 0, 0, 0, 0, 0, 0, 0, 0, 0]"	"[0, 0, 0, 0, 0, 0, 0, 0, 0, 0, 0, 0, 0, 0, 0, 0, 0, 0, 0, 0, 0, 0, 1]"	"[0.4503725003451109, 0.8836529003456235, 1.2919972999952734, 1.7338420003652573, 2.175581300165504, 2.583966000005603, 3.0006050001829863, 3.450455400161445, 3.892197800334543, 4.300553800072521, 4.743787900079042, 5.1507347002625465, 5.575771800242364, 6.009125800337642, 6.442530300002545, 6.909174100030214, 7.38423030031845, 7.867450800258666, 9.334378500003368, 9.875956200063229, 10.459276800043881, 11.084342500194907, 12.0676937000826]"	23	"[0.4402529001235962, 0.8735283999703825, 1.2818789999000728, 1.7237251996994019, 2.1654663998633623, 2.5738447001203895, 2.9904835000634193, 3.440336899831891, 3.882073299959302, 4.290430599823594, 4.733830299694091, 5.140622099861503, 5.56565159978345, 5.999000799842179, 6.43241130001843, 6.899056300055236, 7.374111500103027, 7.857332800049335, 9.324256599880755, 9.865843699779361, 10.449159599840641, 11.074219000060111, 12.057513699866831]"	"[0.5733242998830974, 0.98174689989537, 1.4400629997253418, 1.8650839999318123, 2.29845040012151, 2.7152895997278392, 3.1318808998912573, 3.5568886999972165, 3.998558099847287, 4.42358270008117, 4.86530359974131, 5.273802999872714, 5.657060300000012, 6.082059999927878, 6.5570609997957945, 7.032189100049436, 7.498807900119573, 7.9988854001276195, 9.490793900098652, 10.032310999929905, 10.640664899721742, 11.240726899821311, 12.057517999783158]"	460.595459800214	460.601342599839	462.093299800064	462.101451800205	NA	NA	NA	NA	NA	NA	NA	"03"	"01"	"2024-01-31_11h11.16.052"	"BART_exp"	"2023.2.3"	119.984209678414	"2024-01-31 11h11.25.790166 +0100"	NA
"balloon.png"	105	0	8	8	24	462.101451800205	NA	NA	NA	NA	NA	NA	NA	NA	NA	NA	NA	NA	462.09347569989	462.101451800205	462.101451800205	462.101451800205	462.101451800205	462.101451800205	-0.00072970008477568	-0.00072970008477568	-0.00072970008477568	462.101451800205	471.087062600069	18	0.9	FALSE	"[-0.09259259259259259, -0.09259259259259259, -0.09259259259259259, -0.09259259259259259, -0.09259259259259259, -0.09166666666666666, -0.09166666666666666, -0.09166666666666666, -0.09166666666666666, -0.09166666666666666, -0.09166666666666666, -0.09166666666666666, -0.09074074074074075, -0.09074074074074075, -0.09074074074074075, -0.09074074074074075, -0.09074074074074075, -0.09074074074074075, -0.09074074074074075]"	"[-0.3814814814814815, -0.3814814814814815, -0.3814814814814815, -0.3814814814814815, -0.3814814814814815, -0.3814814814814815, -0.3814814814814815, -0.3814814814814815, -0.3814814814814815, -0.3814814814814815, -0.3814814814814815, -0.3814814814814815, -0.3824074074074074, -0.3824074074074074, -0.3824074074074074, -0.3824074074074074, -0.3824074074074074, -0.3824074074074074, -0.3824074074074074]"	"[1, 1, 1, 1, 1, 1, 1, 1, 1, 1, 1, 1, 1, 1, 1, 1, 1, 1, 0]"	"[0, 0, 0, 0, 0, 0, 0, 0, 0, 0, 0, 0, 0, 0, 0, 0, 0, 0, 0]"	"[0, 0, 0, 0, 0, 0, 0, 0, 0, 0, 0, 0, 0, 0, 0, 0, 0, 0, 1]"	"[0.6586768999695778, 1.1003930997103453, 1.5338460998609662, 1.9672511997632682, 2.3756021996960044, 2.783977599814534, 3.1925117997452617, 3.6173895997926593, 4.117335199844092, 4.62562259985134, 5.067306699696928, 5.500700999982655, 5.9925502999685705, 6.417547699995339, 6.8342243996448815, 7.292426100000739, 7.7425947999581695, 8.234161099884659, 8.99268849985674]"	19	"[0.656615300104022, 1.0983398999087512, 1.5317843002267182, 1.9651913000270724, 2.3735418003052473, 2.781922100111842, 3.190458199940622, 3.61533290008083, 4.115279300138354, 4.6235608998686075, 5.0652510998770595, 5.498640399891883, 5.99049980007112, 6.415489099919796, 6.832167900167406, 7.290364200249314, 7.740532900206745, 8.232102999929339, 8.990568600129336]"	"[0.7898403001017869, 1.2231502002105117, 1.6731887999922037, 2.1065660999156535, 2.5149282002821565, 2.906662499997765, 3.3233257001265883, 3.7816608999855816, 4.25671590026468, 4.7567463000305, 5.206743500195444, 5.6484882002696395, 6.115148399956524, 6.581947000231594, 6.973554700147361, 7.431913200300187, 7.8652615998871624, 8.365366199985147, 8.990575700066984]"	471.08797790017	471.110393300187	472.5938701001	NA	NA	NA	NA	NA	NA	NA	NA	"03"	"01"	"2024-01-31_11h11.16.052"	"BART_exp"	"2023.2.3"	119.984209678414	"2024-01-31 11h11.25.790166 +0100"	NA
"balloon.png"	75	0	9	9	17	472.618822799996	NA	NA	NA	NA	NA	NA	NA	NA	NA	NA	NA	NA	472.594044399913	472.618822799996	472.618822799996	472.618822799996	472.618822799996	472.618822799996	0.00730139994993805	0.00730139994993805	0.00730139994993805	472.618822799996	484.56285340013	35	1.75	FALSE	"[-0.09074074074074075, -0.09074074074074075, -0.09074074074074075, -0.09074074074074075, -0.09074074074074075, -0.09074074074074075, -0.09074074074074075, -0.09074074074074075, -0.09074074074074075, -0.09074074074074075, -0.09074074074074075, -0.09074074074074075, -0.09074074074074075, -0.09074074074074075, -0.09074074074074075, -0.09074074074074075, -0.08981481481481482, -0.08981481481481482, -0.08981481481481482, -0.08981481481481482, -0.08981481481481482, -0.08981481481481482, -0.08981481481481482, -0.08981481481481482, -0.08981481481481482, -0.08981481481481482, -0.08981481481481482, -0.08981481481481482, -0.08981481481481482, -0.08981481481481482, -0.08981481481481482, -0.08981481481481482, -0.08981481481481482, -0.08981481481481482, -0.08981481481481482, -0.08981481481481482]"	"[-0.3824074074074074, -0.3824074074074074, -0.3824074074074074, -0.3824074074074074, -0.3824074074074074, -0.3824074074074074, -0.3824074074074074, -0.3824074074074074, -0.3824074074074074, -0.3824074074074074, -0.3824074074074074, -0.3824074074074074, -0.3824074074074074, -0.3824074074074074, -0.3824074074074074, -0.3824074074074074, -0.3824074074074074, -0.3824074074074074, -0.3824074074074074, -0.3824074074074074, -0.3824074074074074, -0.3824074074074074, -0.3824074074074074, -0.3824074074074074, -0.3824074074074074, -0.3824074074074074, -0.3824074074074074, -0.3824074074074074, -0.3824074074074074, -0.3824074074074074, -0.3824074074074074, -0.3824074074074074, -0.3824074074074074, -0.3824074074074074, -0.3824074074074074, -0.3824074074074074]"	"[1, 1, 1, 1, 1, 1, 1, 1, 1, 1, 1, 1, 1, 1, 1, 1, 1, 1, 1, 1, 1, 1, 1, 1, 1, 1, 1, 1, 1, 1, 1, 1, 1, 1, 1, 0]"	"[0, 0, 0, 0, 0, 0, 0, 0, 0, 0, 0, 0, 0, 0, 0, 0, 0, 0, 0, 0, 0, 0, 0, 0, 0, 0, 0, 0, 0, 0, 0, 0, 0, 0, 0, 0]"	"[0, 0, 0, 0, 0, 0, 0, 0, 0, 0, 0, 0, 0, 0, 0, 0, 0, 0, 0, 0, 0, 0, 0, 0, 0, 0, 0, 0, 0, 0, 0, 0, 0, 0, 0, 1]"	"[0.46730019990354776, 0.9006419000215828, 1.3338859002105892, 1.7255552001297474, 2.0674183000810444, 2.4674587002955377, 2.75899610016495, 2.9923009001649916, 3.2006875001825392, 3.4258309002034366, 3.6591779002919793, 3.8760294001549482, 4.100866199936718, 4.334061900153756, 4.567422599997371, 4.800737299956381, 5.034308000002056, 5.26765719987452, 6.001012000255287, 6.550869000144303, 6.767546200193465, 6.984254700131714, 7.43444380024448, 7.668016300071031, 7.884364400058985, 8.084490000270307, 8.534375099930912, 8.751033400185406, 8.984506800305098, 9.184381400234997, 9.785956399980932, 10.184600499924272, 10.392799000255764, 10.576263600029051, 11.367921799886972, 11.967917300295085]"	35	"[0.4552273000590503, 0.8885690001770854, 1.3218124001286924, 1.7134801000356674, 2.0553443003445864, 2.4553843000903726, 2.7469224999658763, 2.9802275002002716, 3.1886133002117276, 3.413758000358939, 3.6471047000959516, 3.8639560001902282, 4.0887869000434875, 4.321983800269663, 4.5553411999717355, 5.022228800226003, 5.255579300224781, 5.988934500142932, 6.5387884001247585, 6.755470999982208, 6.972182100173086, 7.422368900384754, 7.655942600220442, 7.872290099970996, 8.072412500157952, 8.522299699950963, 8.738951800391078, 8.972427800297737, 9.172303900122643, 9.7740365001373, 10.172522900160402, 10.380722000263631, 10.564189699944109, 11.3558465000242, 11.955779199954122]"	"[0.6051088003441691, 1.0299341003410518, 1.438421200029552, 1.813364100176841, 2.1633501001633704, 2.5802203002385795, 2.863475900143385, 3.0884765000082552, 3.305089000146836, 3.513458200264722, 3.771857100073248, 3.9884748002514243, 4.205177300143987, 4.430229400284588, 4.896865800023079, 5.130278400145471, 5.330240800045431, 6.121989700011909, 6.647000200115144, 6.8553353999741375, 7.07202300010249, 7.538722800090909, 7.763769899960607, 7.980426200199872, 8.188754900358617, 8.655468800105155, 8.855465900152922, 9.072167100384831, 9.280510399956256, 9.897189100272954, 10.255597200244665, 10.455621600151062, 10.672286100219935, 11.472346700262278, 11.955785400234163]"	484.564080600161	484.569633599836	486.061604700051	486.069769599941	NA	NA	NA	NA	NA	NA	NA	"03"	"01"	"2024-01-31_11h11.16.052"	"BART_exp"	"2023.2.3"	119.984209678414	"2024-01-31 11h11.25.790166 +0100"	NA
"balloon.png"	71	0	10	10	16	486.069769599941	NA	NA	NA	NA	NA	NA	NA	NA	NA	NA	NA	NA	486.06179019995	486.069769599941	486.069769599941	486.069769599941	486.069769599941	486.069769599941	0.00575179979205131	0.00575179979205131	0.00575179979205131	486.069769599941	497.163809000049	40	2	FALSE	"[-0.1037037037037037, -0.1037037037037037, -0.09444444444444444, -0.09444444444444444, -0.09444444444444444, -0.09444444444444444, -0.09444444444444444, -0.09444444444444444, -0.09444444444444444, -0.09444444444444444, -0.09444444444444444, -0.09444444444444444, -0.09444444444444444, -0.09444444444444444, -0.09444444444444444, -0.09444444444444444, -0.09444444444444444, -0.09444444444444444, -0.09444444444444444, -0.09444444444444444, -0.09444444444444444, -0.09444444444444444, -0.09444444444444444, -0.09444444444444444, -0.09444444444444444, -0.09444444444444444, -0.09444444444444444, -0.09444444444444444, -0.09444444444444444, -0.09444444444444444, -0.09444444444444444, -0.09444444444444444, -0.09444444444444444, -0.09444444444444444, -0.09444444444444444, -0.09444444444444444, -0.09444444444444444, -0.09444444444444444, -0.09444444444444444, -0.09444444444444444, -0.09444444444444444]"	"[-0.39814814814814814, -0.39814814814814814, -0.3972222222222222, -0.3972222222222222, -0.3972222222222222, -0.3972222222222222, -0.3972222222222222, -0.3972222222222222, -0.3972222222222222, -0.3972222222222222, -0.3972222222222222, -0.3972222222222222, -0.3972222222222222, -0.3972222222222222, -0.3972222222222222, -0.3972222222222222, -0.3972222222222222, -0.3972222222222222, -0.3972222222222222, -0.3972222222222222, -0.3972222222222222, -0.3972222222222222, -0.3972222222222222, -0.3972222222222222, -0.3972222222222222, -0.3972222222222222, -0.3972222222222222, -0.3972222222222222, -0.3972222222222222, -0.3972222222222222, -0.3972222222222222, -0.3972222222222222, -0.3972222222222222, -0.3972222222222222, -0.3972222222222222, -0.3972222222222222, -0.3972222222222222, -0.3972222222222222, -0.3972222222222222, -0.3972222222222222, -0.3972222222222222]"	"[1, 1, 1, 1, 1, 1, 1, 1, 1, 1, 1, 1, 1, 1, 1, 1, 1, 1, 1, 1, 1, 1, 1, 1, 1, 1, 1, 1, 1, 1, 1, 1, 1, 1, 1, 1, 1, 1, 1, 1, 0]"	"[0, 0, 0, 0, 0, 0, 0, 0, 0, 0, 0, 0, 0, 0, 0, 0, 0, 0, 0, 0, 0, 0, 0, 0, 0, 0, 0, 0, 0, 0, 0, 0, 0, 0, 0, 0, 0, 0, 0, 0, 0]"	"[0, 0, 0, 0, 0, 0, 0, 0, 0, 0, 0, 0, 0, 0, 0, 0, 0, 0, 0, 0, 0, 0, 0, 0, 0, 0, 0, 0, 0, 0, 0, 0, 0, 0, 0, 0, 0, 0, 0, 0, 1]"	"[1.1086532999761403, 1.3171084998175502, 1.567314799875021, 1.758900800254196, 1.9755290998145938, 2.1922559002414346, 2.3923154999502003, 2.6005910001695156, 2.8172400002367795, 3.0337920002639294, 3.2337910998612642, 3.4338038000278175, 3.650533600244671, 3.8589228000491858, 4.075512600131333, 4.292222999967635, 4.475604400038719, 4.683897200040519, 4.900555599946529, 5.100606699939817, 5.300606400240213, 5.4922810001298785, 6.075647700112313, 6.292367999907583, 6.50067920004949, 6.700754799880087, 6.884021299891174, 7.075722900219262, 7.275739099830389, 7.459104400128126, 7.6757896998897195, 7.875793599989265, 8.092585199978203, 8.275912099983543, 8.484185200184584, 9.025857000146061, 9.22588020004332, 9.41755050001666, 9.617546699941158, 10.117737700231373, 11.101105500012636]"	41	"[1.106797800399363, 1.3152562002651393, 1.5654599000699818, 1.7570462003350258, 1.9736779001541436, 2.19040900003165, 2.390462400391698, 2.598737500142306, 2.8153890003450215, 3.0319378999993205, 3.231934600044042, 3.431947700213641, 3.648691000416875, 3.8570772004313767, 4.073658300098032, 4.2903678002767265, 4.473752100020647, 4.68204230023548, 4.898700000252575, 5.098757500294596, 5.298750800080597, 5.49042410030961, 6.073791400063783, 6.290514100342989, 6.498834200203419, 6.698900900315493, 6.882163200061768, 7.0738686001859605, 7.273891000077128, 7.4572500004433095, 7.673933000303805, 7.873940400313586, 8.090735800098628, 8.274062300100923, 8.482336000073701, 9.02400610037148, 9.224028500262648, 9.41569560021162, 9.615696600172669, 10.115884000435472, 11.099193700123578]"	"[1.2150140004232526, 1.4483307003974915, 1.6816917001269758, 1.8900253004394472, 2.106798500288278, 2.3068814002908766, 2.506771100219339, 2.7234100000932813, 2.940091900061816, 3.1318146004341543, 3.348484800197184, 3.54845800017938, 3.765358400065452, 3.9736965000629425, 4.173540800344199, 4.365208300296217, 4.57361220009625, 4.7819014000706375, 4.981997100170702, 5.206919400021434, 5.398594900034368, 5.606955200433731, 6.198660199996084, 6.390347700100392, 6.590367200318724, 6.79040260007605, 6.990420800168067, 7.182067000307143, 7.382181300316006, 7.598746600095183, 7.79040880035609, 7.990473700221628, 8.19044620031491, 8.407148100435734, 8.615556300152093, 9.11556430021301, 9.332211200147867, 9.523880199994892, 9.69890130031854, 10.265604600310326, 11.099197800271213]"	497.165050799958	497.170481900219	498.662454199977	498.670585699845	NA	NA	NA	NA	NA	NA	NA	"03"	"01"	"2024-01-31_11h11.16.052"	"BART_exp"	"2023.2.3"	119.984209678414	"2024-01-31 11h11.25.790166 +0100"	NA
"balloon.png"	10	0	11	11	2	498.670585699845	NA	NA	NA	NA	NA	NA	NA	NA	NA	NA	NA	NA	498.662628999911	498.670585699845	498.670585699845	498.670585699845	498.670585699845	498.670585699845	0.00559499999508261	0.00559499999508261	0.00559499999508261	498.670585699845	501.3143978999	11	0.5	TRUE	"[-0.09444444444444444, -0.09444444444444444, -0.09444444444444444, -0.09444444444444444, -0.09444444444444444, -0.09444444444444444, -0.09444444444444444, -0.09444444444444444, -0.09444444444444444, -0.09444444444444444, -0.09444444444444444]"	"[-0.3972222222222222, -0.3972222222222222, -0.3972222222222222, -0.3972222222222222, -0.3972222222222222, -0.3972222222222222, -0.3972222222222222, -0.3972222222222222, -0.3972222222222222, -0.3972222222222222, -0.3972222222222222]"	"[1, 1, 1, 1, 1, 1, 1, 1, 1, 1, 1]"	"[0, 0, 0, 0, 0, 0, 0, 0, 0, 0, 0]"	"[0, 0, 0, 0, 0, 0, 0, 0, 0, 0, 0]"	"[0.45035040006041527, 0.7002913001924753, 0.9171453998424113, 1.1172258001752198, 1.3171699000522494, 1.5171754998154938, 1.7255763001739979, 1.900548200123012, 2.1172624002210796, 2.3173067001625896, 2.5089118001051247]"	11	"[0.44851920008659363, 0.6984369000419974, 0.9152994998730719, 1.1153735998086631, 1.3153221998363733, 1.5153239998035133, 1.723728499840945, 1.8986996999010444, 2.1154106999747455, 2.315452099777758, 2.5070664999075234]"	"[0.5650185998529196, 0.8067398997955024, 1.03169499989599, 1.215044400189072, 1.4067326998338103, 1.6066976999863982, 1.7983753997832537, 2.0150585998781025, 2.215081499889493, 2.4150936999358237, 2.640117600094527]"	501.31514529977	501.320781399962	502.81272980012	502.829196400009	NA	NA	NA	NA	NA	NA	NA	"03"	"01"	"2024-01-31_11h11.16.052"	"BART_exp"	"2023.2.3"	119.984209678414	"2024-01-31 11h11.25.790166 +0100"	NA
"balloon.png"	18	0	12	12	4	502.829196400009	NA	NA	NA	NA	NA	NA	NA	NA	NA	NA	NA	NA	502.812909100205	502.829196400009	502.829196400009	502.829196400009	502.829196400009	502.829196400009	-0.00095940008759498	-0.00095940008759498	-0.00095940008759498	502.829196400009	507.406541700009	19	0.9	TRUE	"[-0.09351851851851851, -0.09351851851851851, -0.09351851851851851, -0.09351851851851851, -0.09351851851851851, -0.09351851851851851, -0.09351851851851851, -0.09351851851851851, -0.09351851851851851, -0.09351851851851851, -0.09351851851851851, -0.09351851851851851, -0.09351851851851851, -0.09351851851851851, -0.09351851851851851, -0.09351851851851851, -0.09351851851851851, -0.09351851851851851, -0.09351851851851851]"	"[-0.39537037037037037, -0.39537037037037037, -0.39537037037037037, -0.39537037037037037, -0.39537037037037037, -0.39537037037037037, -0.39537037037037037, -0.39537037037037037, -0.39537037037037037, -0.39537037037037037, -0.39537037037037037, -0.39537037037037037, -0.39537037037037037, -0.39537037037037037, -0.39537037037037037, -0.39537037037037037, -0.39537037037037037, -0.39537037037037037, -0.39537037037037037]"	"[1, 1, 1, 1, 1, 1, 1, 1, 1, 1, 1, 1, 1, 1, 1, 1, 1, 1, 1]"	"[0, 0, 0, 0, 0, 0, 0, 0, 0, 0, 0, 0, 0, 0, 0, 0, 0, 0, 0]"	"[0, 0, 0, 0, 0, 0, 0, 0, 0, 0, 0, 0, 0, 0, 0, 0, 0, 0, 0]"	"[0.6338444999419153, 0.8504563998430967, 1.050494700204581, 1.267040700186044, 1.492055700160563, 1.6921617998741567, 1.908762900158763, 2.1087452000938356, 2.3254488999955356, 2.51718039996922, 2.733962500002235, 2.9425225001759827, 3.1424341001547873, 3.3506434001028538, 3.58402380021289, 3.7840328998863697, 4.009041800163686, 4.267239000182599, 4.475641299970448]"	19	"[0.631005400326103, 0.847618400119245, 1.0476563000120223, 1.2641990003176033, 1.489218800328672, 1.6893302001990378, 1.905920600052923, 2.105905700009316, 2.3226096001453698, 2.5143448002636433, 2.73112770030275, 2.9398082001134753, 3.1395920999348164, 3.347800000105053, 3.5811827001161873, 3.7811964000575244, 4.006199900060892, 4.264397100079805, 4.472801700234413]"	"[0.7223499999381602, 0.9390726001001894, 1.1557145002298057, 1.3640400003641844, 1.5890955002978444, 1.7890957002528012, 1.99047140032053, 2.2057676003314555, 2.4141242001205683, 2.6141836000606418, 2.8142130002379417, 3.022598000243306, 3.222503200173378, 3.447579000145197, 3.697599000297487, 3.8892943002283573, 4.122593900188804, 4.355927800294012, 4.581134499981999]"	507.407519700006	507.412861099932	508.904883400071	508.912970200181	NA	NA	NA	NA	NA	NA	NA	"03"	"01"	"2024-01-31_11h11.16.052"	"BART_exp"	"2023.2.3"	119.984209678414	"2024-01-31 11h11.25.790166 +0100"	NA
"balloon.png"	23	0	13	13	5	508.912970200181	NA	NA	NA	NA	NA	NA	NA	NA	NA	NA	NA	NA	508.905063199811	508.912970200181	508.912970200181	508.912970200181	508.912970200181	508.912970200181	0.00551260029897093	NA	NA	508.912970200181	514.998381000012	20	1	FALSE	"[-0.09351851851851851, -0.09351851851851851, -0.09351851851851851, -0.09351851851851851, -0.09351851851851851, -0.09351851851851851, -0.09259259259259259, -0.09259259259259259, -0.09259259259259259, -0.09259259259259259, -0.09259259259259259, -0.09259259259259259, -0.09259259259259259, -0.09259259259259259, -0.09259259259259259, -0.09259259259259259, -0.09259259259259259, -0.09259259259259259, -0.09259259259259259, -0.09259259259259259, -0.09259259259259259]"	"[-0.39537037037037037, -0.39537037037037037, -0.39537037037037037, -0.39537037037037037, -0.39537037037037037, -0.39537037037037037, -0.39537037037037037, -0.39537037037037037, -0.39537037037037037, -0.39537037037037037, -0.39537037037037037, -0.39537037037037037, -0.39537037037037037, -0.39537037037037037, -0.39537037037037037, -0.39537037037037037, -0.39537037037037037, -0.39537037037037037, -0.39537037037037037, -0.39537037037037037, -0.39537037037037037]"	"[1, 1, 1, 1, 1, 1, 1, 1, 1, 1, 1, 1, 1, 1, 1, 1, 1, 1, 1, 1, 0]"	"[0, 0, 0, 0, 0, 0, 0, 0, 0, 0, 0, 0, 0, 0, 0, 0, 0, 0, 0, 0, 0]"	"[0, 0, 0, 0, 0, 0, 0, 0, 0, 0, 0, 0, 0, 0, 0, 0, 0, 0, 0, 0, 1]"	"[0.4336844002828002, 0.6754062003456056, 0.9087662003003061, 1.1170717002823949, 1.3254439001902938, 1.5419830000028014, 1.7670036000199616, 2.0004290002398193, 2.2838933002203703, 2.5670561003498733, 2.8338749003596604, 3.100652000401169, 3.3921050000935793, 3.6338937003165483, 3.8506116000935435, 4.050637600012124, 4.250595400109887, 4.484012900386006, 4.792207500431687, 5.225622300058603, 6.092383600305766]"	21	"[0.4317633998580277, 0.6734846001490951, 0.9068399001844227, 1.1151427999138832, 1.3235180000774562, 1.5400688997469842, 1.765079699922353, 1.9985051001422107, 2.2819684999994934, 2.565134400036186, 2.831946900114417, 3.0987272998318076, 3.390175700187683, 3.6319698998704553, 3.8486864999867976, 4.048714799806476, 4.248667600098997, 4.482089799828827, 4.790283699985594, 5.2236990998499095, 6.090399600099772]"	"[0.5814506001770496, 0.8065280001610518, 1.023177099879831, 1.2315179998986423, 1.439859800040722, 1.6734013999812305, 1.8815430998802185, 2.0983449001796544, 2.3732497999444604, 2.664975999854505, 2.9399661999195814, 3.215049299877137, 3.506679099984467, 3.748360099736601, 3.958083299919963, 4.165051700081676, 4.381750400178134, 4.598402299918234, 4.95816839998588, 5.365310700144619, 6.090403500013053]"	514.999362499919	515.005019099917	516.497026999947	516.513457600027	NA	NA	NA	NA	NA	NA	NA	"03"	"01"	"2024-01-31_11h11.16.052"	"BART_exp"	"2023.2.3"	119.984209678414	"2024-01-31 11h11.25.790166 +0100"	NA
"balloon.png"	88	0	14	14	20	516.513457600027	NA	NA	NA	NA	NA	NA	NA	NA	NA	NA	NA	NA	516.497204999905	516.513457600027	516.513457600027	516.513457600027	516.513457600027	516.513457600027	0.00347620015963912	0.00347620015963912	0.00347620015963912	516.513457600027	523.640480999835	23	1.15	FALSE	"[-0.09259259259259259, -0.09259259259259259, -0.09259259259259259, -0.09259259259259259, -0.09259259259259259, -0.09259259259259259, -0.09259259259259259, -0.09259259259259259, -0.09259259259259259, -0.09259259259259259, -0.09259259259259259, -0.09259259259259259, -0.09259259259259259, -0.09259259259259259, -0.09259259259259259, -0.09259259259259259, -0.09259259259259259, -0.09259259259259259, -0.09259259259259259, -0.09259259259259259, -0.09259259259259259, -0.09259259259259259, -0.09259259259259259, -0.09259259259259259]"	"[-0.39537037037037037, -0.39537037037037037, -0.39537037037037037, -0.39537037037037037, -0.39537037037037037, -0.39537037037037037, -0.39537037037037037, -0.39537037037037037, -0.39537037037037037, -0.39537037037037037, -0.39537037037037037, -0.39537037037037037, -0.39537037037037037, -0.39537037037037037, -0.39537037037037037, -0.39537037037037037, -0.39537037037037037, -0.39537037037037037, -0.39537037037037037, -0.39537037037037037, -0.39537037037037037, -0.39537037037037037, -0.39537037037037037, -0.39537037037037037]"	"[1, 1, 1, 1, 1, 1, 1, 1, 1, 1, 1, 1, 1, 1, 1, 1, 1, 1, 1, 1, 1, 1, 1, 0]"	"[0, 0, 0, 0, 0, 0, 0, 0, 0, 0, 0, 0, 0, 0, 0, 0, 0, 0, 0, 0, 0, 0, 0, 0]"	"[0, 0, 0, 0, 0, 0, 0, 0, 0, 0, 0, 0, 0, 0, 0, 0, 0, 0, 0, 0, 0, 0, 0, 1]"	"[0.5255359997972846, 0.7669937000609934, 1.00171779980883, 1.2170124999247491, 1.425517899915576, 1.6505239000543952, 1.8838614001870155, 2.1005518999882042, 2.3089334000833333, 2.5271030999720097, 2.725601099897176, 2.958784199785441, 3.150523900054395, 3.35882639978081, 3.542242399882525, 3.7671977998688817, 3.9838891001418233, 4.183874299749732, 4.400545199867338, 4.817484200000763, 6.184015200007707, 6.425807899795473, 6.625856400001794, 7.142380899749696]"	24	"[0.5170165002346039, 0.7584755001589656, 0.993369699921459, 1.208491399884224, 1.417005400173366, 1.642005099914968, 1.8753380002453923, 2.092034200206399, 2.300420899875462, 2.5187417999841273, 2.7170903999358416, 2.9502652999944985, 3.1420041997916996, 3.3503084001131356, 3.5337255001068115, 3.7586779999546707, 3.9753693002276123, 4.175352199934423, 4.392028800211847, 4.808973900042474, 6.175495999865234, 6.417284400202334, 6.617335199844092, 7.133797999937087]"	"[0.6583306002430618, 0.8916493998840451, 1.1000402001664042, 1.3250481002032757, 1.5333622000180185, 1.775057999882847, 2.008526199962944, 2.2085008998401463, 2.425085199996829, 2.625108600128442, 2.8417818997986615, 3.0334817999973893, 3.2502529001794755, 3.458494700025767, 3.6751799997873604, 3.8668708000332117, 4.083574399817735, 4.283660300076008, 4.5002104002051055, 4.933630700223148, 6.342042000032961, 6.550358899869025, 6.767073099967092, 7.133802200201899]"	523.64159870008	523.647281299811	525.139262599871	525.155730899889	NA	NA	NA	NA	NA	NA	NA	"03"	"01"	"2024-01-31_11h11.16.052"	"BART_exp"	"2023.2.3"	119.984209678414	"2024-01-31 11h11.25.790166 +0100"	NA
"balloon.png"	79	0	15	15	18	525.155730899889	NA	NA	NA	NA	NA	NA	NA	NA	NA	NA	NA	NA	525.139439200051	525.155730899889	525.155730899889	525.155730899889	525.155730899889	525.155730899889	-0.00089180003851652	-0.00089180003851652	-0.00089180003851652	525.155730899889	532.032907300163	25	1.25	FALSE	"[-0.09259259259259259, -0.09259259259259259, -0.09259259259259259, -0.09259259259259259, -0.09259259259259259, -0.09259259259259259, -0.09259259259259259, -0.09259259259259259, -0.09259259259259259, -0.09259259259259259, -0.09259259259259259, -0.09259259259259259, -0.09259259259259259, -0.09259259259259259, -0.09259259259259259, -0.09259259259259259, -0.09259259259259259, -0.09259259259259259, -0.09259259259259259, -0.09259259259259259, -0.09259259259259259, -0.09259259259259259, -0.09259259259259259, -0.09259259259259259, -0.09259259259259259, -0.09259259259259259]"	"[-0.39537037037037037, -0.39537037037037037, -0.39537037037037037, -0.39537037037037037, -0.39537037037037037, -0.39537037037037037, -0.39537037037037037, -0.39537037037037037, -0.39537037037037037, -0.39537037037037037, -0.39537037037037037, -0.39537037037037037, -0.39537037037037037, -0.39537037037037037, -0.39537037037037037, -0.39537037037037037, -0.39537037037037037, -0.39537037037037037, -0.39537037037037037, -0.39537037037037037, -0.39537037037037037, -0.39537037037037037, -0.39537037037037037, -0.39537037037037037, -0.39537037037037037, -0.39537037037037037]"	"[1, 1, 1, 1, 1, 1, 1, 1, 1, 1, 1, 1, 1, 1, 1, 1, 1, 1, 1, 1, 1, 1, 1, 1, 1, 0]"	"[0, 0, 0, 0, 0, 0, 0, 0, 0, 0, 0, 0, 0, 0, 0, 0, 0, 0, 0, 0, 0, 0, 0, 0, 0, 0]"	"[0, 0, 0, 0, 0, 0, 0, 0, 0, 0, 0, 0, 0, 0, 0, 0, 0, 0, 0, 0, 0, 0, 0, 0, 0, 1]"	"[0.44209810020402074, 0.6671230001375079, 0.8755195001140237, 1.1086660004220903, 1.3420041999779642, 1.5420560999773443, 1.7672410001978278, 1.9839390004053712, 2.2089257002808154, 2.4174187001772225, 2.6172412000596523, 2.817259300034493, 3.04231830034405, 3.2424882003106177, 3.4686821000650525, 3.7004944002255797, 3.9254956003278494, 4.117275600321591, 4.617401200346649, 4.850749700330198, 5.05908690020442, 5.767480000387877, 5.97579100029543, 6.167581400368363, 6.333991700317711, 6.892549599986523]"	26	"[0.43602170003578067, 0.6610452001914382, 0.8694422002881765, 1.1025847001001239, 1.3359201001003385, 1.5359850004315376, 1.7611697004176676, 1.9778576004318893, 2.2028507003560662, 2.4113463000394404, 2.6111636999994516, 2.8111773002892733, 3.0362431001849473, 3.236407299991697, 3.462761300150305, 3.6944162002764642, 3.9194235000759363, 4.111195800360292, 4.611323200166225, 4.84467380028218, 5.053003800101578, 5.7614068002440035, 5.969711200334132, 6.161504700314254, 6.327915200032294, 6.886413600295782]"	"[0.5525592002086341, 0.7690570000559092, 1.0024320003576577, 1.2108024000190198, 1.4441066002473235, 1.6524714999832213, 1.8942420003004372, 2.094159200321883, 2.310824400279671, 2.527660900261253, 2.7276778002269566, 2.935945500154048, 3.1445000004023314, 3.3692901004105806, 3.5692661004140973, 3.794941000174731, 3.977614200208336, 4.185971800237894, 4.727667900267988, 4.9527108003385365, 5.119353200308979, 5.877746400423348, 6.086129300296307, 6.2778255003504455, 6.411114100366831, 6.886418000329286]"	532.034295899794	532.039622399956	533.531499200035	533.539616299793	NA	NA	NA	NA	NA	NA	NA	"03"	"01"	"2024-01-31_11h11.16.052"	"BART_exp"	"2023.2.3"	119.984209678414	"2024-01-31 11h11.25.790166 +0100"	NA
"balloon.png"	92	0	16	16	21	533.539616299793	NA	NA	NA	NA	NA	NA	NA	NA	NA	NA	NA	NA	533.531680800021	533.539616299793	533.539616299793	533.539616299793	533.539616299793	533.539616299793	0.00539010018110275	0.00539010018110275	0.00539010018110275	533.539616299793	540.758522099815	26	1.3	FALSE	"[-0.09351851851851851, -0.09351851851851851, -0.09351851851851851, -0.09351851851851851, -0.09351851851851851, -0.09351851851851851, -0.09351851851851851, -0.09351851851851851, -0.09351851851851851, -0.09351851851851851, -0.09351851851851851, -0.09351851851851851, -0.09351851851851851, -0.09351851851851851, -0.09351851851851851, -0.09351851851851851, -0.09351851851851851, -0.09351851851851851, -0.09351851851851851, -0.09351851851851851, -0.09351851851851851, -0.09351851851851851, -0.09351851851851851, -0.09351851851851851, -0.09351851851851851, -0.09351851851851851, -0.09351851851851851]"	"[-0.39537037037037037, -0.39537037037037037, -0.39537037037037037, -0.39537037037037037, -0.39537037037037037, -0.39537037037037037, -0.39537037037037037, -0.39537037037037037, -0.39537037037037037, -0.39537037037037037, -0.39537037037037037, -0.39537037037037037, -0.39537037037037037, -0.39537037037037037, -0.39537037037037037, -0.39537037037037037, -0.39537037037037037, -0.39537037037037037, -0.39537037037037037, -0.39537037037037037, -0.39537037037037037, -0.39537037037037037, -0.39537037037037037, -0.39537037037037037, -0.39537037037037037, -0.39537037037037037, -0.39537037037037037]"	"[1, 1, 1, 1, 1, 1, 1, 1, 1, 1, 1, 1, 1, 1, 1, 1, 1, 1, 1, 1, 1, 1, 1, 1, 1, 1, 0]"	"[0, 0, 0, 0, 0, 0, 0, 0, 0, 0, 0, 0, 0, 0, 0, 0, 0, 0, 0, 0, 0, 0, 0, 0, 0, 0, 0]"	"[0, 0, 0, 0, 0, 0, 0, 0, 0, 0, 0, 0, 0, 0, 0, 0, 0, 0, 0, 0, 0, 0, 0, 0, 0, 0, 1]"	"[0.6671842001378536, 0.8504913998767734, 1.0836705998517573, 1.2838225001469254, 1.5004213000647724, 1.7170477998442948, 1.9420479000546038, 2.158734600059688, 2.3839149000123143, 2.5840166001580656, 2.7839083997532725, 3.00061669992283, 3.217378200031817, 3.4256460000760853, 3.6339961998164654, 3.825672899838537, 4.0590157001279294, 4.292218499816954, 4.5172318001277745, 4.742276600096375, 4.9674232001416385, 5.483965300023556, 6.017688499763608, 6.225870799738914, 6.418949000071734, 6.617527999915183, 7.225951499771327]"	27	"[0.6653207996860147, 0.8486231998540461, 1.081797099672258, 1.281953299883753, 1.4985513999126852, 1.7151811998337507, 1.940201099961996, 2.1568654999136925, 2.382049599662423, 2.582148799672723, 2.7820394998416305, 2.998741699848324, 3.215506099630147, 3.4237731997855008, 3.632127699907869, 3.823803899809718, 4.057144099846482, 4.290347599890083, 4.515383799560368, 4.740406399592757, 4.965553799644113, 5.482096999883652, 6.015826500020921, 6.224001399707049, 6.41725659975782, 6.615671099629253, 7.224024999886751]"	"[0.7734071998856962, 0.9816823997534811, 1.1983380997553468, 1.390027599874884, 1.5983928996138275, 1.8150617997162044, 2.0400860998779535, 2.256715899799019, 2.4567796997725964, 2.68177289981395, 2.898451699875295, 3.1067864997312427, 3.323483399581164, 3.5151579999364913, 3.7318167998455465, 3.9485208997502923, 4.165902599692345, 4.390250499825925, 4.631881599780172, 4.840398599859327, 5.0819207997992635, 5.590281399898231, 6.1320085995830595, 6.3320585996843874, 6.54869749955833, 6.740401899907738, 7.224029099568725]"	540.759597300086	540.765160600189	542.257066200022	542.265197599772	NA	NA	NA	NA	NA	NA	NA	"03"	"01"	"2024-01-31_11h11.16.052"	"BART_exp"	"2023.2.3"	119.984209678414	"2024-01-31 11h11.25.790166 +0100"	NA
"balloon.png"	101	0	17	17	23	542.265197599772	NA	NA	NA	NA	NA	NA	NA	NA	NA	NA	NA	NA	542.257249800023	542.265197599772	542.265197599772	542.265197599772	542.265197599772	542.265197599772	0.00566140003502368	0.00566140003502368	0.00566140003502368	542.265197599772	550.9258543998	23	1.15	FALSE	"[-0.09351851851851851, -0.09351851851851851, -0.09351851851851851, -0.09351851851851851, -0.09351851851851851, -0.09351851851851851, -0.09351851851851851, -0.09351851851851851, -0.09351851851851851, -0.09351851851851851, -0.09351851851851851, -0.09351851851851851, -0.09351851851851851, -0.09351851851851851, -0.09351851851851851, -0.09351851851851851, -0.09351851851851851, -0.09351851851851851, -0.09351851851851851, -0.09351851851851851, -0.09351851851851851, -0.09351851851851851, -0.09351851851851851, -0.09351851851851851]"	"[-0.39537037037037037, -0.39537037037037037, -0.39537037037037037, -0.39537037037037037, -0.39537037037037037, -0.39537037037037037, -0.39537037037037037, -0.39537037037037037, -0.39537037037037037, -0.39537037037037037, -0.39537037037037037, -0.39537037037037037, -0.39537037037037037, -0.39537037037037037, -0.39537037037037037, -0.39537037037037037, -0.39537037037037037, -0.39537037037037037, -0.39537037037037037, -0.39537037037037037, -0.39537037037037037, -0.39537037037037037, -0.39537037037037037, -0.39537037037037037]"	"[1, 1, 1, 1, 1, 1, 1, 1, 1, 1, 1, 1, 1, 1, 1, 1, 1, 1, 1, 1, 1, 1, 1, 0]"	"[0, 0, 0, 0, 0, 0, 0, 0, 0, 0, 0, 0, 0, 0, 0, 0, 0, 0, 0, 0, 0, 0, 0, 0]"	"[0, 0, 0, 0, 0, 0, 0, 0, 0, 0, 0, 0, 0, 0, 0, 0, 0, 0, 0, 0, 0, 0, 0, 1]"	"[2.100589800160378, 2.292256500106305, 2.5255987998098135, 2.767128299921751, 3.017576700076461, 3.2589914998970926, 4.733972999732941, 4.950698799919337, 5.167464499827474, 5.375715599860996, 5.583972400054336, 5.767407199833542, 5.959006799850613, 6.159078700002283, 6.367387900128961, 6.5423890999518335, 6.725788800045848, 6.8927321000956, 7.067578999791294, 7.292606699746102, 7.767480100039393, 7.96748899994418, 8.125843499787152, 8.667715100105852]"	24	"[2.0987384002655745, 2.290411800146103, 2.523753700312227, 2.765279599931091, 3.0157250999473035, 3.257143000140786, 4.732122200075537, 4.948852200061083, 5.165611899923533, 5.373863100074232, 5.582118400372565, 5.7655551000498235, 5.957155900076032, 6.157225199975073, 6.365538900252432, 6.540533300023526, 6.7239466002210975, 6.89087860006839, 7.065727400127798, 7.290754100307822, 7.765628200024366, 7.96563920006156, 8.12399430014193, 8.665807100012898]"	"[2.1984369000419974, 2.431802300270647, 2.66514870012179, 2.898487000260502, 3.1331919003278017, 3.365175100043416, 4.8237916002981365, 5.048785100225359, 5.273642800282687, 5.456981400027871, 5.658400500193238, 5.8570098001509905, 6.0570269003510475, 6.240364300087094, 6.415387799963355, 6.598734200000763, 6.807111100293696, 6.998806100338697, 7.173765100073069, 7.340469700284302, 7.857185500208288, 8.057212400250137, 8.248835500329733, 8.66581130027771]"	550.926939200144	550.932455100119	552.424631199799	552.449301300105	NA	NA	NA	NA	NA	NA	NA	"03"	"01"	"2024-01-31_11h11.16.052"	"BART_exp"	"2023.2.3"	119.984209678414	"2024-01-31 11h11.25.790166 +0100"	NA
"balloon.png"	31	0	18	18	7	552.449301300105	NA	NA	NA	NA	NA	NA	NA	NA	NA	NA	NA	NA	552.424844299909	552.449301300105	552.449301300105	552.449301300105	552.449301300105	552.449301300105	-0.00073480000719428	-0.00073480000719428	-0.00073480000719428	552.449301300105	560.284816400148	29	1.45	FALSE	"[-0.09351851851851851, -0.09351851851851851, -0.09351851851851851, -0.09351851851851851, -0.09351851851851851, -0.09351851851851851, -0.09351851851851851, -0.09351851851851851, -0.09351851851851851, -0.09351851851851851, -0.09351851851851851, -0.09351851851851851, -0.09351851851851851, -0.09351851851851851, -0.09351851851851851, -0.09351851851851851, -0.09351851851851851, -0.09351851851851851, -0.09351851851851851, -0.09351851851851851, -0.09351851851851851, -0.09351851851851851, -0.09351851851851851, -0.09351851851851851, -0.09351851851851851, -0.09351851851851851, -0.09351851851851851, -0.09351851851851851, -0.09351851851851851, -0.09351851851851851]"	"[-0.39537037037037037, -0.39537037037037037, -0.39537037037037037, -0.39537037037037037, -0.39537037037037037, -0.39537037037037037, -0.39537037037037037, -0.39537037037037037, -0.39537037037037037, -0.39537037037037037, -0.39537037037037037, -0.39537037037037037, -0.39537037037037037, -0.39537037037037037, -0.39537037037037037, -0.39537037037037037, -0.39537037037037037, -0.39537037037037037, -0.39537037037037037, -0.39537037037037037, -0.39537037037037037, -0.39537037037037037, -0.39537037037037037, -0.39537037037037037, -0.39537037037037037, -0.39537037037037037, -0.39537037037037037, -0.39537037037037037, -0.39537037037037037, -0.39537037037037037]"	"[1, 1, 1, 1, 1, 1, 1, 1, 1, 1, 1, 1, 1, 1, 1, 1, 1, 1, 1, 1, 1, 1, 1, 1, 1, 1, 1, 1, 1, 0]"	"[0, 0, 0, 0, 0, 0, 0, 0, 0, 0, 0, 0, 0, 0, 0, 0, 0, 0, 0, 0, 0, 0, 0, 0, 0, 0, 0, 0, 0, 0]"	"[0, 0, 0, 0, 0, 0, 0, 0, 0, 0, 0, 0, 0, 0, 0, 0, 0, 0, 0, 0, 0, 0, 0, 0, 0, 0, 0, 0, 0, 1]"	"[0.500250400044024, 0.7252144003286958, 0.9335881001316011, 1.1501981001347303, 1.358414400368929, 1.5418980000540614, 1.7419664999470115, 1.958434000145644, 2.1751339002512395, 2.383454800117761, 2.600153500214219, 2.833488100208342, 3.0350252999924123, 3.2419902002438903, 3.441837700083852, 3.6587211000733078, 3.8670585001818836, 4.083783300127834, 4.292088500224054, 4.517121100332588, 4.725454700179398, 5.858849000185728, 6.083964600227773, 6.283878700342029, 6.475586700253189, 6.667236300185323, 6.858898600097746, 7.042381200008094, 7.225451700389385, 7.859017100185156]"	30	"[0.48938060039654374, 0.7143417000770569, 0.9227130003273487, 1.139323000330478, 1.3475383003242314, 1.531027500052005, 1.7310949000529945, 1.9475577003322542, 2.164258100092411, 2.3725770004093647, 2.589280300308019, 2.822612500283867, 3.0243090000003576, 3.2311143004335463, 3.4309639004059136, 3.647851800080389, 3.8561809002421796, 4.072911499999464, 4.281214600428939, 4.506247200071812, 4.714579900261015, 5.847975400276482, 6.073087000288069, 6.273006300441921, 6.464713400229812, 6.656360200140625, 6.848024300299585, 7.031505200080574, 7.214577900245786, 7.848084000404924]"	"[0.6306976000778377, 0.8391332002356648, 1.0556770004332066, 1.2390384003520012, 1.430717000272125, 1.6306990003213286, 1.839056100230664, 2.0557334003970027, 2.264111100230366, 2.480792000424117, 2.6974702002480626, 2.9308213000185788, 3.139147000387311, 3.3558657001703978, 3.555842800065875, 3.772552600130439, 3.980895100161433, 4.214312500320375, 4.405964100267738, 4.614270200021565, 4.830919900443405, 5.964379500132054, 6.181022200267762, 6.389353800099343, 6.564391600433737, 6.764399399980903, 6.9560631001368165, 7.139426700305194, 7.297773400321603, 7.848088100086898]"	560.2858825	560.291447800118	561.783401899971	561.791444600094	NA	NA	NA	NA	NA	NA	NA	"03"	"01"	"2024-01-31_11h11.16.052"	"BART_exp"	"2023.2.3"	119.984209678414	"2024-01-31 11h11.25.790166 +0100"	NA
"balloon.png"	49	0	19	19	11	561.791444600094	NA	NA	NA	NA	NA	NA	NA	NA	NA	NA	NA	NA	561.783578900155	561.791444600094	561.791444600094	561.791444600094	561.791444600094	561.791444600094	-0.00097429985180497	-0.00097429985180497	-0.00097429985180497	561.791444600094	569.610285699833	33	1.65	FALSE	"[-0.09351851851851851, -0.09351851851851851, -0.09351851851851851, -0.09351851851851851, -0.09351851851851851, -0.09351851851851851, -0.09351851851851851, -0.09351851851851851, -0.09351851851851851, -0.09351851851851851, -0.09351851851851851, -0.09351851851851851, -0.09351851851851851, -0.09351851851851851, -0.09351851851851851, -0.09351851851851851, -0.09351851851851851, -0.09351851851851851, -0.09351851851851851, -0.09351851851851851, -0.09351851851851851, -0.09351851851851851, -0.09351851851851851, -0.09351851851851851, -0.09351851851851851, -0.09351851851851851, -0.09351851851851851, -0.09351851851851851, -0.09351851851851851, -0.09351851851851851, -0.09351851851851851, -0.09351851851851851, -0.09351851851851851, -0.09351851851851851]"	"[-0.39444444444444443, -0.39444444444444443, -0.39444444444444443, -0.39444444444444443, -0.39444444444444443, -0.39444444444444443, -0.39444444444444443, -0.39444444444444443, -0.39444444444444443, -0.39444444444444443, -0.39444444444444443, -0.39444444444444443, -0.39444444444444443, -0.39444444444444443, -0.39444444444444443, -0.39444444444444443, -0.39444444444444443, -0.39444444444444443, -0.39444444444444443, -0.39444444444444443, -0.39444444444444443, -0.39444444444444443, -0.39444444444444443, -0.39444444444444443, -0.39444444444444443, -0.39444444444444443, -0.39444444444444443, -0.39444444444444443, -0.39444444444444443, -0.39444444444444443, -0.39444444444444443, -0.39444444444444443, -0.39444444444444443, -0.39444444444444443]"	"[1, 1, 1, 1, 1, 1, 1, 1, 1, 1, 1, 1, 1, 1, 1, 1, 1, 1, 1, 1, 1, 1, 1, 1, 1, 1, 1, 1, 1, 1, 1, 1, 1, 0]"	"[0, 0, 0, 0, 0, 0, 0, 0, 0, 0, 0, 0, 0, 0, 0, 0, 0, 0, 0, 0, 0, 0, 0, 0, 0, 0, 0, 0, 0, 0, 0, 0, 0, 0]"	"[0, 0, 0, 0, 0, 0, 0, 0, 0, 0, 0, 0, 0, 0, 0, 0, 0, 0, 0, 0, 0, 0, 0, 0, 0, 0, 0, 0, 0, 0, 0, 0, 0, 1]"	"[0.40864030038937926, 0.625288600102067, 0.8502979003824294, 1.0587633000686765, 1.292160500306636, 1.4921927000395954, 1.725525100249797, 1.9338898002170026, 2.167118100449443, 2.400592700112611, 2.592347000259906, 2.800466500222683, 3.0171283003874123, 3.20879470044747, 3.3839687001891434, 3.592151100281626, 3.783849300350994, 3.9838744001463056, 4.183893400244415, 4.40057980036363, 4.6006731004454195, 4.817231600172818, 5.008954300079495, 5.23396350024268, 5.4339974001049995, 5.650718600023538, 5.833970400039107, 6.050641200039536, 6.250772700179368, 6.450689100194722, 6.64239630009979, 6.82573870010674, 7.034163300413638, 7.825779400300235]"	34	"[0.4064215002581477, 0.6230652001686394, 0.8480720003135502, 1.0565360002219677, 1.2899314002133906, 1.4899650001898408, 1.7233045003376901, 1.9316675001755357, 2.1648917999118567, 2.398367800284177, 2.590117299929261, 2.7982391002587974, 3.014904700219631, 3.2065658001229167, 3.3817402999848127, 3.589928900357336, 3.7816237001679838, 3.981644700281322, 4.181665800046176, 4.398353199940175, 4.598445100244135, 4.815003900323063, 5.006725900340825, 5.231737200170755, 5.431769500020891, 5.64850419992581, 5.8317422000691295, 6.048415000084788, 6.248545800335705, 6.448459200095385, 6.64016760000959, 6.823507700115442, 7.031938000116497, 7.823493200354278]"	"[0.4980084002017975, 0.7313041999004781, 0.9562607002444565, 1.181525300256908, 1.3814348001033068, 1.6063613002188504, 1.8065440999343991, 2.039699800312519, 2.256407800130546, 2.456376800313592, 2.6897945003584027, 2.8897224003449082, 3.1064166999422014, 3.29809040017426, 3.489823200274259, 3.689837200101465, 3.8731260001659393, 4.073193999938667, 4.273162400349975, 4.4648355999961495, 4.681521499995142, 4.889887600205839, 5.098247699905187, 5.306561999954283, 5.514928400050849, 5.714934200048447, 5.956645000260323, 6.156627899967134, 6.35663350019604, 6.548395200166851, 6.731666000094265, 6.931682900059968, 7.098343400284648, 7.823497500270605]"	569.611438199878	569.617051600013	571.109022200108	571.125481999945	NA	NA	NA	NA	NA	NA	NA	"03"	"01"	"2024-01-31_11h11.16.052"	"BART_exp"	"2023.2.3"	119.984209678414	"2024-01-31 11h11.25.790166 +0100"	NA
"balloon.png"	127	0	20	20	29	571.125481999945	NA	NA	NA	NA	NA	NA	NA	NA	NA	NA	NA	NA	571.109197100159	571.125481999945	571.125481999945	571.125481999945	571.125481999945	571.125481999945	-0.00092589994892477	-0.00092589994892477	-0.00092589994892477	571.125481999945	584.044742499944	54	2.7	FALSE	"[-0.09351851851851851, -0.09351851851851851, -0.09351851851851851, -0.09351851851851851, -0.09351851851851851, -0.09351851851851851, -0.09351851851851851, -0.09351851851851851, -0.09351851851851851, -0.09351851851851851, -0.09351851851851851, -0.09351851851851851, -0.09351851851851851, -0.09351851851851851, -0.09351851851851851, -0.09351851851851851, -0.09351851851851851, -0.09351851851851851, -0.09351851851851851, -0.09351851851851851, -0.09351851851851851, -0.09351851851851851, -0.09351851851851851, -0.09351851851851851, -0.09351851851851851, -0.09351851851851851, -0.09351851851851851, -0.09351851851851851, -0.09351851851851851, -0.09351851851851851, -0.09351851851851851, -0.09351851851851851, -0.09351851851851851, -0.09351851851851851, -0.09351851851851851, -0.09351851851851851, -0.09351851851851851, -0.09351851851851851, -0.09351851851851851, -0.09351851851851851, -0.09351851851851851, -0.09351851851851851, -0.09351851851851851, -0.09351851851851851, -0.09351851851851851, -0.09351851851851851, -0.09351851851851851, -0.09351851851851851, -0.09351851851851851, -0.09351851851851851, -0.09351851851851851, -0.09351851851851851, -0.09351851851851851, -0.09351851851851851, -0.09351851851851851]"	"[-0.39444444444444443, -0.39444444444444443, -0.39444444444444443, -0.39444444444444443, -0.39444444444444443, -0.39444444444444443, -0.39444444444444443, -0.39444444444444443, -0.39444444444444443, -0.39444444444444443, -0.39444444444444443, -0.39444444444444443, -0.39444444444444443, -0.39444444444444443, -0.39444444444444443, -0.39444444444444443, -0.39444444444444443, -0.39444444444444443, -0.39444444444444443, -0.39444444444444443, -0.39444444444444443, -0.39444444444444443, -0.39444444444444443, -0.39444444444444443, -0.39444444444444443, -0.39444444444444443, -0.39444444444444443, -0.39444444444444443, -0.39444444444444443, -0.39444444444444443, -0.39444444444444443, -0.39444444444444443, -0.39444444444444443, -0.39444444444444443, -0.39444444444444443, -0.39444444444444443, -0.39444444444444443, -0.39444444444444443, -0.39444444444444443, -0.39444444444444443, -0.39444444444444443, -0.39444444444444443, -0.39444444444444443, -0.39444444444444443, -0.39444444444444443, -0.39444444444444443, -0.39444444444444443, -0.39444444444444443, -0.39444444444444443, -0.39444444444444443, -0.39444444444444443, -0.39444444444444443, -0.39444444444444443, -0.39444444444444443, -0.39444444444444443]"	"[1, 1, 1, 1, 1, 1, 1, 1, 1, 1, 1, 1, 1, 1, 1, 1, 1, 1, 1, 1, 1, 1, 1, 1, 1, 1, 1, 1, 1, 1, 1, 1, 1, 1, 1, 1, 1, 1, 1, 1, 1, 1, 1, 1, 1, 1, 1, 1, 1, 1, 1, 1, 1, 1, 0]"	"[0, 0, 0, 0, 0, 0, 0, 0, 0, 0, 0, 0, 0, 0, 0, 0, 0, 0, 0, 0, 0, 0, 0, 0, 0, 0, 0, 0, 0, 0, 0, 0, 0, 0, 0, 0, 0, 0, 0, 0, 0, 0, 0, 0, 0, 0, 0, 0, 0, 0, 0, 0, 0, 0, 0]"	"[0, 0, 0, 0, 0, 0, 0, 0, 0, 0, 0, 0, 0, 0, 0, 0, 0, 0, 0, 0, 0, 0, 0, 0, 0, 0, 0, 0, 0, 0, 0, 0, 0, 0, 0, 0, 0, 0, 0, 0, 0, 0, 0, 0, 0, 0, 0, 0, 0, 0, 0, 0, 0, 0, 1]"	"[0.4006684999912977, 0.6005214001052082, 0.8089538002386689, 1.0255530001595616, 1.2172397002577782, 1.4420858002267778, 1.6587249003350735, 1.8503978000953794, 2.0754662002436817, 2.2587740002200007, 3.0173144000582397, 3.217343600001186, 3.4090051003731787, 3.6090061999857426, 3.825729100033641, 4.009044600185007, 4.193819200154394, 4.392413500230759, 4.6007471000775695, 4.792457800358534, 4.9924290999770164, 5.192508799955249, 5.417614600155503, 5.600832600146532, 5.792528000194579, 6.142527900170535, 6.343818699941039, 6.517602500040084, 6.709391199983656, 6.892422300297767, 7.102064399980009, 7.309148299973458, 7.525931500364095, 7.717772500123829, 7.934278100263327, 8.151008400134742, 8.401033600326627, 8.634260300081223, 8.834207100328058, 9.075919600203633, 9.309417000040412, 9.53445400018245, 9.76780050015077, 9.967774800024927, 10.192797100171447, 10.425979600287974, 10.634342400357127, 10.859355700202286, 11.092702700290829, 11.292837200220674, 11.809592900332063, 12.02616100013256, 12.234458300285041, 12.384605900384486, 12.934646000154316]"	55	"[0.3944736002013087, 0.5943204001523554, 0.8027514000423253, 1.0193564998917282, 1.2110430002212524, 1.4358843001537025, 1.6525256000459194, 1.8442274001426995, 2.0692712999880314, 2.252571400254965, 3.011117000132799, 3.2111443001776934, 3.4028023001737893, 3.6028010002337396, 3.819526799954474, 4.0028471001423895, 4.1878967001102865, 4.386208800133318, 4.594543499872088, 4.78626300022006, 4.986229300033301, 5.186309900134802, 5.411414300091565, 5.594634999986738, 5.786325899884105, 6.136331700254232, 6.337617800105363, 6.511401200201362, 6.70319649996236, 6.8862200002186, 7.096018000040203, 7.3029451998882, 7.519733599852771, 7.711574399843812, 7.9280803999863565, 8.144806500058621, 8.39483610028401, 8.62806520005688, 8.828003500122577, 9.069746499881148, 9.303220800124109, 9.52825180022046, 9.761605400126427, 9.961575400084257, 10.186594100203365, 10.419774299953133, 10.628141900058836, 10.853155999910086, 11.086500599980354, 11.28663820028305, 11.803398599848151, 12.019974200055003, 12.228261400014162, 12.378403199836612, 12.928382699843496]"	"[0.5024043000303209, 0.7191340001299977, 0.9106699000112712, 1.11085439985618, 1.3190445001237094, 1.5357086001895368, 1.7442306000739336, 1.9357241000980139, 2.119079399853945, 2.369161100126803, 3.094148099888116, 3.2941776998341084, 3.502500200178474, 3.7108948999084532, 3.902581899892539, 4.102568599861115, 4.294247000012547, 4.494252699892968, 4.686033899895847, 4.885938399937004, 5.094316800124943, 5.28601530008018, 5.469285400118679, 5.685993399936706, 5.869338400196284, 6.227775299921632, 6.419404299929738, 6.602855199947953, 6.802858500275761, 7.011105600278825, 7.202809100039303, 7.411098500248045, 7.636108700186014, 7.854319300036877, 8.061159099917859, 8.277825199998915, 8.494499899912626, 8.736187200061977, 8.94452130002901, 9.177896600216627, 9.419569999910891, 9.644605800043792, 9.869610900059342, 10.094771400094032, 10.294642600230873, 10.52940999995917, 10.753032499924302, 10.978019299916923, 11.194799500051886, 11.411418800242245, 11.912787199951708, 12.128084999974817, 12.311446399893612, 12.49478270020336, 12.928386900108308]"	584.046396200079	584.051357599907	585.543327999767	585.551508499775	NA	NA	NA	NA	NA	NA	NA	"03"	"01"	"2024-01-31_11h11.16.052"	"BART_exp"	"2023.2.3"	119.984209678414	"2024-01-31 11h11.25.790166 +0100"	NA
"balloon.png"	5	0	21	21	1	585.551508499775	NA	NA	NA	NA	NA	NA	NA	NA	NA	NA	NA	NA	585.543503699824	585.551508499775	585.551508499775	585.551508499775	585.551508499775	585.551508499775	0.00517100002616643	0.00517100002616643	0.00517100002616643	585.551508499775	587.861925099976	6	0.25	TRUE	"[-0.09722222222222222, -0.09722222222222222, -0.09722222222222222, -0.09722222222222222, -0.09814814814814815, -0.09814814814814815]"	"[-0.3972222222222222, -0.3972222222222222, -0.3972222222222222, -0.3972222222222222, -0.3972222222222222, -0.3972222222222222]"	"[1, 1, 1, 1, 1, 1]"	"[0, 0, 0, 0, 0, 0]"	"[0, 0, 0, 0, 0, 0]"	"[0.7588541000150144, 1.0170673998072743, 1.275500999763608, 1.4937022998929024, 1.9255969999358058, 2.1506300000473857]"	6	"[0.7569987000897527, 1.0152098000980914, 1.273641100153327, 1.4919994003139436, 1.9237418002448976, 2.148780799936503]"	"[0.8816849999129772, 1.1816887999884784, 1.3900438998825848, 1.6067274999804795, 2.073429699987173, 2.3068118998780847]"	587.862575999927	587.868312499952	589.360273300204	589.376722999848	NA	NA	NA	NA	NA	NA	NA	"03"	"01"	"2024-01-31_11h11.16.052"	"BART_exp"	"2023.2.3"	119.984209678414	"2024-01-31 11h11.25.790166 +0100"	NA
"balloon.png"	123	0	22	22	28	589.376722999848	NA	NA	NA	NA	NA	NA	NA	NA	NA	NA	NA	NA	589.360450699925	589.376722999848	589.376722999848	589.376722999848	589.376722999848	589.376722999848	-0.00081240013241767	-0.00081240013241767	-0.00081240013241767	589.376722999848	596.120373699814	26	1.3	FALSE	"[-0.09814814814814815, -0.09814814814814815, -0.09814814814814815, -0.09814814814814815, -0.09814814814814815, -0.09814814814814815, -0.09814814814814815, -0.09814814814814815, -0.09814814814814815, -0.09814814814814815, -0.09814814814814815, -0.09814814814814815, -0.09814814814814815, -0.09814814814814815, -0.09814814814814815, -0.09814814814814815, -0.09814814814814815, -0.09814814814814815, -0.09814814814814815, -0.09814814814814815, -0.09814814814814815, -0.09814814814814815, -0.09814814814814815, -0.09814814814814815, -0.09814814814814815, -0.09814814814814815, -0.09814814814814815]"	"[-0.3972222222222222, -0.3972222222222222, -0.3972222222222222, -0.3972222222222222, -0.3972222222222222, -0.3972222222222222, -0.3972222222222222, -0.3972222222222222, -0.3972222222222222, -0.3972222222222222, -0.3972222222222222, -0.3972222222222222, -0.3972222222222222, -0.3972222222222222, -0.3972222222222222, -0.3972222222222222, -0.3972222222222222, -0.3972222222222222, -0.3972222222222222, -0.3972222222222222, -0.3972222222222222, -0.3972222222222222, -0.3972222222222222, -0.3972222222222222, -0.3972222222222222, -0.3972222222222222, -0.3972222222222222]"	"[1, 1, 1, 1, 1, 1, 1, 1, 1, 1, 1, 1, 1, 1, 1, 1, 1, 1, 1, 1, 1, 1, 1, 1, 1, 1, 0]"	"[0, 0, 0, 0, 0, 0, 0, 0, 0, 0, 0, 0, 0, 0, 0, 0, 0, 0, 0, 0, 0, 0, 0, 0, 0, 0, 0]"	"[0, 0, 0, 0, 0, 0, 0, 0, 0, 0, 0, 0, 0, 0, 0, 0, 0, 0, 0, 0, 0, 0, 0, 0, 0, 0, 1]"	"[0.6419544001109898, 0.8921652999706566, 1.150334999896586, 1.3753680000081658, 1.6086826999671757, 1.8337122001685202, 2.07554529979825, 2.3089940999634564, 2.56708010006696, 2.817147399764508, 3.0922759999521077, 3.3423248999752104, 3.57551690004766, 3.792180099990219, 4.025573700200766, 4.233861300162971, 4.442329999990761, 4.6590309999883175, 4.85071639996022, 5.042363999877125, 5.234111099969596, 5.434036599937826, 5.625658100005239, 5.800808299798518, 5.992317699827254, 6.184011499863118, 6.759012899827212]"	27	"[0.6366375996731222, 0.8868545000441372, 1.1450164997950196, 1.3700537998229265, 1.6033681998960674, 1.8283957000821829, 2.0702352998778224, 2.3036886998452246, 2.5617659999988973, 2.81182809965685, 3.0869628000073135, 3.337010699789971, 3.5701990998350084, 3.7868658998049796, 4.0202549998648465, 4.228547299746424, 4.437040499877185, 4.653715199790895, 4.845398299861699, 5.0370461996644735, 5.228804999962449, 5.428722700104117, 5.620341899804771, 5.795492199715227, 5.9870028998702765, 6.178695399779826, 6.753633900079876]"	"[0.7948348997160792, 1.028222099877894, 1.2698747999966145, 1.478213899768889, 1.719891400076449, 1.9532498996704817, 2.186588699929416, 2.4199526999145746, 2.66996519966051, 2.903314800001681, 3.20338169997558, 3.4450972001068294, 3.6798872998915613, 3.911704999860376, 4.145107899792492, 4.361765999812633, 4.570111199747771, 4.770113999955356, 4.961858499795198, 5.153494599740952, 5.345131299924105, 5.5285414000973105, 5.711814600042999, 5.895211999770254, 6.103540899697691, 6.286926199682057, 6.753638099879026]"	596.121547199786	596.127175500151	597.619144700002	597.63561470015	NA	NA	NA	NA	NA	NA	NA	"03"	"01"	"2024-01-31_11h11.16.052"	"BART_exp"	"2023.2.3"	119.984209678414	"2024-01-31 11h11.25.790166 +0100"	NA
"balloon.png"	44	0	23	23	10	597.63561470015	NA	NA	NA	NA	NA	NA	NA	NA	NA	NA	NA	NA	597.619322400074	597.63561470015	597.63561470015	597.63561470015	597.63561470015	597.63561470015	-0.00099099986255168	-0.00099099986255168	-0.00099099986255168	597.63561470015	606.062901100144	30	1.5	FALSE	"[-0.09814814814814815, -0.09814814814814815, -0.09814814814814815, -0.09814814814814815, -0.09814814814814815, -0.09814814814814815, -0.09814814814814815, -0.09814814814814815, -0.09814814814814815, -0.09814814814814815, -0.09814814814814815, -0.09814814814814815, -0.09814814814814815, -0.09814814814814815, -0.09814814814814815, -0.09814814814814815, -0.09814814814814815, -0.09814814814814815, -0.09814814814814815, -0.09814814814814815, -0.09814814814814815, -0.09814814814814815, -0.09814814814814815, -0.09814814814814815, -0.09814814814814815, -0.09814814814814815, -0.09814814814814815, -0.09814814814814815, -0.09814814814814815, -0.09814814814814815, -0.09814814814814815]"	"[-0.3972222222222222, -0.3972222222222222, -0.3972222222222222, -0.3972222222222222, -0.3972222222222222, -0.3972222222222222, -0.3972222222222222, -0.3972222222222222, -0.3972222222222222, -0.3972222222222222, -0.3972222222222222, -0.3972222222222222, -0.3972222222222222, -0.3972222222222222, -0.3972222222222222, -0.3972222222222222, -0.3972222222222222, -0.3972222222222222, -0.3972222222222222, -0.3972222222222222, -0.3972222222222222, -0.3972222222222222, -0.3972222222222222, -0.3972222222222222, -0.3972222222222222, -0.3972222222222222, -0.3972222222222222, -0.3972222222222222, -0.3972222222222222, -0.3972222222222222, -0.3972222222222222]"	"[1, 1, 1, 1, 1, 1, 1, 1, 1, 1, 1, 1, 1, 1, 1, 1, 1, 1, 1, 1, 1, 1, 1, 1, 1, 1, 1, 1, 1, 1, 0]"	"[0, 0, 0, 0, 0, 0, 0, 0, 0, 0, 0, 0, 0, 0, 0, 0, 0, 0, 0, 0, 0, 0, 0, 0, 0, 0, 0, 0, 0, 0, 0]"	"[0, 0, 0, 0, 0, 0, 0, 0, 0, 0, 0, 0, 0, 0, 0, 0, 0, 0, 0, 0, 0, 0, 0, 0, 0, 0, 0, 0, 0, 0, 1]"	"[1.2172058001160622, 1.733799499925226, 1.9922482999973, 2.2173000001348555, 2.417265299707651, 2.600627399981022, 2.8173929997719824, 3.042319799773395, 3.267343499697745, 3.5090584997087717, 3.750647099688649, 3.9672155999578536, 4.175559899769723, 4.359029599931091, 4.567284000106156, 4.784215999767184, 5.000777800101787, 5.225827000103891, 5.434160700067878, 5.659157800022513, 5.900671899784356, 6.134095899760723, 6.367517000064254, 6.584295199718326, 6.800901199690998, 7.000927200075239, 7.200929099693894, 7.392637699842453, 7.60935080004856, 8.026039499789476, 8.442685199901462]"	31	"[1.2107449998147786, 1.7273347000591457, 1.9857848002575338, 2.2108376999385655, 2.410799200180918, 2.5941675999201834, 2.8109268001280725, 3.03585259988904, 3.260881899856031, 3.502590199932456, 3.7441851999610662, 3.952482699882239, 4.169094699900597, 4.352573100011796, 4.560819299891591, 4.777757199946791, 4.99431880004704, 5.219363300129771, 5.4276982001028955, 5.652691300027072, 5.894203200004995, 6.127639499958605, 6.361054100096226, 6.577826200053096, 6.794434399809688, 6.994461200200021, 7.194489500019699, 7.386178799904883, 7.60288369981572, 8.019571700133383, 8.436162000056356]"	"[1.3771211002022028, 1.8771422002464533, 2.110524700023234, 2.327165300026536, 2.5188465998508036, 2.7356040999293327, 2.960583200212568, 3.16889759991318, 3.3939348999410868, 3.618970800191164, 3.8522630999796093, 4.068997499998659, 4.285682099871337, 4.4856467000208795, 4.710652300156653, 4.91905270004645, 5.144098900258541, 5.377361699938774, 5.585757200140506, 5.819057099986821, 6.0524646998383105, 6.269155399873853, 6.485793500207365, 6.7024773000739515, 6.9191236002370715, 7.13584170024842, 7.319169399794191, 7.527671399991959, 7.910897899884731, 8.160914700012654, 8.436166199855506]"	606.064150500111	606.069558199961	607.561495999806	607.569640100002	NA	NA	NA	NA	NA	NA	NA	"03"	"01"	"2024-01-31_11h11.16.052"	"BART_exp"	"2023.2.3"	119.984209678414	"2024-01-31 11h11.25.790166 +0100"	NA
"balloon.png"	40	0	24	24	9	607.569640100002	NA	NA	NA	NA	NA	NA	NA	NA	NA	NA	NA	NA	607.561679900158	607.569640100002	607.569640100002	607.569640100002	607.569640100002	607.569640100002	0.00555850006639957	0.00555850006639957	0.00555850006639957	607.569640100002	617.588740299921	32	1.6	FALSE	"[-0.09814814814814815, -0.09814814814814815, -0.09814814814814815, -0.09814814814814815, -0.09814814814814815, -0.09814814814814815, -0.09814814814814815, -0.09814814814814815, -0.09814814814814815, -0.09814814814814815, -0.09814814814814815, -0.09814814814814815, -0.09814814814814815, -0.09814814814814815, -0.09814814814814815, -0.09814814814814815, -0.09814814814814815, -0.09814814814814815, -0.09814814814814815, -0.09814814814814815, -0.09814814814814815, -0.09814814814814815, -0.09814814814814815, -0.09814814814814815, -0.09814814814814815, -0.09814814814814815, -0.09814814814814815, -0.09814814814814815, -0.09814814814814815, -0.09814814814814815, -0.09814814814814815, -0.09814814814814815, -0.09814814814814815]"	"[-0.3972222222222222, -0.3972222222222222, -0.3972222222222222, -0.3972222222222222, -0.3972222222222222, -0.3972222222222222, -0.3972222222222222, -0.3972222222222222, -0.3972222222222222, -0.3972222222222222, -0.3972222222222222, -0.3972222222222222, -0.3972222222222222, -0.3972222222222222, -0.3972222222222222, -0.3972222222222222, -0.3972222222222222, -0.3972222222222222, -0.3972222222222222, -0.3972222222222222, -0.3972222222222222, -0.3972222222222222, -0.3972222222222222, -0.3972222222222222, -0.3972222222222222, -0.3972222222222222, -0.3972222222222222, -0.3972222222222222, -0.3972222222222222, -0.3972222222222222, -0.3972222222222222, -0.3972222222222222, -0.3972222222222222]"	"[1, 1, 1, 1, 1, 1, 1, 1, 1, 1, 1, 1, 1, 1, 1, 1, 1, 1, 1, 1, 1, 1, 1, 1, 1, 1, 1, 1, 1, 1, 1, 1, 0]"	"[0, 0, 0, 0, 0, 0, 0, 0, 0, 0, 0, 0, 0, 0, 0, 0, 0, 0, 0, 0, 0, 0, 0, 0, 0, 0, 0, 0, 0, 0, 0, 0, 0]"	"[0, 0, 0, 0, 0, 0, 0, 0, 0, 0, 0, 0, 0, 0, 0, 0, 0, 0, 0, 0, 0, 0, 0, 0, 0, 0, 0, 0, 0, 0, 0, 0, 1]"	"[1.2505075000226498, 1.7670543999411166, 2.008861599955708, 2.225553199648857, 2.4255695999599993, 2.6339274998754263, 2.817220499739051, 3.008786399848759, 3.2171314996667206, 3.3921845997683704, 3.6088354997336864, 3.825781499966979, 4.04237229982391, 4.259031299967319, 4.484079299960285, 4.667411499656737, 4.884116699919105, 5.117416899651289, 5.292429399676621, 5.509144899901003, 5.700835799798369, 5.892521099653095, 6.050880099646747, 6.217468699906021, 6.53404469974339, 8.042656399775296, 8.242633999790996, 8.434298899956048, 8.61767469998449, 8.792525999713689, 9.150920999702066, 9.325935099739581, 10.02615959988907]"	33	"[1.2485818997956812, 1.7651268998160958, 2.006939099635929, 2.2236227998510003, 2.423636599909514, 2.6319939997047186, 2.8152874000370502, 3.0068587996065617, 3.2152004996314645, 3.390253399964422, 3.6069056997075677, 3.823849399574101, 4.04044589959085, 4.257099899929017, 4.482153099961579, 4.665480499621481, 4.882186699658632, 5.1154893999919295, 5.290499299764633, 5.5072176000103354, 5.6989066996611655, 5.890597099903971, 6.048951799981296, 6.215542299672961, 6.5321138999424875, 8.040732800029218, 8.240699599962682, 8.432369799818844, 8.615740399807692, 8.790591899771243, 9.148993199691176, 9.324001899920404, 10.02416959963739]"	"[1.606607699766755, 1.8817340997047722, 2.123414400033653, 2.3483335999771953, 2.523333099670708, 2.7067274996079504, 2.9233880997635424, 3.1067404998466372, 3.30675459979102, 3.506822600029409, 3.7151115997694433, 3.9317677998915315, 4.156810399610549, 4.365180499851704, 4.590202999766916, 4.798562499694526, 5.006995799951255, 5.206935499794781, 5.406891299877316, 5.581884699873626, 5.790298399981111, 5.965375700034201, 6.132007000036538, 6.324986799620092, 6.6319740996696055, 8.15708029968664, 8.36540489969775, 8.565486999694258, 8.740573299583048, 9.073803899809718, 9.2488560997881, 9.432185199577361, 10.024173999670893]"	617.589962999802	617.595353699755	619.087354499847	619.095424000174	NA	NA	NA	NA	NA	NA	NA	"03"	"01"	"2024-01-31_11h11.16.052"	"BART_exp"	"2023.2.3"	119.984209678414	"2024-01-31 11h11.25.790166 +0100"	NA
"balloon.png"	118	0	25	25	27	619.095424000174	NA	NA	NA	NA	NA	NA	NA	NA	NA	NA	NA	NA	619.087541599758	619.095424000174	619.095424000174	619.095424000174	619.095424000174	619.095424000174	0.00552489981055259	0.00552489981055259	0.00552489981055259	619.095424000174	630.481129699852	33	1.65	FALSE	"[-0.09814814814814815, -0.09814814814814815, -0.09814814814814815, -0.09814814814814815, -0.09814814814814815, -0.09814814814814815, -0.09814814814814815, -0.09814814814814815, -0.09814814814814815, -0.09814814814814815, -0.09814814814814815, -0.09814814814814815, -0.09814814814814815, -0.09814814814814815, -0.09814814814814815, -0.09814814814814815, -0.1787037037037037, -0.1787037037037037, -0.1787037037037037, -0.15648148148148147, -0.15648148148148147, -0.15648148148148147, -0.15648148148148147, -0.15648148148148147, -0.15648148148148147, -0.15648148148148147, -0.15648148148148147, -0.15648148148148147, -0.15648148148148147, -0.15648148148148147, -0.15648148148148147, -0.15648148148148147, -0.15648148148148147, -0.15648148148148147, -0.15648148148148147, -0.15648148148148147, -0.15648148148148147]"	"[-0.3972222222222222, -0.3972222222222222, -0.3972222222222222, -0.3972222222222222, -0.3972222222222222, -0.3972222222222222, -0.3972222222222222, -0.3972222222222222, -0.3972222222222222, -0.3972222222222222, -0.3972222222222222, -0.3972222222222222, -0.3972222222222222, -0.3972222222222222, -0.3972222222222222, -0.3972222222222222, -0.3416666666666667, -0.3416666666666667, -0.3416666666666667, -0.3962962962962963, -0.3962962962962963, -0.3962962962962963, -0.3962962962962963, -0.3962962962962963, -0.3962962962962963, -0.3962962962962963, -0.3962962962962963, -0.3962962962962963, -0.3962962962962963, -0.3962962962962963, -0.3962962962962963, -0.3962962962962963, -0.3962962962962963, -0.3962962962962963, -0.3962962962962963, -0.3962962962962963, -0.3962962962962963]"	"[1, 1, 1, 1, 1, 1, 1, 1, 1, 1, 1, 1, 1, 1, 1, 1, 1, 1, 1, 1, 1, 1, 1, 1, 1, 1, 1, 1, 1, 1, 1, 1, 1, 1, 1, 1, 0]"	"[0, 0, 0, 0, 0, 0, 0, 0, 0, 0, 0, 0, 0, 0, 0, 0, 0, 0, 0, 0, 0, 0, 0, 0, 0, 0, 0, 0, 0, 0, 0, 0, 0, 0, 0, 0, 0]"	"[0, 0, 0, 0, 0, 0, 0, 0, 0, 0, 0, 0, 0, 0, 0, 0, 0, 0, 0, 0, 0, 0, 0, 0, 0, 0, 0, 0, 0, 0, 0, 0, 0, 0, 0, 0, 1]"	"[0.6837542001157999, 0.8670051996596158, 1.08367870002985, 1.3087184997275472, 1.5087647996842861, 1.717112499754876, 1.9254427999258041, 2.125442899763584, 2.325456999707967, 2.5254612998105586, 2.7255086000077426, 2.933826199732721, 3.1422296999953687, 3.3423982998356223, 3.550543500110507, 3.975425099954009, 5.142410600092262, 5.4005180997774005, 5.77563549997285, 7.075754399877042, 7.26752629969269, 7.759197399951518, 8.000723499804735, 8.217366399709135, 8.43409000011161, 8.6340447999537, 8.859101200010628, 9.050876500084996, 9.259156200103462, 9.459292999934405, 9.684263899922371, 9.89266650006175, 10.359418099746108, 10.559337699785829, 10.742724599782377, 10.909421700052917, 11.392669099848717]"	34	"[0.681854700203985, 0.8650994999334216, 1.0817805002443492, 1.306814500130713, 1.5068613002076745, 1.7152102999389172, 1.9235386000946164, 2.1235373001545668, 2.3235524999909103, 2.5235585002228618, 2.7236035000532866, 2.931919800117612, 3.1403292999602854, 3.340492700226605, 3.548638599924743, 3.9735171999782324, 7.073850499931723, 7.265619900077581, 7.757292100228369, 7.998826600145549, 8.215460299979895, 8.432185099925846, 8.632137699984014, 8.857202799990773, 9.04897389980033, 9.257249699905515, 9.457390900235623, 9.682361899875104, 9.890761100221425, 10.35751250013709, 10.557436999864876, 10.740826500114053, 10.907522900030017, 11.390701400116086]"	"[0.8149612001143396, 1.0398515998385847, 1.2481829999014735, 1.439866399858147, 1.6482007000595331, 1.831564700230956, 2.0398893002420664, 2.239925100002438, 2.4400027999654412, 2.6566170998848975, 2.8650050000287592, 3.0649668001569808, 3.2649853001348674, 3.4900166001170874, 3.881672100163996, 4.273434900213033, 7.181898599956185, 7.5986705999821424, 7.898621900007129, 8.131971000228077, 8.356993400026113, 8.557038300205022, 8.757031800225377, 8.965353299863636, 9.1820467999205, 9.390390200074762, 9.591821200214326, 9.823748200200498, 10.232114099897444, 10.440669099800289, 10.657195299863815, 10.840486200060695, 11.023823100142181, 11.390705599915236]"	630.482352300081	630.487879199907	631.979868100025	631.987937999889	NA	NA	NA	NA	NA	NA	NA	"03"	"01"	"2024-01-31_11h11.16.052"	"BART_exp"	"2023.2.3"	119.984209678414	"2024-01-31 11h11.25.790166 +0100"	NA
"balloon.png"	53	0	26	26	12	631.987937999889	NA	NA	NA	NA	NA	NA	NA	NA	NA	NA	NA	NA	631.980049300008	631.987937999889	631.987937999889	631.987937999889	631.987937999889	631.987937999889	0.00564710004255175	0.00564710004255175	0.00564710004255175	631.987937999889	638.456610899884	28	1.4	FALSE	"[-0.15648148148148147, -0.15648148148148147, -0.15648148148148147, -0.15648148148148147, -0.15648148148148147, -0.15648148148148147, -0.15648148148148147, -0.15648148148148147, -0.15648148148148147, -0.15648148148148147, -0.15648148148148147, -0.15648148148148147, -0.15648148148148147, -0.15648148148148147, -0.15648148148148147, -0.15648148148148147, -0.15648148148148147, -0.15648148148148147, -0.15648148148148147, -0.15648148148148147, -0.15648148148148147, -0.15648148148148147, -0.15648148148148147, -0.15648148148148147, -0.15648148148148147, -0.15648148148148147, -0.15648148148148147, -0.15648148148148147, -0.15648148148148147]"	"[-0.3962962962962963, -0.3962962962962963, -0.3962962962962963, -0.3962962962962963, -0.3962962962962963, -0.3962962962962963, -0.3962962962962963, -0.3962962962962963, -0.3962962962962963, -0.3962962962962963, -0.3962962962962963, -0.3962962962962963, -0.3962962962962963, -0.3962962962962963, -0.3962962962962963, -0.3962962962962963, -0.3962962962962963, -0.3962962962962963, -0.3962962962962963, -0.3962962962962963, -0.3962962962962963, -0.3962962962962963, -0.3962962962962963, -0.3962962962962963, -0.3962962962962963, -0.3962962962962963, -0.3962962962962963, -0.3962962962962963, -0.3962962962962963]"	"[1, 1, 1, 1, 1, 1, 1, 1, 1, 1, 1, 1, 1, 1, 1, 1, 1, 1, 1, 1, 1, 1, 1, 1, 1, 1, 1, 1, 0]"	"[0, 0, 0, 0, 0, 0, 0, 0, 0, 0, 0, 0, 0, 0, 0, 0, 0, 0, 0, 0, 0, 0, 0, 0, 0, 0, 0, 0, 0]"	"[0, 0, 0, 0, 0, 0, 0, 0, 0, 0, 0, 0, 0, 0, 0, 0, 0, 0, 0, 0, 0, 0, 0, 0, 0, 0, 0, 0, 1]"	"[0.40870389994233847, 0.6753996997140348, 0.8918997999280691, 1.1005314998328686, 1.283606699667871, 1.4836166999302804, 1.6919515999034047, 1.9253423996269703, 2.1170025998726487, 2.3170069996267557, 2.5086932997219265, 2.700372699648142, 2.917044200003147, 3.142052299808711, 3.3170708999969065, 3.5004353998228908, 3.6921035000123084, 3.917237499728799, 4.100458099972457, 4.308862399775535, 4.542271699756384, 4.733817999716848, 4.95896859979257, 5.1840185998007655, 5.37568029994145, 5.6008412996307015, 5.800717999693006, 6.092268500011414, 6.47561559965834]"	29	"[0.4068236001767218, 0.6735213999636471, 0.8900115001015365, 1.0986600001342595, 1.2817223002202809, 1.48173200013116, 1.6900670998729765, 1.923458400182426, 2.115118300076574, 2.3151174001395702, 2.5068051000125706, 2.6984977000392973, 2.9151584999635816, 3.1401662998832762, 3.3151835999451578, 3.4985521999187768, 3.690214400179684, 3.915353999938816, 4.098569800145924, 4.306980600114912, 4.540384800173342, 4.7319376999512315, 4.957084599882364, 5.1821308000944555, 5.373794599901885, 5.598958500195295, 5.798835699912161, 6.0903866002336144, 6.473667300306261]"	"[0.5481994999572635, 0.7731981999240816, 0.9815441998653114, 1.173230200074613, 1.3898952002637088, 1.5982389003038406, 1.7983296001330018, 1.9816041002050042, 2.198315500281751, 2.406651500146836, 2.6150449998676777, 2.8066908000037074, 3.006778399925679, 3.206722800154239, 3.4236003002151847, 3.631915200036019, 3.7986103002913296, 4.048416300211102, 4.231817200314254, 4.431802900042385, 4.656828899867833, 4.865188400261104, 5.056834400165826, 5.290164100006223, 5.515292400028557, 5.723556000273675, 5.931890500243753, 6.198567499872297, 6.473671600222588]"	638.457829299849	638.463377499953	639.955345499795	639.963516199961	NA	NA	NA	NA	NA	NA	NA	"03"	"01"	"2024-01-31_11h11.16.052"	"BART_exp"	"2023.2.3"	119.984209678414	"2024-01-31 11h11.25.790166 +0100"	NA
"balloon.png"	27	0	27	27	6	639.963516199961	NA	NA	NA	NA	NA	NA	NA	NA	NA	NA	NA	NA	639.955521900207	639.963516199961	639.963516199961	639.963516199961	639.963516199961	639.963516199961	0.00574650010094046	0.00574650010094046	0.00574650010094046	639.963516199961	646.041118499823	28	1.35	TRUE	"[-0.15648148148148147, -0.15648148148148147, -0.15648148148148147, -0.15648148148148147, -0.15648148148148147, -0.15648148148148147, -0.15648148148148147, -0.15648148148148147, -0.15648148148148147, -0.15648148148148147, -0.15648148148148147, -0.15648148148148147, -0.15648148148148147, -0.15648148148148147, -0.15648148148148147, -0.15648148148148147, -0.15648148148148147, -0.15648148148148147, -0.15648148148148147, -0.15648148148148147, -0.15648148148148147, -0.15648148148148147, -0.15648148148148147, -0.15648148148148147, -0.15648148148148147, -0.15648148148148147, -0.15648148148148147, -0.15648148148148147]"	"[-0.3962962962962963, -0.3962962962962963, -0.3962962962962963, -0.3962962962962963, -0.3962962962962963, -0.3962962962962963, -0.3962962962962963, -0.3962962962962963, -0.3962962962962963, -0.3962962962962963, -0.3962962962962963, -0.3962962962962963, -0.3962962962962963, -0.3962962962962963, -0.3962962962962963, -0.3962962962962963, -0.3962962962962963, -0.3962962962962963, -0.3962962962962963, -0.3962962962962963, -0.3962962962962963, -0.3962962962962963, -0.3962962962962963, -0.3962962962962963, -0.3962962962962963, -0.3962962962962963, -0.3962962962962963, -0.3962962962962963]"	"[1, 1, 1, 1, 1, 1, 1, 1, 1, 1, 1, 1, 1, 1, 1, 1, 1, 1, 1, 1, 1, 1, 1, 1, 1, 1, 1, 1]"	"[0, 0, 0, 0, 0, 0, 0, 0, 0, 0, 0, 0, 0, 0, 0, 0, 0, 0, 0, 0, 0, 0, 0, 0, 0, 0, 0, 0]"	"[0, 0, 0, 0, 0, 0, 0, 0, 0, 0, 0, 0, 0, 0, 0, 0, 0, 0, 0, 0, 0, 0, 0, 0, 0, 0, 0, 0]"	"[0.4004755998030305, 0.5587535998784006, 0.767032299656421, 0.9838825999759138, 1.1671193996444345, 1.3756367997266352, 1.5839900998398662, 1.7922882996499538, 2.000598299782723, 2.1922311997041106, 2.3922526999376714, 2.6007261998020113, 2.8257009997032583, 3.058974899817258, 3.234059799928218, 3.45898379990831, 3.6672159996815026, 3.883855199906975, 4.108887399546802, 4.3338886997662485, 4.525575799867511, 4.742265499662608, 4.942290199920535, 5.13397749979049, 5.327128799632192, 5.542309699580073, 5.7340376996435225, 5.967319999821484]"	28	"[0.3986324998550117, 0.5569099998101592, 0.7651881999336183, 0.9820447000674903, 1.1652750000357628, 1.3737920997664332, 1.5821463000029325, 1.7904455997049809, 1.9987524999305606, 2.190385399851948, 2.390415799804032, 2.598889300134033, 2.8238642998039722, 3.0571300997398794, 3.232227799948305, 3.457143200095743, 3.665370499715209, 3.8820135998539627, 4.107042899820954, 4.332048099953681, 4.523740000091493, 4.740423100069165, 4.940448499750346, 5.132141300011426, 5.325441499706358, 5.540468899998814, 5.732195499818772, 5.96547929989174]"	"[0.4581511998549104, 0.6649758997373283, 0.8650079998187721, 1.0733521999791265, 1.2900589001365006, 1.4983584000729024, 1.6900563999079168, 1.9067723001353443, 2.098413299769163, 2.298450999893248, 2.5401153001002967, 2.7401380999945104, 2.9317902997136116, 3.1401661997660995, 3.34864280000329, 3.548556999769062, 3.7568634999915957, 3.990246499888599, 4.198559999931604, 4.423591299913824, 4.631920000072569, 4.831963799893856, 5.04052700009197, 5.273673600051552, 5.465393399819732, 5.665357700083405, 5.856996399816126, 6.073676100000739]"	646.042494100053	646.047243199777	647.539214999881	647.547374300193	NA	NA	NA	NA	NA	NA	NA	"03"	"01"	"2024-01-31_11h11.16.052"	"BART_exp"	"2023.2.3"	119.984209678414	"2024-01-31 11h11.25.790166 +0100"	NA
"balloon.png"	14	0	28	28	3	647.547374300193	NA	NA	NA	NA	NA	NA	NA	NA	NA	NA	NA	NA	647.539400700014	647.547374300193	647.547374300193	647.547374300193	647.547374300193	647.547374300193	0.00494570005685091	NA	NA	647.547374300193	651.007828500122	15	0.7	TRUE	"[-0.15648148148148147, -0.15648148148148147, -0.15648148148148147, -0.15648148148148147, -0.15648148148148147, -0.15648148148148147, -0.15648148148148147, -0.15648148148148147, -0.15648148148148147, -0.15648148148148147, -0.15648148148148147, -0.15648148148148147, -0.15648148148148147, -0.15648148148148147, -0.15648148148148147]"	"[-0.3962962962962963, -0.3962962962962963, -0.3962962962962963, -0.3962962962962963, -0.3962962962962963, -0.3962962962962963, -0.3962962962962963, -0.3962962962962963, -0.3962962962962963, -0.3962962962962963, -0.3962962962962963, -0.3962962962962963, -0.3962962962962963, -0.3962962962962963, -0.3962962962962963]"	"[1, 1, 1, 1, 1, 1, 1, 1, 1, 1, 1, 1, 1, 1, 1]"	"[0, 0, 0, 0, 0, 0, 0, 0, 0, 0, 0, 0, 0, 0, 0]"	"[0, 0, 0, 0, 0, 0, 0, 0, 0, 0, 0, 0, 0, 0, 0]"	"[0.29211160028353333, 0.5004281001165509, 0.7085812999866903, 1.008890800178051, 1.2505079000256956, 1.458789300173521, 1.6753334002569318, 1.875423800200224, 2.067173100076616, 2.2754136002622545, 2.467191300354898, 2.6588730001822114, 2.8920742999762297, 3.1267290003597736, 3.3254688000306487]"	15	"[0.2901508999057114, 0.4984673000872135, 0.7066266997717321, 1.006933799944818, 1.24854650022462, 1.4568305001594126, 1.6733737997710705, 1.8734677000902593, 2.065211200155318, 2.2734611998312175, 2.4652261999435723, 2.656916500069201, 2.8901092000305653, 3.124923000112176, 3.323509099893272]"	"[0.41489569982513785, 0.6064642001874745, 0.7815028000622988, 1.1565307998098433, 1.3565588002093136, 1.5399842001497746, 1.74823800008744, 1.9565709000453353, 2.16496009984985, 2.3815671000629663, 2.581612799782306, 2.7732978998683393, 2.998303299769759, 3.214967899955809, 3.4567444999702275]"	651.008781800047	651.014237000141	652.506170200184	652.51436530007	NA	NA	NA	NA	NA	NA	NA	"03"	"01"	"2024-01-31_11h11.16.052"	"BART_exp"	"2023.2.3"	119.984209678414	"2024-01-31 11h11.25.790166 +0100"	NA
"balloon.png"	110	0	29	29	25	652.51436530007	NA	NA	NA	NA	NA	NA	NA	NA	NA	NA	NA	NA	652.506345800124	652.51436530007	652.51436530007	652.51436530007	652.51436530007	652.51436530007	0.00564249977469444	NA	NA	652.51436530007	658.499822299927	26	1.3	FALSE	"[-0.15648148148148147, -0.15648148148148147, -0.15648148148148147, -0.15648148148148147, -0.15648148148148147, -0.15648148148148147, -0.15648148148148147, -0.15648148148148147, -0.15648148148148147, -0.15648148148148147, -0.15648148148148147, -0.15648148148148147, -0.15648148148148147, -0.15648148148148147, -0.15648148148148147, -0.15648148148148147, -0.15648148148148147, -0.15648148148148147, -0.15648148148148147, -0.15648148148148147, -0.15648148148148147, -0.15648148148148147, -0.15648148148148147, -0.15648148148148147, -0.15648148148148147, -0.15648148148148147, -0.15648148148148147]"	"[-0.3962962962962963, -0.3962962962962963, -0.3962962962962963, -0.3962962962962963, -0.3962962962962963, -0.3962962962962963, -0.3962962962962963, -0.3962962962962963, -0.3962962962962963, -0.3962962962962963, -0.39814814814814814, -0.39814814814814814, -0.39814814814814814, -0.39814814814814814, -0.39814814814814814, -0.39814814814814814, -0.39814814814814814, -0.39814814814814814, -0.39814814814814814, -0.39814814814814814, -0.39814814814814814, -0.39814814814814814, -0.39814814814814814, -0.39814814814814814, -0.39814814814814814, -0.39814814814814814, -0.39814814814814814]"	"[1, 1, 1, 1, 1, 1, 1, 1, 1, 1, 1, 1, 1, 1, 1, 1, 1, 1, 1, 1, 1, 1, 1, 1, 1, 1, 0]"	"[0, 0, 0, 0, 0, 0, 0, 0, 0, 0, 0, 0, 0, 0, 0, 0, 0, 0, 0, 0, 0, 0, 0, 0, 0, 0, 0]"	"[0, 0, 0, 0, 0, 0, 0, 0, 0, 0, 0, 0, 0, 0, 0, 0, 0, 0, 0, 0, 0, 0, 0, 0, 0, 0, 1]"	"[0.27549719996750355, 0.4921860001049936, 0.7087558000348508, 0.9254848002456129, 1.0923446998931468, 1.317146200221032, 1.5504785999655724, 1.7338715000078082, 1.9670973001047969, 2.183958100154996, 2.4006503000855446, 2.617335299961269, 2.8339851000346243, 3.050676600076258, 3.267460700124502, 3.4425380998291075, 3.675767899956554, 3.884067100007087, 4.092412400059402, 4.309068900067359, 4.5172748998738825, 4.734002800192684, 4.942321899812669, 5.1508936998434365, 5.367368599865586, 5.550687300041318, 5.992577999830246]"	27	"[0.2735969997011125, 0.49027880001813173, 0.7068477999418974, 0.9235802995972335, 1.0904463999904692, 1.3152391999028623, 1.5485723996534944, 1.7319645998068154, 1.9651955999433994, 2.182058499660343, 2.3987490995787084, 2.61543109966442, 2.832079999614507, 3.0487659997306764, 3.2655503996647894, 3.4406309998594224, 3.6738585997372866, 3.8821596996858716, 4.0905146999284625, 4.307159999851137, 4.5153700998052955, 4.732092299964279, 4.9404131998308, 5.148987299762666, 5.3654612000100315, 5.548780799843371, 5.990609899628907]"	"[0.38997829984873533, 0.5899922996759415, 0.7983710998669267, 1.0066469996236265, 1.2233600998297334, 1.4233796996995807, 1.640048399567604, 1.8650656999088824, 2.073609999846667, 2.26513580000028, 2.4901283998042345, 2.7067791000008583, 2.915116099640727, 3.1318210000172257, 3.3234939998947084, 3.556878499686718, 3.7652467996813357, 3.9735532999038696, 4.190227599814534, 4.415275299921632, 4.615367499645799, 4.823753600008786, 5.04863949958235, 5.256947599817067, 5.456946599762887, 5.690309799741954, 5.990614099893719]"	658.50087099988	658.506452899892	659.998362699989	660.006493200082	NA	NA	NA	NA	NA	NA	NA	"03"	"01"	"2024-01-31_11h11.16.052"	"BART_exp"	"2023.2.3"	119.984209678414	"2024-01-31 11h11.25.790166 +0100"	NA
NA	NA	NA	NA	NA	NA	NA	NA	NA	NA	NA	NA	NA	NA	NA	NA	NA	NA	NA	NA	NA	NA	NA	NA	NA	NA	NA	NA	NA	NA	NA	NA	NA	NA	NA	NA	NA	NA	NA	NA	NA	NA	NA	NA	NA	NA	659.99839730002	660.006493200082	660.006493200082	672.432905499823	"space"	12.4195511997677	"None"	"03"	"01"	"2024-01-31_11h11.16.052"	"BART_exp"	"2023.2.3"	119.984209678414	"2024-01-31 11h11.25.790166 +0100"	NA
