"image"	"max_pumps"	"pump_loop.thisRepN"	"pump_loop.thisTrialN"	"pump_loop.thisN"	"pump_loop.thisIndex"	"thisRow.t"	"notes"	"Start.started"	"text_start.started"	"continue_start.started"	"mouse_start.started"	"Start.stopped"	"mouse_start.x"	"mouse_start.y"	"mouse_start.leftButton"	"mouse_start.midButton"	"mouse_start.rightButton"	"mouse_start.time"	"trials.started"	"stim_balloon.started"	"stim_balloon_burst.started"	"stim_balloon_burst.stopped"	"text_ballon_value.started"	"text_bank.started"	"mouse.started"	"sound_bang.started"	"sound_bang.stopped"	"button_balloon.started"	"trials.stopped"	"n_pumps"	"earnings"	"popped"	"mouse.x"	"mouse.y"	"mouse.leftButton"	"mouse.midButton"	"mouse.rightButton"	"mouse.time"	"button_balloon.numClicks"	"button_balloon.timesOn"	"button_balloon.timesOff"	"Feedback.started"	"text_feedback.started"	"Feedback.stopped"	"text_feedback.stopped"	"End.started"	"text_end.started"	"key_end.started"	"End.stopped"	"key_end.keys"	"key_end.rt"	"key_end.duration"	"participant"	"session"	"date"	"expName"	"psychopyVersion"	"frameRate"	"expStart"	"...61"
NA	NA	NA	NA	NA	NA	NA	NA	0.0368339999986347	0.0427868999977363	0.0427868999977363	0.0371585999964736	815.732873200002	"[0.6833333333333333]"	"[-0.3962962962962963]"	"[1]"	"[0]"	"[0]"	"[815.6951160000026]"	NA	NA	NA	NA	NA	NA	NA	NA	NA	NA	NA	NA	NA	NA	NA	NA	NA	NA	NA	NA	NA	NA	NA	NA	NA	NA	NA	NA	NA	NA	NA	NA	NA	NA	13	"01"	"2024-02-07_13h11.21.202"	"BART_exp"	"2023.2.3"	120.028422730343	"2024-02-07 13h11.33.508764 +0100"	NA
"balloon.png"	40	0	0	0	9	815.798811599991	NA	NA	NA	NA	NA	NA	NA	NA	NA	NA	NA	NA	815.739053799989	815.798811599991	815.798811599991	815.798811599991	815.798811599991	815.798811599991	0.00796889999764971	0.00796889999764971	0.00796889999764971	815.798811599991	826.126175600002	12	0.6	FALSE	"[0.000925925925925926, -0.002777777777777778, -0.002777777777777778, -0.002777777777777778, -0.002777777777777778, -0.002777777777777778, -0.002777777777777778, -0.002777777777777778, -0.002777777777777778, -0.002777777777777778, -0.002777777777777778, -0.002777777777777778, -0.002777777777777778]"	"[-0.3768518518518518, -0.3907407407407407, -0.3907407407407407, -0.3907407407407407, -0.3907407407407407, -0.3907407407407407, -0.3907407407407407, -0.3907407407407407, -0.3907407407407407, -0.3907407407407407, -0.3907407407407407, -0.3907407407407407, -0.3907407407407407]"	"[1, 1, 1, 1, 1, 1, 1, 1, 1, 1, 1, 1, 0]"	"[0, 0, 0, 0, 0, 0, 0, 0, 0, 0, 0, 0, 0]"	"[0, 0, 0, 0, 0, 0, 0, 0, 0, 0, 0, 0, 1]"	"[3.102287099987734, 3.53558919999341, 3.768948499986436, 4.0525827999954345, 4.877508199992008, 5.077516999997897, 5.644251399993664, 6.127459600000293, 6.777613099999144, 8.577734299993608, 9.386106899997685, 10.086035899992567, 10.386189499986358]"	13	"[3.0553367999964394, 3.4886352000030456, 3.7219991000019945, 4.00563179999881, 4.830556300003082, 5.030561999999918, 5.597293800004991, 6.080503100005444, 6.730660400004126, 8.530781800000113, 9.339150300002075, 10.039081599999918, 10.339169600003515]"	"[3.155128099999274, 3.588482200008002, 3.8134970999963116, 4.1135348999960115, 4.930280000000494, 5.105254699999932, 5.705293799997889, 6.172074800007977, 6.838707200004137, 8.663829900004202, 9.455594900005963, 10.164019899995765, 10.339173700005631]"	826.127370699993	826.141149299991	827.632966299992	NA	NA	NA	NA	NA	NA	NA	NA	13	"01"	"2024-02-07_13h11.21.202"	"BART_exp"	"2023.2.3"	120.028422730343	"2024-02-07 13h11.33.508764 +0100"	NA
"balloon.png"	71	0	1	1	16	827.649569300003	NA	NA	NA	NA	NA	NA	NA	NA	NA	NA	NA	NA	827.633144099993	827.649569300003	827.649569300003	827.649569300003	827.649569300003	827.649569300003	0.00702509999973699	0.00702509999973699	0.00702509999973699	827.649569300003	834.901763599992	8	0.4	FALSE	"[-0.002777777777777778, -0.002777777777777778, -0.002777777777777778, -0.002777777777777778, -0.002777777777777778, -0.002777777777777778, -0.002777777777777778, -0.002777777777777778, -0.002777777777777778]"	"[-0.3907407407407407, -0.3907407407407407, -0.3907407407407407, -0.3907407407407407, -0.3907407407407407, -0.3907407407407407, -0.3907407407407407, -0.3907407407407407, -0.3907407407407407]"	"[1, 1, 1, 1, 1, 1, 1, 1, 0]"	"[0, 0, 0, 0, 0, 0, 0, 0, 0]"	"[0, 0, 0, 0, 0, 0, 0, 0, 1]"	"[0.7589821000001393, 1.5256994999945164, 2.633944299988798, 3.21738099999493, 3.4925694999983534, 4.025723300001118, 4.850888599990867, 6.250978299998678, 7.267713499997626]"	9	"[0.7560126999887871, 1.52272899998934, 2.6309730999928433, 3.2144102999882307, 3.4896032999968156, 4.022752299992135, 4.847916200000327, 6.248012399999425, 7.264685099988128]"	"[0.8474254999891855, 1.630745599992224, 2.7475091999949655, 3.3141835999995237, 3.6225799999956507, 4.11433229999966, 4.91429309999512, 6.35606029999326, 7.2646893999917665]"	834.902577000001	834.908408699994	836.400394900003	836.416866799991	NA	NA	NA	NA	NA	NA	NA	13	"01"	"2024-02-07_13h11.21.202"	"BART_exp"	"2023.2.3"	120.028422730343	"2024-02-07 13h11.33.508764 +0100"	NA
"balloon.png"	75	0	2	2	17	836.416866799991	NA	NA	NA	NA	NA	NA	NA	NA	NA	NA	NA	NA	836.400576400003	836.416866799991	836.416866799991	836.416866799991	836.416866799991	836.416866799991	-0.00074499999755062	-0.00074499999755062	-0.00074499999755062	836.416866799991	846.310902800004	10	0.5	FALSE	"[-0.002777777777777778, -0.002777777777777778, -0.002777777777777778, -0.002777777777777778, -0.002777777777777778, -0.002777777777777778, -0.002777777777777778, -0.002777777777777778, -0.002777777777777778, -0.002777777777777778, -0.002777777777777778]"	"[-0.3907407407407407, -0.3907407407407407, -0.3907407407407407, -0.3907407407407407, -0.3907407407407407, -0.3907407407407407, -0.3907407407407407, -0.3907407407407407, -0.3907407407407407, -0.3907407407407407, -0.3907407407407407]"	"[1, 1, 1, 1, 1, 1, 1, 1, 1, 1, 0]"	"[0, 0, 0, 0, 0, 0, 0, 0, 0, 0, 0]"	"[0, 0, 0, 0, 0, 0, 0, 0, 0, 0, 1]"	"[0.6419731000059983, 1.5838807999971323, 1.992113000000245, 2.3339049000060186, 3.2504734999965876, 3.7507103999960236, 4.559054400000605, 5.1592059999966295, 5.7425196999975014, 7.884273699994083, 9.909411200002069]"	11	"[0.6360400000121444, 1.5779486000101315, 1.9861811000009766, 2.327965700009372, 3.24453340000764, 3.744777600004454, 4.553118700001505, 5.153267700006836, 5.736585100006778, 7.878347200006829, 9.9034132000088]"	"[0.7860263000038685, 1.6942826000013156, 2.069331600010628, 2.4360058000020217, 3.3611062000127276, 3.8529157000011764, 4.661169400002109, 5.261174300001585, 5.844565100007458, 8.028057100003934, 9.903417400011676]"	846.311710499998	846.317525699997	847.809534100001	847.825958100002	NA	NA	NA	NA	NA	NA	NA	13	"01"	"2024-02-07_13h11.21.202"	"BART_exp"	"2023.2.3"	120.028422730343	"2024-02-07 13h11.33.508764 +0100"	NA
"balloon.png"	10	0	3	3	2	847.825958100002	NA	NA	NA	NA	NA	NA	NA	NA	NA	NA	NA	NA	847.809722099992	847.825958100002	847.825958100002	847.825958100002	847.825958100002	847.825958100002	-0.00061149999964982	-0.00061149999964982	-0.00061149999964982	847.825958100002	853.661604499997	11	0.5	TRUE	"[-0.04814814814814815, -0.04814814814814815, -0.04814814814814815, -0.04814814814814815, -0.04814814814814815, -0.04814814814814815, -0.04814814814814815, -0.04814814814814815, -0.04814814814814815, -0.04814814814814815, -0.04814814814814815]"	"[-0.38981481481481484, -0.38981481481481484, -0.38981481481481484, -0.38981481481481484, -0.38981481481481484, -0.38981481481481484, -0.38981481481481484, -0.38981481481481484, -0.38981481481481484, -0.38981481481481484, -0.38981481481481484]"	"[1, 1, 1, 1, 1, 1, 1, 1, 1, 1, 1]"	"[0, 0, 0, 0, 0, 0, 0, 0, 0, 0, 0]"	"[0, 0, 0, 0, 0, 0, 0, 0, 0, 0, 0]"	"[1.2252846000046702, 1.625296400001389, 1.908814499998698, 2.250596600002609, 2.6420409999991534, 2.983738800001447, 3.5089431000087643, 3.8589551000040956, 4.475649400003022, 5.3922744000010425, 5.73409410000022]"	11	"[1.2190340999950422, 1.6190414000011515, 1.9025530999933835, 2.2443522999965353, 2.635781599994516, 2.977484299990465, 3.5026868999993894, 3.8526932999957353, 4.469396399988909, 5.386016899996321, 5.727836499994737]"	"[1.3272219999926165, 1.7105887999932747, 2.0107615999877453, 2.385652500001015, 2.7773064999928465, 3.09405169999809, 3.6190592999919318, 3.97738379999646, 4.5857817999931285, 5.477536199992755, 5.835853699987638]"	853.662383699993	853.676405899998	855.168193799997	NA	NA	NA	NA	NA	NA	NA	NA	13	"01"	"2024-02-07_13h11.21.202"	"BART_exp"	"2023.2.3"	120.028422730343	"2024-02-07 13h11.33.508764 +0100"	NA
"balloon.png"	101	0	4	4	23	855.184807500002	NA	NA	NA	NA	NA	NA	NA	NA	NA	NA	NA	NA	855.168392699998	855.184807500002	855.184807500002	855.184807500002	855.184807500002	855.184807500002	0.0073119000007864	0.0073119000007864	0.0073119000007864	855.184807500002	861.111909400002	6	0.3	FALSE	"[-0.07592592592592592, -0.08148148148148149, -0.08148148148148149, -0.08148148148148149, -0.07962962962962963, -0.07962962962962963, -0.07962962962962963]"	"[-0.37777777777777777, -0.36574074074074076, -0.36574074074074076, -0.36574074074074076, -0.37037037037037035, -0.375, -0.375]"	"[1, 1, 1, 1, 1, 1, 0]"	"[0, 0, 0, 0, 0, 0, 0]"	"[0, 0, 0, 0, 0, 0, 1]"	"[0.7090698999963934, 1.2754834000079427, 1.4839037000056123, 2.0255554000032134, 2.967453799996292, 5.117622499994468, 5.9426106000028085]"	7	"[0.7009560000005877, 1.2673620999994455, 1.467542999991565, 2.017437799993786, 2.959340000001248, 5.109515399992233, 5.93442689999938]"	"[0.8005112999962876, 1.3588726000016322, 1.5672258999984479, 2.083991099993, 3.0590080999972997, 5.2258377999969525, 5.934431000001496]"	861.112592299993	861.118538900002	862.610542299997	862.626975399995	NA	NA	NA	NA	NA	NA	NA	13	"01"	"2024-02-07_13h11.21.202"	"BART_exp"	"2023.2.3"	120.028422730343	"2024-02-07 13h11.33.508764 +0100"	NA
"balloon.png"	18	0	5	5	4	862.626975399995	NA	NA	NA	NA	NA	NA	NA	NA	NA	NA	NA	NA	862.6107204	862.626975399995	862.626975399995	862.626975399995	862.626975399995	862.626975399995	-0.00060459999076556	-0.00060459999076556	-0.00060459999076556	862.626975399995	874.121131399996	8	0.4	FALSE	"[-0.06388888888888888, -0.06388888888888888, -0.06388888888888888, -0.06388888888888888, -0.06388888888888888, -0.06388888888888888, -0.06388888888888888, -0.06388888888888888, -0.06388888888888888]"	"[-0.3814814814814815, -0.3814814814814815, -0.3814814814814815, -0.3814814814814815, -0.3814814814814815, -0.3814814814814815, -0.3814814814814815, -0.3814814814814815, -0.3814814814814815]"	"[1, 1, 1, 1, 1, 1, 1, 1, 0]"	"[0, 0, 0, 0, 0, 0, 0, 0, 0]"	"[0, 0, 0, 0, 0, 0, 0, 0, 1]"	"[1.1586654000129784, 3.075646000012057, 4.033821800010628, 4.409018800011836, 6.717511500013643, 7.600740900001256, 9.617786800008616, 10.767619300007937, 11.509496900005615]"	9	"[1.1529109999974025, 3.0698886000027414, 4.028058500000043, 4.403256899997359, 6.711753700001282, 7.5949906000023475, 9.612029500000062, 10.76186100000632, 11.503670899997815]"	"[1.2611204999993788, 3.2111947999947006, 4.136254500001087, 4.502941500002635, 6.836475599993719, 7.7031595000007655, 9.728372099998523, 10.886726800003089, 11.503675200001453]"	874.121851000004	874.127777000002	875.619785699993	875.636201999994	NA	NA	NA	NA	NA	NA	NA	13	"01"	"2024-02-07_13h11.21.202"	"BART_exp"	"2023.2.3"	120.028422730343	"2024-02-07 13h11.33.508764 +0100"	NA
"balloon.png"	53	0	6	6	12	875.636201999994	NA	NA	NA	NA	NA	NA	NA	NA	NA	NA	NA	NA	875.619970300002	875.636201999994	875.636201999994	875.636201999994	875.636201999994	875.636201999994	-0.00057830000878311	-0.00057830000878311	-0.00057830000878311	875.636201999994	885.396796999994	10	0.5	FALSE	"[-0.06574074074074074, -0.06574074074074074, -0.06574074074074074, -0.06574074074074074, -0.06574074074074074, -0.06574074074074074, -0.06574074074074074, -0.06574074074074074, -0.06574074074074074, -0.06574074074074074, -0.06574074074074074]"	"[-0.40370370370370373, -0.40370370370370373, -0.40370370370370373, -0.40370370370370373, -0.40370370370370373, -0.40370370370370373, -0.40370370370370373, -0.40370370370370373, -0.40370370370370373, -0.40370370370370373, -0.40370370370370373]"	"[1, 1, 1, 1, 1, 1, 1, 1, 1, 1, 0]"	"[0, 0, 0, 0, 0, 0, 0, 0, 0, 0, 0]"	"[0, 0, 0, 0, 0, 0, 0, 0, 0, 0, 1]"	"[0.9087501000030898, 1.2837941000034334, 1.5837458000023616, 1.8755264000064926, 2.442177000004449, 2.8089318000129424, 4.234044900003937, 4.8007784000074025, 7.059167000013986, 8.675951299999724, 9.775876600004267]"	11	"[0.9020859000011114, 1.277127900000778, 1.5770846999948844, 1.8688584999908926, 2.4355136999947717, 2.8022649999911664, 4.227378099996713, 4.79411170000094, 7.05250089999754, 8.669283199997153, 9.769149100000504]"	"[0.9851065999973798, 1.3769017000013264, 1.6851781000004848, 1.9768520999932662, 2.5352367000014056, 2.91861519998929, 4.368709000002127, 4.902193100002478, 7.177242599995225, 8.768951999998535, 9.76915329998883]"	885.397573499999	885.403539699997	886.89556769999	886.920312000002	NA	NA	NA	NA	NA	NA	NA	13	"01"	"2024-02-07_13h11.21.202"	"BART_exp"	"2023.2.3"	120.028422730343	"2024-02-07 13h11.33.508764 +0100"	NA
"balloon.png"	105	0	7	7	24	886.920312000002	NA	NA	NA	NA	NA	NA	NA	NA	NA	NA	NA	NA	886.895753599994	886.920312000002	886.920312000002	886.920312000002	886.920312000002	886.920312000002	-0.00043509999522939	-0.00043509999522939	-0.00043509999522939	886.920312000002	896.522533700001	10	0.5	FALSE	"[-0.025, -0.025, -0.025, -0.025, -0.025, -0.025, -0.025, -0.025, -0.025, -0.025, -0.025]"	"[-0.3814814814814815, -0.3814814814814815, -0.3814814814814815, -0.3814814814814815, -0.3814814814814815, -0.3814814814814815, -0.3814814814814815, -0.3814814814814815, -0.3814814814814815, -0.3814814814814815, -0.3814814814814815]"	"[1, 1, 1, 1, 1, 1, 1, 1, 1, 1, 0]"	"[0, 0, 0, 0, 0, 0, 0, 0, 0, 0, 0]"	"[0, 0, 0, 0, 0, 0, 0, 0, 0, 0, 1]"	"[0.5004738999996334, 0.9503955999971367, 1.2920433999970555, 1.5505662000068696, 1.825351400009822, 2.142182600000524, 3.533908600002178, 4.55066860000079, 6.367444000003161, 7.284123000004911, 9.625830300006783]"	11	"[0.48995219999051187, 0.9398619999992661, 1.2815009000041755, 1.5400311999983387, 1.8148109000030672, 2.1316426999983378, 3.5233712999906857, 4.540133899994544, 6.356909299996914, 7.273584199996549, 9.615233000004082]"	"[0.6311844000010751, 1.0645607999904314, 1.3978995999932522, 1.6729692999942927, 1.9479912999959197, 2.264623199997004, 3.598054599991883, 4.6648565999930725, 6.498363899998367, 7.3817957999999635, 9.615237499994691]"	896.52336159999	896.529301100003	898.021258299996	898.037736400001	NA	NA	NA	NA	NA	NA	NA	13	"01"	"2024-02-07_13h11.21.202"	"BART_exp"	"2023.2.3"	120.028422730343	"2024-02-07 13h11.33.508764 +0100"	NA
"balloon.png"	66	0	8	8	15	898.037736400001	NA	NA	NA	NA	NA	NA	NA	NA	NA	NA	NA	NA	898.021433599992	898.037736400001	898.037736400001	898.037736400001	898.037736400001	898.037736400001	-0.00066050000896211	-0.00066050000896211	-0.00066050000896211	898.037736400001	912.073572099995	14	0.7	FALSE	"[-0.025, -0.025, -0.025, -0.025, -0.025, -0.025, -0.025, -0.025, -0.025, -0.025, -0.025, -0.025, -0.025, -0.025, -0.025]"	"[-0.3814814814814815, -0.3814814814814815, -0.3814814814814815, -0.3814814814814815, -0.3814814814814815, -0.3814814814814815, -0.3814814814814815, -0.3814814814814815, -0.3814814814814815, -0.3814814814814815, -0.3814814814814815, -0.3814814814814815, -0.3814814814814815, -0.3814814814814815, -0.3814814814814815]"	"[1, 1, 1, 1, 1, 1, 1, 1, 1, 1, 1, 1, 1, 1, 0]"	"[0, 0, 0, 0, 0, 0, 0, 0, 0, 0, 0, 0, 0, 0, 0]"	"[0, 0, 0, 0, 0, 0, 0, 0, 0, 0, 0, 0, 0, 0, 1]"	"[1.358836399987922, 2.7004699999961304, 2.925472799994168, 3.3673341999965487, 3.917212699991069, 4.42598139999609, 6.984301099990262, 7.550994699995499, 8.07583029998932, 8.834399999992456, 9.700998299987987, 10.217882299999474, 11.734484299988253, 13.051188400000683, 14.05123129999265]"	15	"[1.3536361000005854, 2.695270600001095, 2.920274399992195, 3.3621317999932216, 3.912015399997472, 4.420780000000377, 6.979100700002164, 7.545794199992088, 8.070625899999868, 8.829203200002667, 9.695802599992021, 10.21268319999217, 11.729289099996095, 13.045988199999556, 14.045967600002768]"	"[1.4700187999987975, 2.8034625000000233, 3.020208999994793, 3.478485699990415, 4.028522199994768, 4.537090400001034, 7.087067200001911, 7.637135900004068, 8.162157600003411, 8.945547900002566, 9.81252150000364, 10.320692399996915, 11.862413599999854, 13.170818600003258, 14.045971799991094]"	912.074552399994	912.080364699999	913.572350000002	913.597134099997	NA	NA	NA	NA	NA	NA	NA	13	"01"	"2024-02-07_13h11.21.202"	"BART_exp"	"2023.2.3"	120.028422730343	"2024-02-07 13h11.33.508764 +0100"	NA
"balloon.png"	62	0	9	9	14	913.597134099997	NA	NA	NA	NA	NA	NA	NA	NA	NA	NA	NA	NA	913.572527800003	913.597134099997	913.597134099997	913.597134099997	913.597134099997	913.597134099997	-0.00074750000203493	-0.00074750000203493	-0.00074750000203493	913.597134099997	926.124540599994	14	0.7	FALSE	"[-0.025, -0.025, -0.025, -0.025, -0.025, -0.025, -0.025, -0.025, -0.025, -0.025, -0.025, -0.025, -0.025, -0.025, -0.025]"	"[-0.3814814814814815, -0.3814814814814815, -0.3814814814814815, -0.3814814814814815, -0.3814814814814815, -0.3814814814814815, -0.3814814814814815, -0.3814814814814815, -0.3814814814814815, -0.3814814814814815, -0.3814814814814815, -0.3814814814814815, -0.3814814814814815, -0.3814814814814815, -0.3814814814814815]"	"[1, 1, 1, 1, 1, 1, 1, 1, 1, 1, 1, 1, 1, 1, 0]"	"[0, 0, 0, 0, 0, 0, 0, 0, 0, 0, 0, 0, 0, 0, 0]"	"[0, 0, 0, 0, 0, 0, 0, 0, 0, 0, 0, 0, 0, 0, 1]"	"[0.7503458999999566, 1.3839104999933625, 1.8838816999923438, 2.367123399992124, 3.1337945999985095, 3.6756840999878477, 4.775696699987748, 5.3339440999989165, 5.87581319999299, 6.467519400001038, 7.209241099990322, 7.842656799999531, 10.001126399991335, 10.77612819999922, 12.55109779999475]"	15	"[0.7364897000079509, 1.3700540000136243, 1.8700287000101525, 2.35326580000401, 3.11993360001361, 3.6618221000098856, 4.761841000014101, 5.320086800013087, 5.861957800007076, 6.453660300001502, 7.195380300006946, 7.828799300012179, 9.987271800011513, 10.762276800000109, 12.53717680000409]"	"[0.8612936999998055, 1.4946650000056252, 1.986409300006926, 2.4781092000048375, 3.2614396999997552, 3.78657120000571, 4.903278600002523, 5.461682100009057, 5.978309500002069, 6.528392700012773, 7.345073600008618, 7.995159500002046, 10.128605500009144, 10.870344500013744, 12.537181100007729]"	926.1253363	926.131357199993	927.62328629999	927.639765699991	NA	NA	NA	NA	NA	NA	NA	13	"01"	"2024-02-07_13h11.21.202"	"BART_exp"	"2023.2.3"	120.028422730343	"2024-02-07 13h11.33.508764 +0100"	NA
"balloon.png"	14	0	10	10	3	927.639765699991	NA	NA	NA	NA	NA	NA	NA	NA	NA	NA	NA	NA	927.623465199998	927.639765699991	927.639765699991	927.639765699991	927.639765699991	927.639765699991	-0.00060299999313429	-0.00060299999313429	-0.00060299999313429	927.639765699991	939.750665400003	12	0.6	FALSE	"[-0.026851851851851852, -0.026851851851851852, -0.026851851851851852, -0.026851851851851852, -0.026851851851851852, -0.026851851851851852, -0.026851851851851852, -0.026851851851851852, -0.026851851851851852, -0.026851851851851852, -0.026851851851851852, -0.026851851851851852, -0.026851851851851852]"	"[-0.37407407407407406, -0.37407407407407406, -0.37407407407407406, -0.37407407407407406, -0.37407407407407406, -0.37407407407407406, -0.37407407407407406, -0.37407407407407406, -0.37407407407407406, -0.37407407407407406, -0.37407407407407406, -0.37407407407407406, -0.37407407407407406]"	"[1, 1, 1, 1, 1, 1, 1, 1, 1, 1, 1, 1, 0]"	"[0, 0, 0, 0, 0, 0, 0, 0, 0, 0, 0, 0, 0]"	"[0, 0, 0, 0, 0, 0, 0, 0, 0, 0, 0, 0, 1]"	"[0.60055229999125, 1.500376600000891, 1.967238899989752, 2.6589210999954958, 3.159004699991783, 3.6006945999979507, 3.8922707999881823, 4.125708899999154, 5.834034100000281, 6.0924412999884225, 8.017517000000225, 11.110169799998403, 12.126287299994146]"	13	"[0.5975598999939393, 1.497384799993597, 1.9642468999954872, 2.6559274999890476, 3.1560146999981953, 3.597697299992433, 3.8892732999956934, 4.12271189999592, 5.8310356000001775, 6.089442099997541, 8.014518099997076, 11.107342699993751, 12.123239799999283]"	"[0.7388667999912286, 1.655609800000093, 2.0889655999926617, 2.788998399992124, 3.280813199991826, 3.705757799994899, 4.005770099989604, 4.2474507999868365, 5.93088619998889, 6.172601199999917, 8.147732400000677, 11.231243099988205, 12.123243899986846]"	939.7514581	939.757271900002	941.249266999992	941.265726199999	NA	NA	NA	NA	NA	NA	NA	13	"01"	"2024-02-07_13h11.21.202"	"BART_exp"	"2023.2.3"	120.028422730343	"2024-02-07 13h11.33.508764 +0100"	NA
"balloon.png"	118	0	11	11	27	941.265726199999	NA	NA	NA	NA	NA	NA	NA	NA	NA	NA	NA	NA	941.249444599991	941.265726199999	941.265726199999	941.265726199999	941.265726199999	941.265726199999	-0.00072850000287871	-0.00072850000287871	-0.00072850000287871	941.265726199999	954.659838799998	16	0.8	FALSE	"[-0.05925925925925926, -0.05925925925925926, -0.05925925925925926, -0.05925925925925926, -0.05925925925925926, -0.05925925925925926, -0.05925925925925926, -0.05925925925925926, -0.05925925925925926, -0.05925925925925926, -0.05925925925925926, -0.05925925925925926, -0.05925925925925926, -0.05925925925925926, -0.05925925925925926, -0.05925925925925926, -0.05925925925925926]"	"[-0.37592592592592594, -0.37592592592592594, -0.37592592592592594, -0.37592592592592594, -0.37592592592592594, -0.37592592592592594, -0.37592592592592594, -0.37592592592592594, -0.37592592592592594, -0.37592592592592594, -0.37592592592592594, -0.37592592592592594, -0.37592592592592594, -0.37592592592592594, -0.37592592592592594, -0.37592592592592594, -0.37592592592592594]"	"[1, 1, 1, 1, 1, 1, 1, 1, 1, 1, 1, 1, 1, 1, 1, 1, 0]"	"[0, 0, 0, 0, 0, 0, 0, 0, 0, 0, 0, 0, 0, 0, 0, 0, 0]"	"[0, 0, 0, 0, 0, 0, 0, 0, 0, 0, 0, 0, 0, 0, 0, 0, 1]"	"[1.725517500002752, 1.9261893999937456, 2.1672423999989405, 2.6839410999964457, 2.9172792000026675, 3.52565159999358, 4.425546800004668, 5.125794499996118, 5.975621000005049, 6.97577380000439, 8.817480400000932, 9.10099249999621, 10.451147100000526, 11.067860299997847, 11.709508700005244, 12.47623489999387, 13.40947280000546]"	17	"[1.7184459999989485, 1.9194103999907384, 2.160180799997761, 2.6768694999918807, 2.9102175000007264, 3.5185866999963764, 4.418473099998664, 5.118725799999083, 5.968545099996845, 6.968704799990519, 8.81041359998926, 9.093924300002982, 10.444080899993423, 11.060792599993874, 11.702442499998142, 12.469163499990827, 13.40233779999835]"	"[1.8514581999916118, 2.0431375999905868, 2.268162599997595, 2.8015153000014834, 3.0265472999890335, 3.6432987000007415, 4.7184611999982735, 5.251685900002485, 6.085067199994228, 7.076842900001793, 8.926945500003058, 9.218621299994993, 10.577046199992765, 11.210431699990295, 11.83546469999419, 12.61884049999935, 13.402342100001988]"	954.660692599995	954.666622599994	956.158570999993	956.175057100001	NA	NA	NA	NA	NA	NA	NA	13	"01"	"2024-02-07_13h11.21.202"	"BART_exp"	"2023.2.3"	120.028422730343	"2024-02-07 13h11.33.508764 +0100"	NA
"balloon.png"	84	0	12	12	19	956.175057100001	NA	NA	NA	NA	NA	NA	NA	NA	NA	NA	NA	NA	956.158748699992	956.175057100001	956.175057100001	956.175057100001	956.175057100001	956.175057100001	-0.00065269999322481	-0.00065269999322481	-0.00065269999322481	956.175057100001	971.177642399998	20	1	FALSE	"[-0.05555555555555555, -0.05555555555555555, -0.05555555555555555, -0.05555555555555555, -0.05555555555555555, -0.05555555555555555, -0.05555555555555555, -0.05555555555555555, -0.05555555555555555, -0.05555555555555555, -0.05555555555555555, -0.05555555555555555, -0.05555555555555555, -0.05555555555555555, -0.05555555555555555, -0.05555555555555555, -0.05555555555555555, -0.05555555555555555, -0.05555555555555555, -0.05555555555555555, -0.05555555555555555]"	"[-0.39537037037037037, -0.39537037037037037, -0.39537037037037037, -0.39537037037037037, -0.39537037037037037, -0.39537037037037037, -0.39537037037037037, -0.39537037037037037, -0.39537037037037037, -0.39537037037037037, -0.39537037037037037, -0.39537037037037037, -0.39537037037037037, -0.39537037037037037, -0.39537037037037037, -0.39537037037037037, -0.39537037037037037, -0.39537037037037037, -0.39537037037037037, -0.39537037037037037, -0.39537037037037037]"	"[1, 1, 1, 1, 1, 1, 1, 1, 1, 1, 1, 1, 1, 1, 1, 1, 1, 1, 1, 1, 0]"	"[0, 0, 0, 0, 0, 0, 0, 0, 0, 0, 0, 0, 0, 0, 0, 0, 0, 0, 0, 0, 0]"	"[0, 0, 0, 0, 0, 0, 0, 0, 0, 0, 0, 0, 0, 0, 0, 0, 0, 0, 0, 0, 1]"	"[0.9422534000041196, 1.2754122000042116, 1.542415300005814, 1.8670720999944024, 2.100459299996146, 2.5922881000005873, 2.8588741999992635, 3.5339923999999883, 4.375759599992307, 5.909049800000503, 6.985719399992377, 7.25080120000348, 8.176178299996536, 8.551032699993812, 8.842587699997239, 9.100896499992814, 9.54278780000459, 10.209468700006255, 13.217882600001758, 14.017990799999097, 15.017963199992664]"	21	"[0.9348347000050126, 1.2679887999984203, 1.5349818999966374, 1.8596369000006234, 2.093028300005244, 2.584856600005878, 2.8514450000075158, 3.526561699996819, 4.368328700002166, 5.901624599995557, 6.978446900000563, 7.243369400006486, 8.16874999999709, 8.543604200007394, 8.835154400003375, 9.093464300007327, 9.535359200002858, 10.20204580000427, 13.210453200008487, 14.01055720000295, 15.010470699999132]"	"[1.0677548000094248, 1.4011303000006592, 1.6928134000045247, 1.959495600007358, 2.20127560000401, 2.7012281000061193, 3.0095811000064714, 3.6346111000020755, 4.501380900008371, 6.001444399997126, 7.109840200006147, 7.3598975000059, 8.310007899999619, 8.651644900004612, 8.93508510000538, 9.2016522000049, 9.63504950000788, 10.311524700009613, 13.318599899997935, 14.118639699998312, 15.010474800001248]"	971.17857959999	971.184422599996	972.676468699996	972.6929007	NA	NA	NA	NA	NA	NA	NA	13	"01"	"2024-02-07_13h11.21.202"	"BART_exp"	"2023.2.3"	120.028422730343	"2024-02-07 13h11.33.508764 +0100"	NA
"balloon.png"	97	0	13	13	22	972.6929007	NA	NA	NA	NA	NA	NA	NA	NA	NA	NA	NA	NA	972.676659499994	972.6929007	972.6929007	972.6929007	972.6929007	972.6929007	-0.00054459999955724	-0.00054459999955724	-0.00054459999955724	972.6929007	990.805512399995	24	1.2	FALSE	"[-0.006481481481481481, -0.006481481481481481, -0.006481481481481481, -0.006481481481481481, -0.006481481481481481, -0.006481481481481481, -0.006481481481481481, -0.005555555555555556, -0.005555555555555556, -0.005555555555555556, -0.005555555555555556, -0.004629629629629629, -0.004629629629629629, -0.004629629629629629, -0.004629629629629629, -0.004629629629629629, -0.004629629629629629, -0.004629629629629629, -0.004629629629629629, -0.004629629629629629, -0.004629629629629629, -0.004629629629629629, -0.004629629629629629, -0.004629629629629629, -0.004629629629629629]"	"[-0.4083333333333333, -0.4083333333333333, -0.4083333333333333, -0.4083333333333333, -0.4083333333333333, -0.4083333333333333, -0.4083333333333333, -0.4083333333333333, -0.4083333333333333, -0.4083333333333333, -0.4083333333333333, -0.4083333333333333, -0.4083333333333333, -0.4083333333333333, -0.4083333333333333, -0.4083333333333333, -0.4083333333333333, -0.4083333333333333, -0.4083333333333333, -0.4083333333333333, -0.4083333333333333, -0.4083333333333333, -0.4083333333333333, -0.4083333333333333, -0.4083333333333333]"	"[1, 1, 1, 1, 1, 1, 1, 1, 1, 1, 1, 1, 1, 1, 1, 1, 1, 1, 1, 1, 1, 1, 1, 1, 0]"	"[0, 0, 0, 0, 0, 0, 0, 0, 0, 0, 0, 0, 0, 0, 0, 0, 0, 0, 0, 0, 0, 0, 0, 0, 0]"	"[0, 0, 0, 0, 0, 0, 0, 0, 0, 0, 0, 0, 0, 0, 0, 0, 0, 0, 0, 0, 0, 0, 0, 0, 1]"	"[1.383756999988691, 1.6921092999982648, 2.025458099989919, 2.4922153999941656, 2.783816700000898, 3.584097399987513, 4.267266999988351, 4.9255427999887615, 5.625737999987905, 5.942241199998534, 6.2091256999992765, 6.759036099989316, 6.933995299987146, 7.559102899991558, 7.7673708999936935, 8.209212399990065, 8.609306799990009, 9.759153299994068, 10.74255070000072, 11.309301199988113, 12.659523999987869, 14.04299549999996, 14.759727999989991, 16.568157599991537, 18.12773870000092]"	25	"[1.3741684999986319, 1.6825129000062589, 2.0158630999940215, 2.4826224999997066, 2.7742319999961182, 3.5745119000057457, 4.257675700006075, 4.91595700000471, 5.616147399996407, 5.9326521000039065, 6.199539499997627, 6.7494451999955345, 6.924399700001231, 7.549512600002345, 7.757780200001434, 8.199618800004828, 8.599717499993858, 9.749562299999525, 10.73295920000237, 11.299709800005076, 12.64993030000187, 14.033400700005586, 14.750138599993079, 16.558569400003762, 18.118188499996904]"	"[1.515597899997374, 1.7905439000023762, 2.1324352999945404, 2.590594199995394, 2.890622299993993, 3.7406737999990582, 4.41570430000138, 5.049106499995105, 5.757550599999377, 6.024152800004231, 6.32417940000596, 6.832732499999111, 7.0159354000061285, 7.640948500004015, 7.865950299994438, 8.33265389999724, 8.724402899999404, 9.899531699993531, 10.86616309999954, 11.441318199998932, 12.791291100002127, 14.166496999998344, 14.874804899998708, 16.683239799996954, 18.118195899995044]"	990.806481699998	990.819111799996	992.31090289999	NA	NA	NA	NA	NA	NA	NA	NA	13	"01"	"2024-02-07_13h11.21.202"	"BART_exp"	"2023.2.3"	120.028422730343	"2024-02-07 13h11.33.508764 +0100"	NA
"balloon.png"	5	0	14	14	1	992.327538999991	NA	NA	NA	NA	NA	NA	NA	NA	NA	NA	NA	NA	992.311071999997	992.327538999991	992.327538999991	992.327538999991	992.327538999991	992.327538999991	0.00584840000374242	0.00584840000374242	0.00584840000374242	992.327538999991	994.412986199997	6	0.25	TRUE	"[-0.003703703703703704, -0.003703703703703704, -0.003703703703703704, -0.003703703703703704, -0.003703703703703704, -0.003703703703703704]"	"[-0.387037037037037, -0.387037037037037, -0.387037037037037, -0.387037037037037, -0.387037037037037, -0.387037037037037]"	"[1, 1, 1, 1, 1, 1]"	"[0, 0, 0, 0, 0, 0]"	"[0, 0, 0, 0, 0, 0]"	"[0.5092970000114292, 0.8839145000092685, 1.1923937000101432, 1.4755627999984426, 1.7590740000014193, 2.0092083000054117]"	6	"[0.5041997999942396, 0.8788023999950383, 1.1872849999926984, 1.4704562999977497, 1.7539636000001337, 2.004095900003449]"	"[0.6452352999913273, 1.0119304999971064, 1.303665599989472, 1.5703068000002531, 1.8703431999892928, 2.0870055999985198]"	994.413675599993	994.419344499998	995.911370200003	995.927786100001	NA	NA	NA	NA	NA	NA	NA	13	"01"	"2024-02-07_13h11.21.202"	"BART_exp"	"2023.2.3"	120.028422730343	"2024-02-07 13h11.33.508764 +0100"	NA
"balloon.png"	31	0	15	15	7	995.927786100001	NA	NA	NA	NA	NA	NA	NA	NA	NA	NA	NA	NA	995.911553700003	995.927786100001	995.927786100001	995.927786100001	995.927786100001	995.927786100001	-0.00081379999755881	-0.00081379999755881	-0.00081379999755881	995.927786100001	1011.5972238	15	0.75	FALSE	"[-0.014814814814814815, -0.014814814814814815, -0.014814814814814815, -0.014814814814814815, -0.013888888888888888, -0.013888888888888888, -0.013888888888888888, -0.013888888888888888, -0.013888888888888888, -0.013888888888888888, -0.013888888888888888, -0.013888888888888888, -0.013888888888888888, -0.013888888888888888, -0.013888888888888888, -0.013888888888888888]"	"[-0.38796296296296295, -0.38796296296296295, -0.38796296296296295, -0.38796296296296295, -0.38796296296296295, -0.38796296296296295, -0.38796296296296295, -0.38796296296296295, -0.38796296296296295, -0.38796296296296295, -0.38796296296296295, -0.38796296296296295, -0.38796296296296295, -0.38796296296296295, -0.38796296296296295, -0.38796296296296295]"	"[1, 1, 1, 1, 1, 1, 1, 1, 1, 1, 1, 1, 1, 1, 1, 0]"	"[0, 0, 0, 0, 0, 0, 0, 0, 0, 0, 0, 0, 0, 0, 0, 0]"	"[0, 0, 0, 0, 0, 0, 0, 0, 0, 0, 0, 0, 0, 0, 0, 1]"	"[0.483557399988058, 0.9587662999983877, 1.5003993999998784, 1.933817299999646, 2.725521000000299, 4.809025700000348, 6.092409499993664, 6.6590234999894165, 7.192523599995184, 8.059105399996042, 9.10094140000001, 10.50107919999573, 13.017787299992051, 13.709679399995366, 14.909704299992882, 15.68474409999908]"	16	"[0.4786256999941543, 0.953831299993908, 1.4954645999969216, 1.9288830000004964, 2.7205838999943808, 4.804091999991215, 6.087479399997392, 6.654086299997289, 7.187591800000519, 8.05418279999867, 9.096003599988762, 10.496144799995818, 13.012857399997301, 13.704747600000701, 14.904766299994662, 15.679749299990362]"	"[0.5701497999980347, 1.0618525999889243, 1.59520799999882, 2.0466764999873703, 2.836999899998773, 4.970512799991411, 6.237197800001013, 6.7789136999926995, 7.287248900000122, 8.170697599998675, 9.212536999999429, 10.62916419999965, 13.13768159999745, 13.812727099997574, 15.021136099996511, 15.679753399992478]"	1011.59809819999	1011.60386029999	1013.095854	1013.11233259999	NA	NA	NA	NA	NA	NA	NA	13	"01"	"2024-02-07_13h11.21.202"	"BART_exp"	"2023.2.3"	120.028422730343	"2024-02-07 13h11.33.508764 +0100"	NA
"balloon.png"	79	0	16	16	18	1013.11233259999	NA	NA	NA	NA	NA	NA	NA	NA	NA	NA	NA	NA	1013.09603289999	1013.11233259999	1013.11233259999	1013.11233259999	1013.11233259999	1013.11233259999	-0.00079940000432543	-0.00079940000432543	-0.00079940000432543	1013.11233259999	1030.24850249999	21	1.05	FALSE	"[-0.013888888888888888, 0.023148148148148147, 0.023148148148148147, 0.023148148148148147, 0.023148148148148147, 0.023148148148148147, 0.023148148148148147, 0.023148148148148147, 0.023148148148148147, 0.023148148148148147, 0.023148148148148147, 0.023148148148148147, 0.023148148148148147, 0.023148148148148147, 0.023148148148148147, 0.023148148148148147, 0.023148148148148147, 0.023148148148148147, 0.023148148148148147, 0.023148148148148147, 0.023148148148148147, 0.023148148148148147]"	"[-0.38796296296296295, -0.39351851851851855, -0.39351851851851855, -0.39351851851851855, -0.39351851851851855, -0.39351851851851855, -0.39351851851851855, -0.39351851851851855, -0.39351851851851855, -0.39351851851851855, -0.39351851851851855, -0.39351851851851855, -0.39351851851851855, -0.39351851851851855, -0.39351851851851855, -0.39351851851851855, -0.39351851851851855, -0.39351851851851855, -0.39351851851851855, -0.39351851851851855, -0.39351851851851855, -0.39351851851851855]"	"[1, 1, 1, 1, 1, 1, 1, 1, 1, 1, 1, 1, 1, 1, 1, 1, 1, 1, 1, 1, 1, 0]"	"[0, 0, 0, 0, 0, 0, 0, 0, 0, 0, 0, 0, 0, 0, 0, 0, 0, 0, 0, 0, 0, 0]"	"[0, 0, 0, 0, 0, 0, 0, 0, 0, 0, 0, 0, 0, 0, 0, 0, 0, 0, 0, 0, 0, 1]"	"[0.6837161000003107, 2.2837512999976752, 2.5839392000052612, 3.1506358000042383, 3.392367499996908, 3.7006453000067268, 3.9840150000090944, 4.342405300005339, 5.000744600009057, 5.5090887999976985, 6.334212100002333, 7.1924810000055, 7.7843292000034126, 8.667508500002441, 10.042657900004997, 10.684340699997847, 11.551263600005768, 12.817839399998775, 13.784583600005135, 15.009625499995309, 16.026358300005086, 17.151560099999188]"	22	"[0.673498499993002, 2.2735320999927353, 2.57372210000176, 3.1404176999931224, 3.382148899996537, 3.690429900001618, 3.9737937999889255, 4.332188899992616, 4.9905251000018325, 5.49886969999352, 6.323991600002046, 7.1822628999943845, 7.774110099999234, 8.657289399998263, 10.032437799993204, 10.674124099998153, 11.541049999999814, 12.807623899992905, 13.77436339999258, 14.999405299997306, 16.016141999993124, 17.141282199998386]"	"[0.8316167000011774, 2.3733628999907523, 2.6900688000023365, 3.2234382999886293, 3.4901525999885052, 3.7651702000002842, 4.081872399998247, 4.4485205999953905, 5.081921099990723, 5.61526339998818, 6.448658900000737, 7.290388699999312, 7.907095699993079, 8.782151899999008, 10.140582399995765, 10.773957199999131, 11.649018199997954, 12.91578519999166, 13.890860499988776, 15.107590799991158, 16.13268949999474, 17.14128609999898]"	1030.24946199999	1030.2551447	1031.7471482	1031.7636123	NA	NA	NA	NA	NA	NA	NA	13	"01"	"2024-02-07_13h11.21.202"	"BART_exp"	"2023.2.3"	120.028422730343	"2024-02-07 13h11.33.508764 +0100"	NA
"balloon.png"	92	0	17	17	21	1031.7636123	NA	NA	NA	NA	NA	NA	NA	NA	NA	NA	NA	NA	1031.7473375	1031.7636123	1031.7636123	1031.7636123	1031.7636123	1031.7636123	-0.00074370000220369	-0.00074370000220369	-0.00074370000220369	1031.7636123	1038.3657785	6	0.3	FALSE	"[0.02962962962962963, 0.02962962962962963, 0.02962962962962963, 0.02962962962962963, 0.04351851851851852, 0.04351851851851852, 0.04351851851851852]"	"[-0.4009259259259259, -0.4009259259259259, -0.4009259259259259, -0.4009259259259259, -0.3851851851851852, -0.3851851851851852, -0.3851851851851852]"	"[1, 1, 1, 1, 1, 1, 0]"	"[0, 0, 0, 0, 0, 0, 0]"	"[0, 0, 0, 0, 0, 0, 1]"	"[1.2003272000001743, 1.8838599000009708, 2.2921790999971563, 2.6672359999938635, 4.392169999991893, 5.742275600001449, 6.617492799996398]"	7	"[1.1912879000010435, 1.8748242000001483, 2.2831371999927796, 2.6582037000043783, 4.383133099996485, 5.733239799999865, 6.608396499999799]"	"[1.3577520999970147, 1.982823800004553, 2.374501099999179, 2.7662286999984644, 4.483134800000698, 5.808233499992639, 6.608400600001914]"	1038.36647709999	1038.3723699	1039.86431249999	1039.8891668	NA	NA	NA	NA	NA	NA	NA	13	"01"	"2024-02-07_13h11.21.202"	"BART_exp"	"2023.2.3"	120.028422730343	"2024-02-07 13h11.33.508764 +0100"	NA
"balloon.png"	1	0	18	18	0	1039.8891668	NA	NA	NA	NA	NA	NA	NA	NA	NA	NA	NA	NA	1039.864483	1039.8891668	1039.8891668	1039.8891668	1039.8891668	1039.8891668	-0.00074180000228807	-0.00074180000228807	-0.00074180000228807	1039.8891668	1040.7411744	2	0.05	TRUE	"[0.06759259259259259, 0.06759259259259259]"	"[-0.387037037037037, -0.387037037037037]"	"[1, 1]"	"[0, 0]"	"[0, 0]"	"[0.39219410000077914, 0.7922123999887845]"	2	"[0.38061589999415446, 0.7806385000003502]"	"[0.48028059999342076, 0.8553301999927498]"	1040.7417611	1040.7475656	1042.2394779	1042.25595779999	NA	NA	NA	NA	NA	NA	NA	13	"01"	"2024-02-07_13h11.21.202"	"BART_exp"	"2023.2.3"	120.028422730343	"2024-02-07 13h11.33.508764 +0100"	NA
"balloon.png"	23	0	19	19	5	1042.25595779999	NA	NA	NA	NA	NA	NA	NA	NA	NA	NA	NA	NA	1042.23965029999	1042.25595779999	1042.25595779999	1042.25595779999	1042.25595779999	1042.25595779999	-0.00078620000567752	-0.00078620000567752	-0.00078620000567752	1042.25595779999	1052.4083498	14	0.7	FALSE	"[0.06759259259259259, 0.06759259259259259, 0.06759259259259259, 0.06759259259259259, 0.06759259259259259, 0.06759259259259259, 0.06759259259259259, 0.06759259259259259, 0.06759259259259259, 0.06759259259259259, 0.06759259259259259, 0.06759259259259259, 0.06759259259259259, 0.06759259259259259, 0.06759259259259259]"	"[-0.38796296296296295, -0.38796296296296295, -0.38796296296296295, -0.38796296296296295, -0.38796296296296295, -0.38796296296296295, -0.38796296296296295, -0.38796296296296295, -0.38796296296296295, -0.38796296296296295, -0.38796296296296295, -0.38981481481481484, -0.38981481481481484, -0.38981481481481484, -0.38981481481481484]"	"[1, 1, 1, 1, 1, 1, 1, 1, 1, 1, 1, 1, 1, 1, 0]"	"[0, 0, 0, 0, 0, 0, 0, 0, 0, 0, 0, 0, 0, 0, 0]"	"[0, 0, 0, 0, 0, 0, 0, 0, 0, 0, 0, 0, 0, 0, 1]"	"[0.8836901000031503, 1.7004243000119459, 2.5422871000046143, 3.0006577000021935, 3.3259059000120033, 3.842253000009805, 4.334110100011458, 5.1426300000021, 5.525903900008416, 6.175874400010798, 7.459222800011048, 8.117791299999226, 8.634233900011168, 9.192739700010861, 10.167788999999175]"	15	"[0.8772872999979882, 1.694013799991808, 2.5358741999953054, 2.994250599993393, 3.319503299993812, 3.8358454999979585, 4.327708699987852, 5.136223099994822, 5.519504899988533, 6.169466699997429, 7.452817199999117, 8.11138829999254, 8.627826899988577, 9.186328499999945, 10.16132079999079]"	"[1.0105115999904228, 1.793858499993803, 2.652349999989383, 3.085645899991505, 3.4441260999883525, 3.952332499990007, 4.444164499989711, 5.252423799989629, 5.627539799999795, 6.260853899992071, 7.602579899990815, 8.260985399989295, 8.72766099999717, 9.269357299999683, 10.161324999993667]"	1052.40918589999	1052.41499249999	1053.9069858	1053.9234291	NA	NA	NA	NA	NA	NA	NA	13	"01"	"2024-02-07_13h11.21.202"	"BART_exp"	"2023.2.3"	120.028422730343	"2024-02-07 13h11.33.508764 +0100"	NA
"balloon.png"	57	0	20	20	13	1053.9234291	NA	NA	NA	NA	NA	NA	NA	NA	NA	NA	NA	NA	1053.9071708	1053.9234291	1053.9234291	1053.9234291	1053.9234291	1053.9234291	-0.00056330001098103	-0.00056330001098103	-0.00056330001098103	1053.9234291	1068.6011667	20	1	FALSE	"[0.0787037037037037, 0.0787037037037037, 0.0787037037037037, 0.0787037037037037, 0.0787037037037037, 0.0787037037037037, 0.0787037037037037, 0.0787037037037037, 0.0787037037037037, 0.0787037037037037, 0.0787037037037037, 0.0787037037037037, 0.0787037037037037, 0.0787037037037037, 0.0787037037037037, 0.0787037037037037, 0.0787037037037037, 0.0787037037037037, 0.0787037037037037, 0.0787037037037037, 0.0787037037037037]"	"[-0.387037037037037, -0.387037037037037, -0.387037037037037, -0.387037037037037, -0.387037037037037, -0.387037037037037, -0.387037037037037, -0.387037037037037, -0.387037037037037, -0.387037037037037, -0.387037037037037, -0.387037037037037, -0.387037037037037, -0.387037037037037, -0.387037037037037, -0.387037037037037, -0.387037037037037, -0.387037037037037, -0.387037037037037, -0.387037037037037, -0.387037037037037]"	"[1, 1, 1, 1, 1, 1, 1, 1, 1, 1, 1, 1, 1, 1, 1, 1, 1, 1, 1, 1, 0]"	"[0, 0, 0, 0, 0, 0, 0, 0, 0, 0, 0, 0, 0, 0, 0, 0, 0, 0, 0, 0, 0]"	"[0, 0, 0, 0, 0, 0, 0, 0, 0, 0, 0, 0, 0, 0, 0, 0, 0, 0, 0, 0, 1]"	"[0.8671819000010146, 1.1836238000105368, 1.6435616000089794, 2.500597400008701, 2.858912199997576, 3.1671735999989323, 3.4589921000006143, 3.7338114000012865, 4.600575700009358, 5.5422993000102, 6.725818100007018, 7.875925300002564, 8.73415489999752, 10.034404899997753, 11.167651099996874, 11.892846500006272, 12.326221700001042, 12.826265499999863, 13.292982200000552, 14.076346300003934, 14.693055900002946]"	21	"[0.8578252000006614, 1.174258999992162, 1.6343621999985771, 2.4912326999910874, 2.8495507999905385, 3.157811600001878, 3.4496320999896852, 3.724447100001271, 4.591215499996906, 5.532940399993095, 6.716455799993128, 7.866564700001618, 8.724793100001989, 10.025042799999937, 11.15828249999322, 11.883478599993396, 12.316859599988675, 12.81689849999384, 13.283617299995967, 14.066983099997742, 14.683628999991925]"	"[0.9407651999936206, 1.2824566999915987, 1.7741996999975527, 2.6077980999980355, 2.9826288999902317, 3.274263699990115, 3.557604599991464, 3.799289399990812, 4.691080099990359, 5.666353499997058, 6.832850399994641, 8.007909299994935, 8.858003199988161, 10.141391799988924, 11.258133600000292, 11.991657699996722, 12.426344199993764, 12.933337499998743, 13.391618499998003, 14.166683099989314, 14.68363309999404]"	1068.60209429999	1068.60781479999	1070.0997375	1070.11620639999	NA	NA	NA	NA	NA	NA	NA	13	"01"	"2024-02-07_13h11.21.202"	"BART_exp"	"2023.2.3"	120.028422730343	"2024-02-07 13h11.33.508764 +0100"	NA
"balloon.png"	27	0	21	21	6	1070.11620639999	NA	NA	NA	NA	NA	NA	NA	NA	NA	NA	NA	NA	1070.0999127	1070.11620639999	1070.11620639999	1070.11620639999	1070.11620639999	1070.11620639999	-0.00089830000069923	-0.00089830000069923	-0.00089830000069923	1070.11620639999	1089.1361897	28	1.35	TRUE	"[0.0787037037037037, 0.0787037037037037, 0.0787037037037037, 0.0787037037037037, 0.0787037037037037, 0.0787037037037037, 0.0787037037037037, 0.0787037037037037, 0.0787037037037037, 0.0787037037037037, 0.0787037037037037, 0.0787037037037037, 0.0787037037037037, 0.0787037037037037, 0.0787037037037037, 0.0787037037037037, 0.0787037037037037, 0.0787037037037037, 0.0787037037037037, 0.0787037037037037, 0.0787037037037037, 0.0787037037037037, 0.0787037037037037, 0.0787037037037037, 0.0787037037037037, 0.0787037037037037, 0.0787037037037037, 0.0787037037037037]"	"[-0.387037037037037, -0.387037037037037, -0.387037037037037, -0.387037037037037, -0.387037037037037, -0.387037037037037, -0.387037037037037, -0.387037037037037, -0.387037037037037, -0.387037037037037, -0.387037037037037, -0.387037037037037, -0.387037037037037, -0.387037037037037, -0.387037037037037, -0.387037037037037, -0.387037037037037, -0.387037037037037, -0.387037037037037, -0.387037037037037, -0.387037037037037, -0.387037037037037, -0.387037037037037, -0.387037037037037, -0.387037037037037, -0.387037037037037, -0.387037037037037, -0.387037037037037]"	"[1, 1, 1, 1, 1, 1, 1, 1, 1, 1, 1, 1, 1, 1, 1, 1, 1, 1, 1, 1, 1, 1, 1, 1, 1, 1, 1, 1]"	"[0, 0, 0, 0, 0, 0, 0, 0, 0, 0, 0, 0, 0, 0, 0, 0, 0, 0, 0, 0, 0, 0, 0, 0, 0, 0, 0, 0]"	"[0, 0, 0, 0, 0, 0, 0, 0, 0, 0, 0, 0, 0, 0, 0, 0, 0, 0, 0, 0, 0, 0, 0, 0, 0, 0, 0, 0]"	"[0.5836476999975275, 1.4755238999932772, 1.7587255999969784, 2.29225199999928, 2.550479400000768, 2.8589651999936905, 3.1088381000008667, 3.800657300002058, 4.13386950000131, 4.450735399994301, 4.975644200007082, 5.567345799994655, 6.700967900003889, 7.350784499998554, 8.859415500002797, 9.85947589999705, 10.642896599994856, 11.067846699996153, 11.842969899997115, 12.359452300006524, 13.043000799996662, 14.218076799996197, 15.011216600003536, 15.718034100005752, 17.35151059999771, 17.843329199997243, 18.534866799993324, 18.901562900005956]"	28	"[0.5772728999872925, 1.469151099998271, 1.7523598999978276, 2.285877899994375, 2.544099799997639, 2.8525881999958074, 3.1024656999943545, 3.7942818000010448, 4.127494899992598, 4.444362899987027, 4.969271499998285, 5.560978699999396, 6.694598699992639, 7.34440899999754, 8.853038099987316, 9.853108399998746, 10.636520399988513, 11.061475499998778, 11.836590999999316, 12.353075999999419, 13.036626000000979, 14.21170169999823, 15.004995700001018, 15.711656200001016, 17.345151599991368, 17.836957599996822, 18.528486299997894, 18.89518289999978]"	"[0.6937686999881407, 1.5855713999917498, 1.8855236999952467, 2.3855903999938164, 2.6357256999908714, 2.9606051000009757, 3.2023749999934807, 3.919278299988946, 4.227352399990195, 4.5607176999910735, 5.06075599999167, 5.694180899998173, 6.785994799996843, 7.452593699999852, 8.969363099997281, 9.952784599998267, 10.744702899988624, 11.152841499992064, 11.961280999996234, 12.46126299999014, 13.16130969999358, 14.336425699992105, 15.103139399987413, 15.82816799999273, 17.494990499995765, 17.92004409999936, 18.64509229999385, 19.020077399996808]"	1089.1373498	1089.1425125	1090.6344828	1090.6426148	NA	NA	NA	NA	NA	NA	NA	13	"01"	"2024-02-07_13h11.21.202"	"BART_exp"	"2023.2.3"	120.028422730343	"2024-02-07 13h11.33.508764 +0100"	NA
"balloon.png"	123	0	22	22	28	1090.6426148	NA	NA	NA	NA	NA	NA	NA	NA	NA	NA	NA	NA	1090.6346621	1090.6426148	1090.6426148	1090.6426148	1090.6426148	1090.6426148	0.00532399999792687	NA	NA	1090.6426148	1100.6031675	20	1	FALSE	"[0.06944444444444445, 0.06944444444444445, 0.06944444444444445, 0.06944444444444445, 0.06944444444444445, 0.06944444444444445, 0.06944444444444445, 0.06944444444444445, 0.06944444444444445, 0.06944444444444445, 0.06944444444444445, 0.06944444444444445, 0.07037037037037037, 0.07037037037037037, 0.07037037037037037, 0.07037037037037037, 0.07037037037037037, 0.07037037037037037, 0.07037037037037037, 0.07037037037037037, 0.07037037037037037]"	"[-0.4009259259259259, -0.4009259259259259, -0.4009259259259259, -0.4009259259259259, -0.4009259259259259, -0.4009259259259259, -0.4009259259259259, -0.4009259259259259, -0.4009259259259259, -0.4009259259259259, -0.4009259259259259, -0.4009259259259259, -0.4009259259259259, -0.4009259259259259, -0.4009259259259259, -0.4009259259259259, -0.4009259259259259, -0.4009259259259259, -0.4009259259259259, -0.4009259259259259, -0.4009259259259259]"	"[1, 1, 1, 1, 1, 1, 1, 1, 1, 1, 1, 1, 1, 1, 1, 1, 1, 1, 1, 1, 0]"	"[0, 0, 0, 0, 0, 0, 0, 0, 0, 0, 0, 0, 0, 0, 0, 0, 0, 0, 0, 0, 0]"	"[0, 0, 0, 0, 0, 0, 0, 0, 0, 0, 0, 0, 0, 0, 0, 0, 0, 0, 0, 0, 1]"	"[0.8671973000018625, 1.1005257000069832, 1.542230399994878, 1.792073699994944, 2.0256149000051664, 2.2922528000053717, 2.5421518000075594, 2.850616900002933, 3.2423113999975612, 3.609083500006818, 4.067365299997618, 4.684082799998578, 5.367342199999257, 5.825798999998369, 6.600730499994825, 7.0509257999947295, 7.509320299999672, 7.9758551999984775, 8.51764479999838, 9.426090199995087, 9.967602100005024]"	21	"[0.8652699999947799, 1.098593400005484, 1.540303200003109, 1.7901433999941219, 2.023751300002914, 2.290327700000489, 2.540219300004537, 2.8486862999998266, 3.2403759000007994, 3.60715720000735, 4.065433399999165, 4.6821476000041, 5.365413299994543, 5.823866499995347, 6.59882959999959, 7.048991100004059, 7.507387999998173, 7.973925099999178, 8.51571540000441, 9.424165500007803, 9.965612500003772]"	"[0.9316297000041232, 1.181667800003197, 1.6566670000029262, 1.8984875000023749, 2.1316642000019783, 2.4067117999948096, 2.6483860000007553, 2.9734249000030104, 3.356802299997071, 3.715111800003797, 4.173530400003074, 4.798539700001129, 5.4985570999997435, 5.915460699994583, 6.698794600000838, 7.165339200000744, 7.615390100007062, 8.09060060000047, 8.640451200000825, 9.532215400002315, 9.965616600005887]"	1100.6041311	1100.60996409999	1102.10192669999	1102.11840019999	NA	NA	NA	NA	NA	NA	NA	13	"01"	"2024-02-07_13h11.21.202"	"BART_exp"	"2023.2.3"	120.028422730343	"2024-02-07 13h11.33.508764 +0100"	NA
"balloon.png"	88	0	23	23	20	1102.11840019999	NA	NA	NA	NA	NA	NA	NA	NA	NA	NA	NA	NA	1102.1020994	1102.11840019999	1102.11840019999	1102.11840019999	1102.11840019999	1102.11840019999	-0.00075790000846609	-0.00075790000846609	-0.00075790000846609	1102.11840019999	1111.7291403	14	0.7	FALSE	"[0.06666666666666667, 0.06666666666666667, 0.06666666666666667, 0.06666666666666667, 0.06666666666666667, 0.06666666666666667, 0.06666666666666667, 0.06666666666666667, 0.06666666666666667, 0.06666666666666667, 0.06666666666666667, 0.06666666666666667, 0.06666666666666667, 0.06666666666666667, 0.06666666666666667]"	"[-0.3851851851851852, -0.3851851851851852, -0.3851851851851852, -0.3851851851851852, -0.3851851851851852, -0.3851851851851852, -0.3851851851851852, -0.3851851851851852, -0.3851851851851852, -0.3851851851851852, -0.3851851851851852, -0.3851851851851852, -0.3851851851851852, -0.3851851851851852, -0.3851851851851852]"	"[1, 1, 1, 1, 1, 1, 1, 1, 1, 1, 1, 1, 1, 1, 0]"	"[0, 0, 0, 0, 0, 0, 0, 0, 0, 0, 0, 0, 0, 0, 0]"	"[0, 0, 0, 0, 0, 0, 0, 0, 0, 0, 0, 0, 0, 0, 1]"	"[0.4586705000110669, 0.8338139000115916, 1.5506521000061184, 2.042240500013577, 2.3590141000022413, 2.7004701000114437, 3.08394200001203, 3.5840400000015507, 3.8672024000115925, 4.392399500007741, 5.042423900013091, 5.584193600006984, 7.575950300000841, 8.877235000007204, 9.626104200011468]"	15	"[0.4543402999988757, 0.8294905000075232, 1.5463206999993417, 2.03791500000807, 2.354684600009932, 2.6961373000085587, 3.0796174999995856, 3.5797211000026437, 3.8628721999994013, 4.388070500004687, 5.038091399997938, 5.579869100009091, 7.571626800010563, 8.873068600005354, 9.62171040000976]"	"[0.5792879000073299, 0.9708535999961896, 1.6625912000017706, 2.1709749000001466, 2.46264080000401, 2.8043225000001257, 3.19604550000804, 3.696070600009989, 3.9543971000093734, 4.496153600004618, 5.154469900007825, 5.696189299997059, 7.713006300007692, 8.996427600010065, 9.621714399996563]"	1111.7300575	1111.7358157	1113.22772109999	1113.2441669	NA	NA	NA	NA	NA	NA	NA	13	"01"	"2024-02-07_13h11.21.202"	"BART_exp"	"2023.2.3"	120.028422730343	"2024-02-07 13h11.33.508764 +0100"	NA
"balloon.png"	110	0	24	24	25	1113.2441669	NA	NA	NA	NA	NA	NA	NA	NA	NA	NA	NA	NA	1113.22789519999	1113.2441669	1113.2441669	1113.2441669	1113.2441669	1113.2441669	-0.00089369999477639	-0.00089369999477639	-0.00089369999477639	1113.2441669	1130.3219483	20	1	FALSE	"[0.06666666666666667, 0.06666666666666667, 0.06666666666666667, 0.06666666666666667, 0.06666666666666667, 0.06666666666666667, 0.06666666666666667, 0.06666666666666667, 0.06666666666666667, 0.06666666666666667, 0.06666666666666667, 0.06666666666666667, 0.06666666666666667, 0.06666666666666667, 0.06666666666666667, 0.06666666666666667, 0.06666666666666667, 0.06666666666666667, 0.06666666666666667, 0.06666666666666667, 0.06666666666666667]"	"[-0.3787037037037037, -0.3787037037037037, -0.3787037037037037, -0.3787037037037037, -0.3787037037037037, -0.3787037037037037, -0.3787037037037037, -0.3787037037037037, -0.3787037037037037, -0.3787037037037037, -0.3787037037037037, -0.3787037037037037, -0.3787037037037037, -0.3787037037037037, -0.3787037037037037, -0.3787037037037037, -0.3787037037037037, -0.3787037037037037, -0.3787037037037037, -0.3787037037037037, -0.3787037037037037]"	"[1, 1, 1, 1, 1, 1, 1, 1, 1, 1, 1, 1, 1, 1, 1, 1, 1, 1, 1, 1, 0]"	"[0, 0, 0, 0, 0, 0, 0, 0, 0, 0, 0, 0, 0, 0, 0, 0, 0, 0, 0, 0, 0]"	"[0, 0, 0, 0, 0, 0, 0, 0, 0, 0, 0, 0, 0, 0, 0, 0, 0, 0, 0, 0, 1]"	"[0.7170325000042794, 1.0003923000040231, 1.492177599997376, 2.533795800001826, 3.00897100000293, 3.8339983000041684, 4.18405630000052, 4.809108900008141, 5.842489400005434, 6.259200600004988, 7.184200800009421, 8.367524100001901, 10.110610800009454, 10.501001199998427, 12.584668299998157, 13.25129490000836, 14.134552400006214, 14.609753400000045, 15.567996099998709, 16.726411600000574, 17.093141200006357]"	21	"[0.7084102999942843, 0.9917685999971582, 1.4835555000026943, 2.525185099992086, 3.000350400005118, 3.825381300004665, 4.175437400001101, 4.80049140000483, 5.8338683000038145, 6.25057819999347, 7.175576499997987, 8.358909300004598, 10.102144299991778, 10.492381999996724, 12.576046000001952, 13.242675300003611, 14.125933399991482, 14.601132800002233, 15.559374899996328, 16.717791000002762, 17.084456399999908]"	"[0.816527999995742, 1.1082145999971544, 1.583255100005772, 2.659816999992472, 3.125041899998905, 3.966757200003485, 4.291818700003205, 4.9334806999977445, 5.966895799996564, 6.358758200003649, 7.300388699994073, 8.467084000003524, 10.225544999993872, 10.583857799996622, 12.692343300004723, 13.334070500000962, 14.225771400000667, 14.700812600000063, 15.650949699993362, 16.80928159999894, 17.084460500002024]"	1130.3229859	1130.32869519999	1131.82071649999	1131.8371357	NA	NA	NA	NA	NA	NA	NA	13	"01"	"2024-02-07_13h11.21.202"	"BART_exp"	"2023.2.3"	120.028422730343	"2024-02-07 13h11.33.508764 +0100"	NA
"balloon.png"	36	0	25	25	8	1131.8371357	NA	NA	NA	NA	NA	NA	NA	NA	NA	NA	NA	NA	1131.8209123	1131.8371357	1131.8371357	1131.8371357	1131.8371357	1131.8371357	-0.00069889999576844	-0.00069889999576844	-0.00069889999576844	1131.8371357	1142.7727661	14	0.7	FALSE	"[0.07592592592592592, 0.07685185185185185, 0.07685185185185185, 0.07685185185185185, 0.07685185185185185, 0.07685185185185185, 0.07685185185185185, 0.07685185185185185, 0.07685185185185185, 0.07685185185185185, 0.07685185185185185, 0.07685185185185185, 0.07685185185185185, 0.07685185185185185, 0.07685185185185185]"	"[-0.387037037037037, -0.387037037037037, -0.38796296296296295, -0.38796296296296295, -0.38796296296296295, -0.38796296296296295, -0.38796296296296295, -0.38796296296296295, -0.38796296296296295, -0.38796296296296295, -0.38796296296296295, -0.38796296296296295, -0.38796296296296295, -0.38796296296296295, -0.38796296296296295]"	"[1, 1, 1, 1, 1, 1, 1, 1, 1, 1, 1, 1, 1, 1, 0]"	"[0, 0, 0, 0, 0, 0, 0, 0, 0, 0, 0, 0, 0, 0, 0]"	"[0, 0, 0, 0, 0, 0, 0, 0, 0, 0, 0, 0, 0, 0, 1]"	"[0.6420486999995774, 0.9586027000041213, 1.3252569000032963, 2.117011399997864, 2.950902700002189, 3.925452299998142, 4.550595799999428, 4.942196700008935, 5.6756466000078944, 6.234265700011747, 8.034255500009749, 8.500853400008054, 9.967742200009525, 10.376064299998689, 10.950927500001853]"	15	"[0.6369700000068406, 0.9535203999985242, 1.3201795000059064, 2.1119291000068188, 2.9458422000025166, 3.9203794000059133, 4.545516600002884, 4.937117900000885, 5.670570000002044, 6.229201100009959, 8.029172000009567, 8.495772700000089, 9.962657299998682, 10.370987900008913, 10.945785000003525]"	"[0.7617025000072317, 1.0450291000015568, 1.395061600007466, 2.203423800005112, 3.063695999997435, 4.04525619999913, 4.645272399997339, 5.02875280000444, 5.770361100003356, 6.32049920001009, 8.145541999998386, 8.612188900006004, 10.078935600002296, 10.470639599996503, 10.945789400007925]"	1142.77373839999	1142.7795284	1144.27151789999	1144.2879868	NA	NA	NA	NA	NA	NA	NA	13	"01"	"2024-02-07_13h11.21.202"	"BART_exp"	"2023.2.3"	120.028422730343	"2024-02-07 13h11.33.508764 +0100"	NA
"balloon.png"	44	0	26	26	10	1144.2879868	NA	NA	NA	NA	NA	NA	NA	NA	NA	NA	NA	NA	1144.2716946	1144.2879868	1144.2879868	1144.2879868	1144.2879868	1144.2879868	-0.00073100000736303	-0.00073100000736303	-0.00073100000736303	1144.2879868	1151.31500059999	12	0.6	FALSE	"[0.0787037037037037, 0.0787037037037037, 0.0787037037037037, 0.0787037037037037, 0.0787037037037037, 0.0787037037037037, 0.0787037037037037, 0.0787037037037037, 0.0787037037037037, 0.0787037037037037, 0.0787037037037037, 0.0787037037037037, 0.07777777777777778]"	"[-0.37037037037037035, -0.37037037037037035, -0.37037037037037035, -0.37037037037037035, -0.37037037037037035, -0.37037037037037035, -0.37037037037037035, -0.37037037037037035, -0.37037037037037035, -0.37037037037037035, -0.37037037037037035, -0.37037037037037035, -0.37222222222222223]"	"[1, 1, 1, 1, 1, 1, 1, 1, 1, 1, 1, 1, 0]"	"[0, 0, 0, 0, 0, 0, 0, 0, 0, 0, 0, 0, 0]"	"[0, 0, 0, 0, 0, 0, 0, 0, 0, 0, 0, 0, 1]"	"[0.30857059999834746, 0.6419368999922881, 1.392151099993498, 1.7421663999994053, 2.0170604000013554, 2.3172185000003083, 3.283786699990742, 3.492237300000852, 3.7173130000010133, 4.109022899996489, 4.650547299999744, 5.075602500000969, 7.042369599992526]"	12	"[0.6372215999872424, 1.3874444999964908, 1.737457600000198, 2.012352899997495, 2.3125059999874793, 3.2790762999939034, 3.4875235999934375, 3.712603299994953, 4.104314899988822, 4.645833599992329, 5.070893500000238, 7.037594800000079]"	"[0.7623760999995284, 1.5204767999966862, 1.8621724999975413, 2.128850199995213, 2.462203299990506, 3.3789451999909943, 3.5872937999956775, 3.8039552999980515, 4.204067999991821, 4.729032799994457, 5.145719599997392, 7.037598999988404]"	1151.3157644	1151.3217781	1152.8137994	1152.83855109999	NA	NA	NA	NA	NA	NA	NA	13	"01"	"2024-02-07_13h11.21.202"	"BART_exp"	"2023.2.3"	120.028422730343	"2024-02-07 13h11.33.508764 +0100"	NA
"balloon.png"	114	0	27	27	26	1152.83855109999	NA	NA	NA	NA	NA	NA	NA	NA	NA	NA	NA	NA	1152.8139829	1152.83855109999	1152.83855109999	1152.83855109999	1152.83855109999	1152.83855109999	-0.00039320001087617	-0.00039320001087617	-0.00039320001087617	1152.83855109999	1175.1501324	30	1.5	FALSE	"[0.028703703703703703, 0.028703703703703703, 0.028703703703703703, 0.028703703703703703, 0.028703703703703703, 0.028703703703703703, 0.028703703703703703, 0.028703703703703703, 0.028703703703703703, 0.028703703703703703, 0.028703703703703703, 0.028703703703703703, 0.028703703703703703, 0.028703703703703703, 0.028703703703703703, 0.028703703703703703, 0.028703703703703703, 0.028703703703703703, 0.028703703703703703, 0.028703703703703703, 0.028703703703703703, 0.028703703703703703, 0.028703703703703703, 0.028703703703703703, 0.028703703703703703, 0.028703703703703703, 0.028703703703703703, 0.028703703703703703, 0.028703703703703703, 0.028703703703703703, 0.028703703703703703]"	"[-0.4009259259259259, -0.4009259259259259, -0.4009259259259259, -0.4009259259259259, -0.4009259259259259, -0.4009259259259259, -0.4009259259259259, -0.4009259259259259, -0.4009259259259259, -0.4009259259259259, -0.4009259259259259, -0.4009259259259259, -0.4009259259259259, -0.4009259259259259, -0.4009259259259259, -0.4009259259259259, -0.4009259259259259, -0.4009259259259259, -0.4009259259259259, -0.4009259259259259, -0.4009259259259259, -0.4009259259259259, -0.4009259259259259, -0.4009259259259259, -0.4009259259259259, -0.4009259259259259, -0.4009259259259259, -0.4009259259259259, -0.4009259259259259, -0.4009259259259259, -0.4009259259259259]"	"[1, 1, 1, 1, 1, 1, 1, 1, 1, 1, 1, 1, 1, 1, 1, 1, 1, 1, 1, 1, 1, 1, 1, 1, 1, 1, 1, 1, 1, 1, 0]"	"[0, 0, 0, 0, 0, 0, 0, 0, 0, 0, 0, 0, 0, 0, 0, 0, 0, 0, 0, 0, 0, 0, 0, 0, 0, 0, 0, 0, 0, 0, 0]"	"[0, 0, 0, 0, 0, 0, 0, 0, 0, 0, 0, 0, 0, 0, 0, 0, 0, 0, 0, 0, 0, 0, 0, 0, 0, 0, 0, 0, 0, 0, 1]"	"[1.3755209000082687, 1.6338186000066344, 1.9421083000052022, 2.3589439000061247, 2.7170341000019107, 3.0589987999992445, 3.358941500002402, 4.875549699994735, 5.567389799994999, 5.967427900002804, 6.267307400004938, 6.675684700006968, 7.4508872000005795, 7.767569600007846, 8.142416999995476, 8.625987899999018, 9.209361000001081, 9.592726500006393, 10.001041099996655, 11.426142700001947, 13.03459290000319, 13.401273600000422, 13.718439999996917, 14.493007900004159, 15.793152199999895, 16.75989600000321, 18.601642699999502, 19.42668250000861, 20.118351400000392, 21.576840199995786, 22.335214499995345]"	31	"[1.363029899992398, 1.6213273999892408, 1.9296112000010908, 2.3464488999889, 2.704541799990693, 3.046507899998687, 3.346447999996599, 4.863055299996631, 5.55489359999774, 5.954934900000808, 6.254810499987798, 6.66319319998729, 7.4383989999914775, 7.755073499996797, 8.129916999998386, 8.613496799996938, 9.196863599994686, 9.580229599989252, 9.988549199988483, 11.413664799998514, 13.022099399997387, 13.388777799991658, 13.70595359998697, 14.480512999987695, 15.7806547999935, 16.747401099986746, 18.589144400000805, 19.414192600001115, 20.10585719998926, 21.564343099991675, 22.32265689999622]"	"[1.4793733999977121, 1.729335899988655, 2.0626924999960465, 2.454380899987882, 2.821073699989938, 3.154424199994537, 3.437808699993184, 5.329583200000343, 5.67129689999274, 6.088064699986717, 6.354704499986838, 6.796341299996129, 7.579762299996219, 7.904785899998387, 8.238159899992752, 8.713196500000777, 9.313194399990607, 9.705022800000734, 10.104975199996261, 11.53848809999181, 13.1301514999941, 13.497051599988481, 13.822050399990985, 14.596902799996315, 15.88865409999562, 16.8637466999935, 18.72216119999939, 19.522214299999177, 20.2223621999874, 21.6890388999891, 22.322660999998334]"	1175.1512277	1175.1567621	1176.6487225	1176.65701689999	NA	NA	NA	NA	NA	NA	NA	13	"01"	"2024-02-07_13h11.21.202"	"BART_exp"	"2023.2.3"	120.028422730343	"2024-02-07 13h11.33.508764 +0100"	NA
"balloon.png"	127	0	28	28	29	1176.65701689999	NA	NA	NA	NA	NA	NA	NA	NA	NA	NA	NA	NA	1176.6488979	1176.65701689999	1176.65701689999	1176.65701689999	1176.65701689999	1176.65701689999	0.00584789999993518	0.00584789999993518	0.00584789999993518	1176.65701689999	1197.38501519999	30	1.5	FALSE	"[0.09444444444444444, 0.09444444444444444, 0.08055555555555556, 0.06851851851851852, 0.05648148148148148, 0.05648148148148148, 0.05740740740740741, 0.05740740740740741, 0.05740740740740741, 0.05740740740740741, 0.05740740740740741, 0.05740740740740741, 0.05740740740740741, 0.05740740740740741, 0.05740740740740741, 0.05740740740740741, 0.05740740740740741, 0.05740740740740741, 0.05740740740740741, 0.05740740740740741, 0.05740740740740741, 0.05740740740740741, 0.05740740740740741, 0.05740740740740741, 0.05740740740740741, 0.05740740740740741, 0.05740740740740741, 0.05740740740740741, 0.05740740740740741, 0.05740740740740741, 0.006481481481481481]"	"[-0.37592592592592594, -0.37592592592592594, -0.37592592592592594, -0.3787037037037037, -0.37037037037037035, -0.37037037037037035, -0.37037037037037035, -0.37037037037037035, -0.37037037037037035, -0.37037037037037035, -0.37037037037037035, -0.37037037037037035, -0.37037037037037035, -0.37037037037037035, -0.37037037037037035, -0.37037037037037035, -0.37037037037037035, -0.37037037037037035, -0.37037037037037035, -0.37037037037037035, -0.37037037037037035, -0.37037037037037035, -0.37037037037037035, -0.37037037037037035, -0.37037037037037035, -0.37037037037037035, -0.37037037037037035, -0.37037037037037035, -0.37037037037037035, -0.37037037037037035, -0.3925925925925926]"	"[1, 1, 1, 1, 1, 1, 1, 1, 1, 1, 1, 1, 1, 1, 1, 1, 1, 1, 1, 1, 1, 1, 1, 1, 1, 1, 1, 1, 1, 1, 0]"	"[0, 0, 0, 0, 0, 0, 0, 0, 0, 0, 0, 0, 0, 0, 0, 0, 0, 0, 0, 0, 0, 0, 0, 0, 0, 0, 0, 0, 0, 0, 0]"	"[0, 0, 0, 0, 0, 0, 0, 0, 0, 0, 0, 0, 0, 0, 0, 0, 0, 0, 0, 0, 0, 0, 0, 0, 0, 0, 0, 0, 0, 0, 1]"	"[0.7671795000060229, 1.2253468000126304, 1.7505456000071717, 2.358946400010609, 3.2005225000029895, 3.4671680000028573, 3.7173498000047402, 4.000548800002434, 4.29242380001233, 4.592276800001855, 4.909106600011, 5.142444800003432, 6.125904700005776, 6.518970200006152, 6.734211700008018, 7.1926063999999315, 7.692601700007799, 8.076031400007196, 8.642520600013086, 9.467807400011225, 12.042741199999, 12.617808900002274, 13.217835800009198, 13.651396900007967, 14.309742900004494, 14.642933499999344, 16.376391000012518, 17.026446900010342, 17.79328880000685, 18.88509400001203, 20.73517160001211]"	31	"[0.7653086000063922, 1.223473499994725, 1.7486743000044953, 2.3570776999986265, 3.1986695999949006, 3.4652925999980653, 3.715475899996818, 3.998678400006611, 4.290556499996455, 4.59040559999994, 4.907234900005278, 5.140571800002363, 6.124030100007076, 6.517261800006963, 6.732338300003903, 7.190736200005631, 7.690730800008168, 8.074156300004688, 8.640648900007363, 9.465939500005334, 12.04087480000453, 12.615933599998243, 13.215959599998314, 13.64952340000309, 14.307875300000887, 14.641066399999545, 16.374516299998504, 17.02457380000851, 17.791420099994866, 18.88322600000538, 20.73323569999775]"	"[0.8733358000026783, 1.3233233000064502, 1.8650228000042262, 2.4818348999979207, 3.298479300006875, 3.573499300007825, 3.84849160000158, 4.107097800006159, 4.406850700004725, 4.756875899998704, 5.015250199998263, 5.25707500000135, 6.2403141999966465, 6.615345099999104, 6.83204530000512, 7.273761100004776, 7.798801900004037, 8.18212460000359, 8.732304500008468, 9.60722320000059, 12.149320199998328, 12.725638300005812, 13.357500500002061, 13.79916389999562, 14.424251400007051, 14.682616400008556, 16.53268190000381, 17.149414200001047, 17.907794200000353, 19.049539500003448, 20.733239799999865]"	1197.3862195	1197.3916051	1198.8835867	1198.8917489	NA	NA	NA	NA	NA	NA	NA	13	"01"	"2024-02-07_13h11.21.202"	"BART_exp"	"2023.2.3"	120.028422730343	"2024-02-07 13h11.33.508764 +0100"	NA
"balloon.png"	49	0	29	29	11	1198.8917489	NA	NA	NA	NA	NA	NA	NA	NA	NA	NA	NA	NA	1198.88376329999	1198.8917489	1198.8917489	1198.8917489	1198.8917489	1198.8917489	0.00559040000371169	0.00559040000371169	0.00559040000371169	1198.8917489	1209.0439544	20	1	FALSE	"[0.005555555555555556, 0.005555555555555556, 0.005555555555555556, 0.005555555555555556, 0.005555555555555556, 0.005555555555555556, 0.005555555555555556, 0.005555555555555556, 0.005555555555555556, 0.005555555555555556, 0.005555555555555556, 0.005555555555555556, 0.005555555555555556, 0.005555555555555556, 0.005555555555555556, 0.005555555555555556, 0.005555555555555556, 0.005555555555555556, 0.005555555555555556, 0.005555555555555556, 0.005555555555555556]"	"[-0.3972222222222222, -0.3972222222222222, -0.3972222222222222, -0.3972222222222222, -0.3972222222222222, -0.3972222222222222, -0.3972222222222222, -0.3972222222222222, -0.3972222222222222, -0.3972222222222222, -0.3972222222222222, -0.3972222222222222, -0.3972222222222222, -0.3972222222222222, -0.3972222222222222, -0.3972222222222222, -0.3972222222222222, -0.3972222222222222, -0.3972222222222222, -0.3972222222222222, -0.3972222222222222]"	"[1, 1, 1, 1, 1, 1, 1, 1, 1, 1, 1, 1, 1, 1, 1, 1, 1, 1, 1, 1, 0]"	"[0, 0, 0, 0, 0, 0, 0, 0, 0, 0, 0, 0, 0, 0, 0, 0, 0, 0, 0, 0, 0]"	"[0, 0, 0, 0, 0, 0, 0, 0, 0, 0, 0, 0, 0, 0, 0, 0, 0, 0, 0, 0, 1]"	"[0.775310899989563, 1.1171370999945793, 1.3920090999890817, 1.983733499990194, 2.2173087999981362, 2.4339253999933135, 2.667269799989299, 3.0172580999933416, 4.1338810000015656, 4.533908799989149, 4.8092089999991, 4.992388099999516, 6.0923773999966215, 6.384726899996167, 6.5925203999941, 7.125757099987823, 7.450944999989588, 8.584194099996239, 8.867688599988469, 9.350930799992057, 10.159264799993252]"	21	"[0.7734278999996604, 1.1152546999946935, 1.3901285999891115, 1.9818447999859927, 2.215423899993766, 2.4320384999882663, 2.6653852999879746, 3.0153718999936245, 4.131994599985774, 4.532025999986217, 4.807323899993207, 4.990506599991932, 6.090513699993608, 6.382915599999251, 6.5906436999939615, 7.123872599986498, 7.449058199999854, 8.582305199990515, 8.865801199994166, 9.349043399997754, 10.157317699995474]"	"[0.8732684999995399, 1.1983057999896118, 1.5066848999995273, 2.0983540999877732, 2.3317162999883294, 2.5400515999936033, 2.7484437999955844, 3.1237101999868173, 4.240177299987408, 4.640208199998597, 4.923556299996562, 5.090283999990788, 6.207001799994032, 6.482267899991712, 6.67370359999768, 7.198708299998543, 7.548726099994383, 8.698801199992886, 8.974000999995042, 9.423971599986544, 10.15732179999759]"	1209.04490909999	1209.0507501	1210.54269269999	1210.55084119999	NA	NA	NA	NA	NA	NA	NA	13	"01"	"2024-02-07_13h11.21.202"	"BART_exp"	"2023.2.3"	120.028422730343	"2024-02-07 13h11.33.508764 +0100"	NA
NA	NA	NA	NA	NA	NA	NA	NA	NA	NA	NA	NA	NA	NA	NA	NA	NA	NA	NA	NA	NA	NA	NA	NA	NA	NA	NA	NA	NA	NA	NA	NA	NA	NA	NA	NA	NA	NA	NA	NA	NA	NA	NA	NA	NA	NA	1210.5427299	1210.55084119999	1210.55084119999	1217.0766777	"space"	6.51761269998678	"None"	13	"01"	"2024-02-07_13h11.21.202"	"BART_exp"	"2023.2.3"	120.028422730343	"2024-02-07 13h11.33.508764 +0100"	NA
