image	max_pumps	pump_loop.thisRepN	pump_loop.thisTrialN	pump_loop.thisN	pump_loop.thisIndex	thisRow.t	notes	Start.started	text_start.started	continue_start.started	mouse_start.started	Start.stopped	mouse_start.x	mouse_start.y	mouse_start.leftButton	mouse_start.midButton	mouse_start.rightButton	mouse_start.time	trials.started	stim_balloon.started	stim_balloon_burst.started	stim_balloon_burst.stopped	text_ballon_value.started	text_bank.started	mouse.started	sound_bang.started	sound_bang.stopped	button_balloon.started	trials.stopped	n_pumps	earnings	popped	mouse.x	mouse.y	mouse.leftButton	mouse.midButton	mouse.rightButton	mouse.time	button_balloon.numClicks	button_balloon.timesOn	button_balloon.timesOff	Feedback.started	text_feedback.started	Feedback.stopped	text_feedback.stopped	End.started	text_end.started	key_end.started	End.stopped	key_end.keys	key_end.rt	key_end.duration	participant	session	date	expName	psychopyVersion	frameRate	expStart	
								0.03896739998890553	0.04888069999287836	0.04888069999287836	0.03929169999901205	57.320175199987716	[0.65]	[-0.37222222222222223]	[1]	[0]	[0]	[57.280300099999295]																																			27	02	2024-02-19_11h15.33.478	BART_exp	2023.2.3	119.9260775613586	2024-02-19 11h15.41.695562 +0100	
balloon.png	14	0	0	0	3	57.386185499999556													57.32631289999699	57.386185499999556	57.386185499999556	57.386185499999556	57.386185499999556	57.386185499999556	0.007780899992212653	0.007780899992212653	0.007780899992212653	57.386185499999556	61.863604899990605	15	0.70	True	"[-0.08796296296296297, -0.08611111111111111, -0.08518518518518518, -0.08518518518518518, -0.08518518518518518, -0.08333333333333333, -0.08333333333333333, -0.07962962962962963, -0.07962962962962963, -0.07962962962962963, -0.07962962962962963, -0.07962962962962963, -0.07962962962962963, -0.07962962962962963, -0.07962962962962963]"	"[-0.412962962962963, -0.41203703703703703, -0.41203703703703703, -0.4111111111111111, -0.4111111111111111, -0.4111111111111111, -0.4111111111111111, -0.39814814814814814, -0.39814814814814814, -0.39814814814814814, -0.39814814814814814, -0.39814814814814814, -0.39814814814814814, -0.39814814814814814, -0.39814814814814814]"	"[1, 1, 1, 1, 1, 1, 1, 1, 1, 1, 1, 1, 1, 1, 1]"	"[0, 0, 0, 0, 0, 0, 0, 0, 0, 0, 0, 0, 0, 0, 0]"	"[0, 0, 0, 0, 0, 0, 0, 0, 0, 0, 0, 0, 0, 0, 0]"	"[1.469642299998668, 1.7856341999868164, 1.9773140999895986, 2.185656099987682, 2.3786051999923075, 2.61070629999449, 2.852401199997985, 3.0775743999984115, 3.260914099999354, 3.4692531999899074, 3.7109137999941595, 3.894269299998996, 4.085944099992048, 4.260932799996226, 4.436702899998636]"	15	"[1.4199308000097517, 1.7357307000056608, 1.927420100008021, 2.1357755000062753, 2.3288707000028808, 2.560803600004874, 2.8024979000038, 3.0276756000093883, 3.2110148000065237, 3.419358800005284, 3.6610107000014978, 3.844371500003035, 4.036046200009878, 4.2110326000110945, 4.386811600008514]"	"[1.568946200000937, 1.8439461000089068, 2.0607952999998815, 2.268946100011817, 2.4523044000088703, 2.6606622000108473, 2.8523507000063546, 3.127364400002989, 3.3107497000019066, 3.5357224000035785, 3.7607284000114305, 3.9440589000005275, 4.12741330001154, 4.302455600001849, 4.4776548000081675]"	61.86483700000099	61.87807039999461	63.36997479999263									27	02	2024-02-19_11h15.33.478	BART_exp	2023.2.3	119.9260775613586	2024-02-19 11h15.41.695562 +0100	
balloon.png	97	0	1	1	22	63.386657799987006													63.37016009999206	63.386657799987006	63.386657799987006	63.386657799987006	63.386657799987006	63.386657799987006	0.006690300011541694	0.006690300011541694	0.006690300011541694	63.386657799987006	66.713359699992	11	0.55	False	"[-0.05462962962962963, -0.05462962962962963, -0.05462962962962963, -0.05462962962962963, -0.06018518518518518, -0.06296296296296296, -0.06296296296296296, -0.05925925925925926, -0.058333333333333334, -0.06018518518518518, -0.062037037037037036, -0.06111111111111111]"	"[-0.3851851851851852, -0.38333333333333336, -0.38055555555555554, -0.37962962962962965, -0.37962962962962965, -0.38055555555555554, -0.38055555555555554, -0.37962962962962965, -0.3768518518518518, -0.37592592592592594, -0.375, -0.3731481481481482]"	"[1, 1, 1, 1, 1, 1, 1, 1, 1, 1, 1, 0]"	"[0, 0, 0, 0, 0, 0, 0, 0, 0, 0, 0, 0]"	"[0, 0, 0, 0, 0, 0, 0, 0, 0, 0, 0, 1]"	"[0.6506284999923082, 0.8173147000052268, 1.0089690000022529, 1.1839277999970363, 1.3422044000035385, 1.5173181999998633, 1.6840324999939185, 1.850756600004388, 2.0507381000061287, 2.234068000005209, 2.4258450000052107, 3.3422881000005873]"	12	"[0.644656299991766, 0.8113545999949565, 1.0029985000001034, 1.17795820000174, 1.336233699999866, 1.511343799997121, 1.678065100000822, 1.844786200003, 2.0447704999969574, 2.2280933000001824, 2.419877299995278, 3.336251999993692]"	"[0.7443281000014395, 0.9443462999915937, 1.1027595000050496, 1.269398699994781, 1.444470899994485, 1.6110665000014706, 1.786124699996435, 1.9861426999996183, 2.1528277000033995, 2.3027823000011267, 2.536164299992379, 3.3362564999988535]"	66.71409409999615	66.72848239999439	68.22029009999824									27	02	2024-02-19_11h15.33.478	BART_exp	2023.2.3	119.9260775613586	2024-02-19 11h15.41.695562 +0100	
balloon.png	10	0	2	2	2	68.23692769999616													68.22046189999674	68.23692769999616	68.23692769999616	68.23692769999616	68.23692769999616	68.23692769999616	0.007609599997522309	0.007609599997522309	0.007609599997522309	68.23692769999616	71.07234799998696	11	0.50	True	"[-0.06388888888888888, -0.06388888888888888, -0.06388888888888888, -0.06388888888888888, -0.06388888888888888, -0.06388888888888888, -0.06388888888888888, -0.06388888888888888, -0.06388888888888888, -0.06388888888888888, -0.06388888888888888]"	"[-0.387037037037037, -0.387037037037037, -0.387037037037037, -0.387037037037037, -0.387037037037037, -0.387037037037037, -0.387037037037037, -0.387037037037037, -0.387037037037037, -0.387037037037037, -0.3861111111111111]"	"[1, 1, 1, 1, 1, 1, 1, 1, 1, 1, 1]"	"[0, 0, 0, 0, 0, 0, 0, 0, 0, 0, 0]"	"[0, 0, 0, 0, 0, 0, 0, 0, 0, 0, 0]"	"[0.6838523000042187, 0.9088675000093644, 1.0921839000075124, 1.2755896000016946, 1.4755546000087634, 1.6589382000092883, 1.8506735999981174, 2.0258892999991076, 2.20908880000934, 2.400787999999011, 2.717316900001606]"	11	"[0.6783444000029704, 0.9033683000016026, 1.0866668000089703, 1.270073699997738, 1.4700519000034546, 1.653425700002117, 1.845162600002368, 2.020388000004459, 2.203580100002, 2.39527839999937, 2.7117986000084784]"	"[0.7865402000024915, 0.9948656000051415, 1.1615286000014748, 1.369960700001684, 1.55325989999983, 1.7366794000117807, 1.9116594000079203, 2.086611400009133, 2.269988000000012, 2.486624099998153, 2.836632600010489]"	71.07308829999238	71.07877539999026	72.5707235000009	72.58720889998949								27	02	2024-02-19_11h15.33.478	BART_exp	2023.2.3	119.9260775613586	2024-02-19 11h15.41.695562 +0100	
balloon.png	36	0	3	3	8	72.58720889998949													72.57090239999525	72.58720889998949	72.58720889998949	72.58720889998949	72.58720889998949	72.58720889998949	-0.0008781000069575384	-0.0008781000069575384	-0.0008781000069575384	72.58720889998949	76.34738669999933	5	0.25	False	"[-0.06574074074074074, -0.06574074074074074, -0.06574074074074074, -0.06574074074074074, -0.06574074074074074, -0.06481481481481481]"	"[-0.3861111111111111, -0.3861111111111111, -0.3861111111111111, -0.3861111111111111, -0.3861111111111111, -0.3861111111111111]"	"[1, 1, 1, 1, 1, 0]"	"[0, 0, 0, 0, 0, 0]"	"[0, 0, 0, 0, 0, 1]"	"[1.8506034000020009, 2.0838132000062615, 2.267307300004177, 2.450617800001055, 2.6256129999965196, 3.7755773999961093]"	6	"[1.8454837999888696, 2.0786870999872917, 2.262189599990961, 2.44549559999723, 2.620485799998278, 3.770393200000399]"	"[1.9952269999921555, 2.178693999987445, 2.361867399988114, 2.55352019998827, 2.745195799987414, 3.7703977999917697]"	76.34802389999095	76.35413549999066	77.8461127999908	77.86256389999471								27	02	2024-02-19_11h15.33.478	BART_exp	2023.2.3	119.9260775613586	2024-02-19 11h15.41.695562 +0100	
balloon.png	101	0	4	4	23	77.86256389999471													77.84629149999819	77.86256389999471	77.86256389999471	77.86256389999471	77.86256389999471	77.86256389999471	-0.0004856000014115125	-0.0004856000014115125	-0.0004856000014115125	77.86256389999471	84.5397312999994	21	1.05	False	"[-0.06111111111111111, -0.06111111111111111, -0.06111111111111111, -0.06111111111111111, -0.06111111111111111, -0.06111111111111111, -0.06111111111111111, -0.06111111111111111, -0.06111111111111111, -0.06111111111111111, -0.06111111111111111, -0.06018518518518518, -0.06018518518518518, -0.06018518518518518, -0.06018518518518518, -0.06018518518518518, -0.06018518518518518, -0.06018518518518518, -0.06018518518518518, -0.06018518518518518, -0.06018518518518518, -0.06018518518518518]"	"[-0.3851851851851852, -0.3851851851851852, -0.3851851851851852, -0.3851851851851852, -0.3851851851851852, -0.3851851851851852, -0.3851851851851852, -0.3851851851851852, -0.3851851851851852, -0.3851851851851852, -0.3851851851851852, -0.3851851851851852, -0.3851851851851852, -0.3851851851851852, -0.3851851851851852, -0.3851851851851852, -0.3851851851851852, -0.38333333333333336, -0.38333333333333336, -0.3824074074074074, -0.3824074074074074, -0.3824074074074074]"	"[1, 1, 1, 1, 1, 1, 1, 1, 1, 1, 1, 1, 1, 1, 1, 1, 1, 1, 1, 1, 1, 0]"	"[0, 0, 0, 0, 0, 0, 0, 0, 0, 0, 0, 0, 0, 0, 0, 0, 0, 0, 0, 0, 0, 0]"	"[0, 0, 0, 0, 0, 0, 0, 0, 0, 0, 0, 0, 0, 0, 0, 0, 0, 0, 0, 0, 0, 1]"	"[0.37550829999963753, 0.6170488000061596, 0.8086997999926098, 1.0336375000042608, 1.2170320000004722, 1.4088560999953188, 1.5839790000027278, 1.775546899996698, 1.9672169999976177, 2.1922618999960832, 2.358895500001381, 2.5506195000052685, 2.750590600000578, 2.9422574000054738, 3.100576099997852, 3.2754979000019375, 3.492270100003225, 5.2842341999930795, 5.467313799992553, 5.650642299995525, 6.083977999995113, 6.6925067999982275]"	22	"[0.36553310000454076, 0.6070822000037879, 0.7987219000060577, 1.0236560000048485, 1.2070549000054598, 1.3988803999964148, 1.573999999993248, 1.7655666999926325, 1.957237199996598, 2.182283300004201, 2.3489142000034917, 2.540641899991897, 2.7406098999927053, 2.932276699997601, 3.0905933000030927, 3.2655214999977034, 3.4822979000018677, 5.2742811999924015, 5.457337200001348, 5.640665099999751, 6.073995900005684, 6.682465799996862]"	"[0.4986477000056766, 0.6735033000004478, 0.9069679999956861, 1.0986253000010038, 1.3069016999943415, 1.4902205999969738, 1.6652608000003966, 1.823565900005633, 2.0569188999943435, 2.2569549000036204, 2.4571192000003066, 2.6403053999965778, 2.806970399993588, 3.0069881999952486, 3.1653308999957517, 3.357038999994984, 3.5737070000031963, 5.382170099997893, 5.532192999991821, 5.707183000005898, 6.165517400004319, 6.682469999999739]"	84.54070719999436	84.55469319999975	86.04650529999344									27	02	2024-02-19_11h15.33.478	BART_exp	2023.2.3	119.9260775613586	2024-02-19 11h15.41.695562 +0100	
balloon.png	114	0	5	5	26	86.06316139998671													86.04669449999346	86.06316139998671	86.06316139998671	86.06316139998671	86.06316139998671	86.06316139998671	0.00733760000730399	0.00733760000730399	0.00733760000730399	86.06316139998671	91.23170189998928	15	0.75	False	"[-0.0712962962962963, -0.0712962962962963, -0.0712962962962963, -0.0712962962962963, -0.0712962962962963, -0.0712962962962963, -0.0712962962962963, -0.0712962962962963, -0.0712962962962963, -0.0712962962962963, -0.0712962962962963, -0.0712962962962963, -0.0712962962962963, -0.0712962962962963, -0.0712962962962963, -0.0712962962962963]"	"[-0.38333333333333336, -0.38333333333333336, -0.38333333333333336, -0.38333333333333336, -0.38333333333333336, -0.38333333333333336, -0.38333333333333336, -0.38333333333333336, -0.38333333333333336, -0.38333333333333336, -0.38333333333333336, -0.38333333333333336, -0.38333333333333336, -0.38333333333333336, -0.38333333333333336, -0.3824074074074074]"	"[1, 1, 1, 1, 1, 1, 1, 1, 1, 1, 1, 1, 1, 1, 1, 0]"	"[0, 0, 0, 0, 0, 0, 0, 0, 0, 0, 0, 0, 0, 0, 0, 0]"	"[0, 0, 0, 0, 0, 0, 0, 0, 0, 0, 0, 0, 0, 0, 0, 1]"	"[0.6755105000047479, 0.8922768000047654, 1.117328099993756, 1.3590346999990288, 1.5589953000016976, 1.7590122999972664, 1.959043800001382, 2.1424458999972558, 2.3590545000042766, 2.5841027999995276, 3.2173216999945, 3.4269514000043273, 3.6006499999930384, 3.7758773999958066, 4.527342400004272, 5.184101999999257]"	16	"[0.6657888000045205, 0.8825304999918444, 1.1075867000035942, 1.3492918999982066, 1.5492516999947838, 1.7492674999957671, 1.9493083999986993, 2.132705800002441, 2.3493232000037096, 2.5743617999978596, 3.2075777999998536, 3.417373200005386, 3.5909161000017775, 3.7661315000004834, 4.5177560000011, 5.174298300000373]"	"[0.7739256999921054, 0.9572312999953283, 1.2072766999917803, 1.465748300004634, 1.6574164000048768, 1.8489909000054467, 2.040652499999851, 2.224087199996575, 2.42406089999713, 2.674028099994757, 3.2991050999989966, 3.490764500005753, 3.665774799999781, 3.9157627999957185, 4.599171199995908, 5.174302899991744]"	91.23250259998895	91.23849419999169	92.73042769999302	92.74690629998804								27	02	2024-02-19_11h15.33.478	BART_exp	2023.2.3	119.9260775613586	2024-02-19 11h15.41.695562 +0100	
balloon.png	1	0	6	6	0	92.74690629998804													92.73060959999566	92.74690629998804	92.74690629998804	92.74690629998804	92.74690629998804	92.74690629998804	-0.0006488999933935702	-0.0006488999933935702	-0.0006488999933935702	92.74690629998804	93.4571212999872	2	0.05	True	"[-0.07777777777777778, -0.07777777777777778]"	"[-0.3814814814814815, -0.3814814814814815]"	"[1, 1]"	"[0, 0]"	"[0, 0]"	"[0.38366959999257233, 0.6004664000065532]"	2	"[0.377858699997887, 0.5946483000006992]"	"[0.5276919000025373, 0.7110206999932416]"	93.45771740000055	93.46362659998704	94.95557869999902	94.97197379999852								27	02	2024-02-19_11h15.33.478	BART_exp	2023.2.3	119.9260775613586	2024-02-19 11h15.41.695562 +0100	
balloon.png	40	0	7	7	9	94.97197379999852													94.9557582999987	94.97197379999852	94.97197379999852	94.97197379999852	94.97197379999852	94.97197379999852	-0.0005443999980343506	-0.0005443999980343506	-0.0005443999980343506	94.97197379999852	102.99932329999865	21	1.05	False	"[-0.07777777777777778, -0.07777777777777778, -0.07777777777777778, -0.07777777777777778, -0.07777777777777778, -0.07777777777777778, -0.07777777777777778, -0.07777777777777778, -0.07777777777777778, -0.07777777777777778, -0.07777777777777778, -0.07777777777777778, -0.07777777777777778, -0.07777777777777778, -0.07777777777777778, -0.07777777777777778, -0.07777777777777778, -0.07777777777777778, -0.07777777777777778, -0.07777777777777778, -0.07777777777777778, -0.07777777777777778]"	"[-0.3814814814814815, -0.3814814814814815, -0.3814814814814815, -0.3814814814814815, -0.3814814814814815, -0.3814814814814815, -0.3814814814814815, -0.3814814814814815, -0.3814814814814815, -0.3814814814814815, -0.3814814814814815, -0.3814814814814815, -0.3814814814814815, -0.3814814814814815, -0.3814814814814815, -0.3814814814814815, -0.3814814814814815, -0.3814814814814815, -0.3814814814814815, -0.3814814814814815, -0.3814814814814815, -0.3814814814814815]"	"[1, 1, 1, 1, 1, 1, 1, 1, 1, 1, 1, 1, 1, 1, 1, 1, 1, 1, 1, 1, 1, 0]"	"[0, 0, 0, 0, 0, 0, 0, 0, 0, 0, 0, 0, 0, 0, 0, 0, 0, 0, 0, 0, 0, 0]"	"[0, 0, 0, 0, 0, 0, 0, 0, 0, 0, 0, 0, 0, 0, 0, 0, 0, 0, 0, 0, 0, 1]"	"[0.5003436999977566, 0.7170137999928556, 0.9336944999959087, 1.1170423000003211, 1.3172123999975156, 1.5170681000017794, 1.717076699991594, 1.9171305999916513, 2.1337652999936836, 2.325435999999172, 2.533800199991674, 2.767280200001551, 2.9923142999905394, 4.533961099994485, 4.7173158999939915, 5.392533399994136, 5.559136800002307, 6.1258727999957046, 6.317396200000076, 7.325790299990331, 7.492475999999442, 8.042671699993662]"	22	"[0.48984189999464434, 0.7065090999967651, 0.9231933999981266, 1.106538099993486, 1.306711400000495, 1.5065615999919828, 1.706571199989412, 1.9066300999984378, 2.1232706000009784, 2.3149330000014743, 2.523300599990762, 2.756773000000976, 2.9818110999913188, 4.5234613999928115, 4.706809199997224, 5.382035799993901, 5.548636399995303, 6.115369099992677, 6.306889400002547, 7.315289399994072, 7.481979499993031, 8.032105799997225]"	"[0.6313716000004206, 0.8147026999940863, 1.023043699999107, 1.223057900002459, 1.414747399991029, 1.6064151999889873, 1.798278999995091, 2.014790899993386, 2.231465599994408, 2.4315203000005567, 2.6731966999941505, 2.8731958999997005, 3.089866299997084, 4.631853599988972, 4.815049700002419, 5.481702299992321, 5.648348399990937, 6.190179999990505, 6.348393199994462, 7.406809899999644, 7.556830899993656, 8.032110000000102]"	103.00033329999133	103.0059598999942	104.49793139999383	104.51439149999351								27	02	2024-02-19_11h15.33.478	BART_exp	2023.2.3	119.9260775613586	2024-02-19 11h15.41.695562 +0100	
balloon.png	31	0	8	8	7	104.51439149999351													104.49811279999267	104.51439149999351	104.51439149999351	104.51439149999351	104.51439149999351	104.51439149999351	-0.0009748000011313707	-0.0009748000011313707	-0.0009748000011313707	104.51439149999351	112.70825649998733	27	1.35	False	"[-0.07777777777777778, -0.07777777777777778, -0.07777777777777778, -0.07777777777777778, -0.07777777777777778, -0.07777777777777778, -0.07777777777777778, -0.07777777777777778, -0.07777777777777778, -0.07777777777777778, -0.07777777777777778, -0.07777777777777778, -0.07777777777777778, -0.07777777777777778, -0.07777777777777778, -0.07777777777777778, -0.07777777777777778, -0.07777777777777778, -0.07777777777777778, -0.07777777777777778, -0.07777777777777778, -0.07777777777777778, -0.07777777777777778, -0.07777777777777778, -0.07777777777777778, -0.07777777777777778, -0.07777777777777778, -0.07777777777777778]"	"[-0.3814814814814815, -0.3814814814814815, -0.3814814814814815, -0.3814814814814815, -0.3814814814814815, -0.3814814814814815, -0.3814814814814815, -0.3814814814814815, -0.3814814814814815, -0.3814814814814815, -0.3814814814814815, -0.3814814814814815, -0.3814814814814815, -0.3814814814814815, -0.3814814814814815, -0.3814814814814815, -0.3814814814814815, -0.3814814814814815, -0.3814814814814815, -0.3814814814814815, -0.3814814814814815, -0.3814814814814815, -0.3814814814814815, -0.3814814814814815, -0.3814814814814815, -0.3814814814814815, -0.3814814814814815, -0.3814814814814815]"	"[1, 1, 1, 1, 1, 1, 1, 1, 1, 1, 1, 1, 1, 1, 1, 1, 1, 1, 1, 1, 1, 1, 1, 1, 1, 1, 1, 0]"	"[0, 0, 0, 0, 0, 0, 0, 0, 0, 0, 0, 0, 0, 0, 0, 0, 0, 0, 0, 0, 0, 0, 0, 0, 0, 0, 0, 0]"	"[0, 0, 0, 0, 0, 0, 0, 0, 0, 0, 0, 0, 0, 0, 0, 0, 0, 0, 0, 0, 0, 0, 0, 0, 0, 0, 0, 1]"	"[0.5919270000013057, 0.8006122000078904, 0.9919587000040337, 1.1919601000117837, 1.383830400009174, 1.5586515000031795, 1.7503447000053711, 1.9503460000123596, 2.1336956000013743, 2.3255406000098446, 2.508887500007404, 2.7004378999990877, 2.908762700011721, 3.150431900008698, 3.37548840000818, 3.583815500009223, 3.7671486000035657, 3.9755051000101957, 4.183834000010393, 4.442420600011246, 4.984077500004787, 5.442405699999654, 5.742295000003651, 6.842519700003322, 7.009179800006677, 7.559083300002385, 7.759094400011236, 8.209237900009612]"	28	"[0.5838957999949344, 0.7925751999864588, 0.983930499991402, 1.1839196999935666, 1.3758022999973036, 1.550618299996131, 1.7423111999960383, 1.9423137999983737, 2.125663299986627, 2.3175027999968734, 2.500854399986565, 2.692404399989755, 2.9007305999984965, 3.142395899994881, 3.3674866999936057, 3.5757824999891454, 3.7591156999988016, 3.967468999995617, 4.175793399990653, 4.434392299997853, 4.976040499997907, 5.434368299989728, 5.734260199998971, 6.834485199986375, 7.001146599999629, 7.551045099986368, 7.751058899986674, 8.201138499993249]"	"[0.7088281999895116, 0.9087812999932794, 1.1004602999892086, 1.2921268999925815, 1.4838166999979876, 1.6672454999934416, 1.8504915999947116, 2.0421718999859877, 2.208874099989771, 2.417190299995127, 2.617229600000428, 2.8172759999870323, 3.033928599994397, 3.2590032999869436, 3.458964699995704, 3.683953699990525, 3.8756517999863718, 4.07569009999861, 4.267325199994957, 4.6008280999958515, 5.1007762999943225, 5.5257316999923205, 5.817437399993651, 6.942525999998907, 7.100856999997632, 7.642568199997186, 7.800914099992951, 8.201142499994603]"	112.70927409999422	112.71492419998685	114.20691509998869	114.22335859999293								27	02	2024-02-19_11h15.33.478	BART_exp	2023.2.3	119.9260775613586	2024-02-19 11h15.41.695562 +0100	
balloon.png	53	0	9	9	12	114.22335859999293													114.2070975999959	114.22335859999293	114.22335859999293	114.22335859999293	114.22335859999293	114.22335859999293	-0.0009271000017179176	-0.0009271000017179176	-0.0009271000017179176	114.22335859999293	118.1503190999938	15	0.75	False	"[-0.0787037037037037, -0.0787037037037037, -0.0787037037037037, -0.0787037037037037, -0.0787037037037037, -0.0787037037037037, -0.0787037037037037, -0.0787037037037037, -0.0787037037037037, -0.0787037037037037, -0.0787037037037037, -0.0787037037037037, -0.0787037037037037, -0.0787037037037037, -0.0787037037037037, -0.0787037037037037]"	"[-0.3814814814814815, -0.3814814814814815, -0.3814814814814815, -0.3814814814814815, -0.3814814814814815, -0.3814814814814815, -0.3814814814814815, -0.3814814814814815, -0.3814814814814815, -0.3814814814814815, -0.3814814814814815, -0.3814814814814815, -0.3814814814814815, -0.3814814814814815, -0.3814814814814815, -0.3814814814814815]"	"[1, 1, 1, 1, 1, 1, 1, 1, 1, 1, 1, 1, 1, 1, 1, 0]"	"[0, 0, 0, 0, 0, 0, 0, 0, 0, 0, 0, 0, 0, 0, 0, 0]"	"[0, 0, 0, 0, 0, 0, 0, 0, 0, 0, 0, 0, 0, 0, 0, 1]"	"[0.44192280000424944, 0.6502711000066483, 0.8252923000109149, 1.0087071000016294, 1.1919876000029035, 1.4088496000040323, 1.608691200002795, 1.8517050000082236, 2.0337219000066398, 2.225387900005444, 2.4170703000127105, 2.592090100006317, 2.7673015000036685, 2.942256800000905, 3.1256020000000717, 3.9423146000044653]"	16	"[0.432874999998603, 0.6412179000035394, 0.8162396999978228, 0.9996545000030892, 1.182935799995903, 1.3998111999972025, 1.599637099992833, 1.8428143999917665, 2.0246696999965934, 2.216332900003181, 2.4080269999976736, 2.5830376999947475, 2.7582570999948075, 2.9332064999907743, 3.1165496000030544, 3.933201799998642]"	"[0.532743699994171, 0.7244290999951772, 0.8994524000008823, 1.0661207999946782, 1.2745003000018187, 1.5078300000022864, 1.707856199995149, 1.9245288999954937, 2.124542899997323, 2.3162004000041634, 2.4912275999959093, 2.65804229999776, 2.857920099995681, 3.041268200002378, 3.1996387999970466, 3.9332061000022804]"	118.1511557999911	118.15695910000068	119.64895519999845	119.66539409999677								27	02	2024-02-19_11h15.33.478	BART_exp	2023.2.3	119.9260775613586	2024-02-19 11h15.41.695562 +0100	
balloon.png	62	0	10	10	14	119.66539409999677													119.64913529998739	119.66539409999677	119.66539409999677	119.66539409999677	119.66539409999677	119.66539409999677	-0.0007822999905329198	-0.0007822999905329198	-0.0007822999905329198	119.66539409999677	130.0260089999938	33	1.65	False	"[-0.0787037037037037, -0.0787037037037037, -0.0787037037037037, -0.0787037037037037, -0.0787037037037037, -0.0787037037037037, -0.0787037037037037, -0.0787037037037037, -0.0787037037037037, -0.0787037037037037, -0.0787037037037037, -0.0787037037037037, -0.0787037037037037, -0.0787037037037037, -0.0787037037037037, -0.0787037037037037, -0.0787037037037037, -0.0787037037037037, -0.0787037037037037, -0.0787037037037037, -0.0787037037037037, -0.0787037037037037, -0.0787037037037037, -0.0787037037037037, -0.07777777777777778, -0.07777777777777778, -0.07777777777777778, -0.07777777777777778, -0.07777777777777778, -0.07777777777777778, -0.07777777777777778, -0.07407407407407407, -0.07407407407407407, -0.07407407407407407]"	"[-0.3814814814814815, -0.3814814814814815, -0.3814814814814815, -0.3814814814814815, -0.3814814814814815, -0.3814814814814815, -0.3814814814814815, -0.3814814814814815, -0.3814814814814815, -0.3814814814814815, -0.3814814814814815, -0.3814814814814815, -0.3814814814814815, -0.3814814814814815, -0.3814814814814815, -0.3814814814814815, -0.3814814814814815, -0.3814814814814815, -0.3814814814814815, -0.3814814814814815, -0.3814814814814815, -0.3814814814814815, -0.3814814814814815, -0.3814814814814815, -0.37962962962962965, -0.37962962962962965, -0.37962962962962965, -0.37962962962962965, -0.37962962962962965, -0.37962962962962965, -0.37962962962962965, -0.37592592592592594, -0.37592592592592594, -0.37592592592592594]"	"[1, 1, 1, 1, 1, 1, 1, 1, 1, 1, 1, 1, 1, 1, 1, 1, 1, 1, 1, 1, 1, 1, 1, 1, 1, 1, 1, 1, 1, 1, 1, 1, 1, 0]"	"[0, 0, 0, 0, 0, 0, 0, 0, 0, 0, 0, 0, 0, 0, 0, 0, 0, 0, 0, 0, 0, 0, 0, 0, 0, 0, 0, 0, 0, 0, 0, 0, 0, 0]"	"[0, 0, 0, 0, 0, 0, 0, 0, 0, 0, 0, 0, 0, 0, 0, 0, 0, 0, 0, 0, 0, 0, 0, 0, 0, 0, 0, 0, 0, 0, 0, 0, 0, 1]"	"[0.3171269000013126, 0.5004246000025887, 0.7004348000045866, 0.9171181999990949, 1.1004945000022417, 1.3088167999958387, 1.5004995000053896, 1.7255270000023302, 1.9171853000007104, 2.117251000003307, 2.308892899993225, 2.4755644999968354, 2.6756590000004508, 2.883923200002755, 3.050767699998687, 3.2339132000051904, 3.4756215999950655, 3.675695400001132, 3.875634700001683, 4.067350199999055, 4.250663500002702, 4.425666499999352, 4.642534600003273, 4.825679100002162, 6.000730200001271, 6.592349700003979, 6.784059099998558, 7.45087839999178, 7.625883000000613, 8.059336399994208, 8.24259449999954, 9.4760421999963, 9.717738099992857, 10.375958999997238]"	34	"[0.31005759999970905, 0.49335079999582376, 0.6933540000027278, 0.9100385999918217, 1.0934146999934455, 1.3017410000029486, 1.4934208000049694, 1.718447199993534, 1.9101045999996131, 2.1101726000051713, 2.3018194000032963, 2.4684838999964995, 2.6685791999916546, 2.8768447000038577, 3.043699000001652, 3.2268318999995245, 3.468545299998368, 3.6686221999989357, 3.868562399991788, 4.060269599998719, 4.243590099998983, 4.418586600004346, 4.635462299993378, 4.818603499996243, 5.993651700002374, 6.585273499993491, 6.776981599992723, 7.4437981999944896, 7.618807899998501, 8.052259300005971, 8.235518400004366, 9.468966600004933, 9.710662199999206, 10.368817900001886]"	"[0.4181010000029346, 0.6180443000048399, 0.7930606000008993, 0.9764066999923671, 1.2180840999935754, 1.409782400005497, 1.601433999996516, 1.8181683000002522, 2.001499899997725, 2.201614299992798, 2.3848709000012605, 2.5598362000018824, 2.759927699997206, 2.959875500004273, 3.1515368999971543, 3.343281900000875, 3.5433230999915395, 3.759985600001528, 3.951736200004234, 4.143316699992283, 4.318306300003314, 4.5099897000036435, 4.693353099995875, 4.893362699993304, 6.093401099991752, 6.7018248999956995, 6.85181740000553, 7.535225400002673, 7.710185599993565, 8.15191899999627, 8.294956500001717, 9.526977999994415, 9.768819499993697, 10.368822200005525]"	130.02715599999647	130.0410991999961	131.5329073999892									27	02	2024-02-19_11h15.33.478	BART_exp	2023.2.3	119.9260775613586	2024-02-19 11h15.41.695562 +0100	
balloon.png	57	0	11	11	13	131.5495488999877													131.53309539999464	131.5495488999877	131.5495488999877	131.5495488999877	131.5495488999877	131.5495488999877	0.007159700006013736	0.007159700006013736	0.007159700006013736	131.5495488999877	137.13495779999357	23	1.15	False	"[-0.07407407407407407, -0.07407407407407407, -0.07407407407407407, -0.07407407407407407, -0.07407407407407407, -0.07407407407407407, -0.07407407407407407, -0.07407407407407407, -0.07407407407407407, -0.07407407407407407, -0.07407407407407407, -0.07407407407407407, -0.07407407407407407, -0.07407407407407407, -0.07407407407407407, -0.07407407407407407, -0.07407407407407407, -0.07407407407407407, -0.07407407407407407, -0.07407407407407407, -0.07407407407407407, -0.07407407407407407, -0.07407407407407407, -0.07407407407407407]"	"[-0.37592592592592594, -0.37592592592592594, -0.37592592592592594, -0.37592592592592594, -0.37592592592592594, -0.37592592592592594, -0.37592592592592594, -0.37592592592592594, -0.37592592592592594, -0.37592592592592594, -0.37592592592592594, -0.37592592592592594, -0.37592592592592594, -0.37592592592592594, -0.37592592592592594, -0.37592592592592594, -0.37592592592592594, -0.37592592592592594, -0.37592592592592594, -0.37592592592592594, -0.37592592592592594, -0.37592592592592594, -0.37592592592592594, -0.37592592592592594]"	"[1, 1, 1, 1, 1, 1, 1, 1, 1, 1, 1, 1, 1, 1, 1, 1, 1, 1, 1, 1, 1, 1, 1, 0]"	"[0, 0, 0, 0, 0, 0, 0, 0, 0, 0, 0, 0, 0, 0, 0, 0, 0, 0, 0, 0, 0, 0, 0, 0]"	"[0, 0, 0, 0, 0, 0, 0, 0, 0, 0, 0, 0, 0, 0, 0, 0, 0, 0, 0, 0, 0, 0, 0, 1]"	"[0.43400880000262987, 0.6421750000008615, 0.8421780000062427, 1.017333800002234, 1.2173501000070246, 1.4090609999984736, 1.5757355999958236, 1.7590502000093693, 1.9507146999967517, 2.1591269000055036, 2.367422900002566, 2.567430900002364, 2.7591412000037963, 2.950795900003868, 3.134233300006599, 3.3341797000030056, 3.550879000002169, 3.7758969999995315, 4.059135400006198, 4.284118299998227, 4.517452500003856, 4.7091193000087515, 4.900775200003409, 5.600975599998492]"	24	"[0.4307832999911625, 0.6389506999985315, 0.8389462999912212, 1.0141075999999885, 1.214119500000379, 1.405835500001558, 1.5725226999929873, 1.7558221999934176, 1.9474851999984821, 2.1558984000002965, 2.3641937999927904, 2.564208999989205, 2.7559122999955434, 2.947567600000184, 3.131005000002915, 3.3309509999962756, 3.5476507999992464, 3.772666399992886, 4.05590900000243, 4.280895199990482, 4.514228000000003, 4.705887899996014, 4.89754439999524, 5.597685499989893]"	"[0.5470932000025641, 0.7387756999960402, 0.9221274000010453, 1.1388003999891225, 1.313823999997112, 1.4888191999925766, 1.6805163999961223, 1.8805349999893224, 2.0638672999921255, 2.263877199991839, 2.455556799992337, 2.6640684000012698, 2.865287399996305, 3.063991100003477, 3.263951499990071, 3.4472992999944836, 3.638983899989398, 3.8139719999890076, 4.139007899997523, 4.380696499996702, 4.597387499990873, 4.780731399994693, 4.980741499995929, 5.597689499991247]"	137.13603099998727	137.14191120000032	138.63354099998833	138.64167689999158								27	02	2024-02-19_11h15.33.478	BART_exp	2023.2.3	119.9260775613586	2024-02-19 11h15.41.695562 +0100	
balloon.png	44	0	12	12	10	138.64167689999158													138.63371929999266	138.64167689999158	138.64167689999158	138.64167689999158	138.64167689999158	138.64167689999158	0.005710199999157339	0.005710199999157339	0.005710199999157339	138.64167689999158	144.8938621999987	23	1.15	False	"[-0.07777777777777778, -0.07777777777777778, -0.07777777777777778, -0.07777777777777778, -0.07777777777777778, -0.07777777777777778, -0.07777777777777778, -0.07777777777777778, -0.07777777777777778, -0.07777777777777778, -0.07777777777777778, -0.07777777777777778, -0.07777777777777778, -0.07777777777777778, -0.07777777777777778, -0.07777777777777778, -0.07777777777777778, -0.07777777777777778, -0.07777777777777778, -0.07777777777777778, -0.07777777777777778, -0.07777777777777778, -0.07777777777777778, -0.07777777777777778]"	"[-0.37592592592592594, -0.37592592592592594, -0.37592592592592594, -0.37592592592592594, -0.37592592592592594, -0.37592592592592594, -0.37592592592592594, -0.37592592592592594, -0.37592592592592594, -0.37592592592592594, -0.37592592592592594, -0.37592592592592594, -0.37592592592592594, -0.37592592592592594, -0.37592592592592594, -0.37592592592592594, -0.37592592592592594, -0.37592592592592594, -0.37592592592592594, -0.37592592592592594, -0.37592592592592594, -0.37592592592592594, -0.37592592592592594, -0.37592592592592594]"	"[1, 1, 1, 1, 1, 1, 1, 1, 1, 1, 1, 1, 1, 1, 1, 1, 1, 1, 1, 1, 1, 1, 1, 0]"	"[0, 0, 0, 0, 0, 0, 0, 0, 0, 0, 0, 0, 0, 0, 0, 0, 0, 0, 0, 0, 0, 0, 0, 0]"	"[0, 0, 0, 0, 0, 0, 0, 0, 0, 0, 0, 0, 0, 0, 0, 0, 0, 0, 0, 0, 0, 0, 0, 1]"	"[0.5921451000031084, 0.8171059000014793, 1.0171854000072926, 1.2171269999962533, 1.3920358000032138, 1.5753703000082169, 1.767171800005599, 1.9420680000039283, 2.125442699994892, 2.292401800004882, 2.458937200004584, 2.7337992999964627, 2.9340354000014486, 3.1089806999953, 3.292300900007831, 3.475712100000237, 3.684017200008384, 3.892407200008165, 4.084050200006459, 4.525772900000447, 4.875763700008974, 5.209087199997157, 5.742343300007633, 6.259222100008628]"	24	"[0.5903141000017058, 0.8152740999939851, 1.0153576999873621, 1.2152989999885904, 1.390207399992505, 1.573541199992178, 1.7653358999959892, 1.940238600000157, 2.123610999988159, 2.2905740999995032, 2.45710689999396, 2.7319685999973444, 2.9322035999939544, 3.107146599999396, 3.290471999993315, 3.4738803999935044, 3.682193599990569, 3.890577599988319, 4.082220199998119, 4.523947399997269, 4.873935799987521, 5.207254900000407, 5.740514799996163, 6.257328199993935]"	"[0.7566894999908982, 0.9233473999920534, 1.1067247999890242, 1.2983951999922283, 1.4817074999882607, 1.6734022999880835, 1.8650725999905262, 2.0317734999989625, 2.1984683999908157, 2.3817926999909105, 2.6067933000013, 2.824895799989463, 3.006845500000054, 3.1902567999932216, 3.381845500000054, 3.5818556000012904, 3.7651971000013873, 3.9735946000000695, 4.181889899991802, 4.60694230000081, 4.981957299998612, 5.315309300000081, 5.8321085999923525, 6.257332299996051]"	144.8951878999942	144.90048059998662	146.39239090000046	146.40053369999805								27	02	2024-02-19_11h15.33.478	BART_exp	2023.2.3	119.9260775613586	2024-02-19 11h15.41.695562 +0100	
balloon.png	75	0	13	13	17	146.40053369999805													146.3925648999866	146.40053369999805	146.40053369999805	146.40053369999805	146.40053369999805	146.40053369999805	0.005406099997344427	0.005406099997344427	0.005406099997344427	146.40053369999805	150.5440615999978	17	0.85	False	"[-0.07777777777777778, -0.07777777777777778, -0.07777777777777778, -0.07777777777777778, -0.07777777777777778, -0.07777777777777778, -0.07777777777777778, -0.07777777777777778, -0.07777777777777778, -0.07777777777777778, -0.07777777777777778, -0.07777777777777778, -0.07777777777777778, -0.07777777777777778, -0.07777777777777778, -0.07777777777777778, -0.07777777777777778, -0.07777777777777778]"	"[-0.37592592592592594, -0.37592592592592594, -0.37592592592592594, -0.37592592592592594, -0.37592592592592594, -0.37592592592592594, -0.37592592592592594, -0.37592592592592594, -0.37592592592592594, -0.37592592592592594, -0.37592592592592594, -0.37592592592592594, -0.37592592592592594, -0.37592592592592594, -0.37592592592592594, -0.37592592592592594, -0.37592592592592594, -0.37592592592592594]"	"[1, 1, 1, 1, 1, 1, 1, 1, 1, 1, 1, 1, 1, 1, 1, 1, 1, 0]"	"[0, 0, 0, 0, 0, 0, 0, 0, 0, 0, 0, 0, 0, 0, 0, 0, 0, 0]"	"[0, 0, 0, 0, 0, 0, 0, 0, 0, 0, 0, 0, 0, 0, 0, 0, 0, 1]"	"[0.39216180000221357, 0.5754278000094928, 0.7670307000080356, 0.9670533000025898, 1.1670727000018815, 1.2922322000085842, 1.4755835000105435, 1.6588623999996344, 1.8506522000097902, 2.042082500003744, 2.233894400007557, 2.4337762000068324, 2.6019456000067294, 2.8004727000079583, 3.0004999000084354, 3.1838677000050666, 3.3671850000100676, 4.150577400010661]"	18	"[0.3902617999992799, 0.5735292000026675, 0.7651201999979094, 0.9651413000101456, 1.1651625000085915, 1.2903163000009954, 1.473669200000586, 1.6569518000032986, 1.8487418000004254, 2.0401668999984395, 2.2319884000025922, 2.4318657999974675, 2.6002007000060985, 2.798559800008661, 2.9985906000074465, 3.181955400010338, 3.3652688000001945, 4.148606000002474]"	"[0.498405600010301, 0.7151661000098102, 0.8900155000010272, 1.0649688999983482, 1.2483030000003055, 1.4067450000002282, 1.5900190000102157, 1.7733567000104813, 1.9650160000019241, 2.1484983999980614, 2.331732300008298, 2.5319787000044016, 2.723399199996493, 2.8984270000073593, 3.0984730000054697, 3.281778200005647, 3.465134099998977, 4.148610500007635]"	150.54490239999723	150.55084109999007	152.04280959999596	152.05925909998768								27	02	2024-02-19_11h15.33.478	BART_exp	2023.2.3	119.9260775613586	2024-02-19 11h15.41.695562 +0100	
balloon.png	79	0	14	14	18	152.05925909998768													152.042993199997	152.05925909998768	152.05925909998768	152.05925909998768	152.05925909998768	152.05925909998768	-0.0006839999987278134	-0.0006839999987278134	-0.0006839999987278134	152.05925909998768	158.27802639998845	23	1.15	False	"[-0.07777777777777778, -0.07777777777777778, -0.07777777777777778, -0.07777777777777778, -0.07777777777777778, -0.07777777777777778, -0.07777777777777778, -0.07777777777777778, -0.07777777777777778, -0.07777777777777778, -0.07777777777777778, -0.07777777777777778, -0.07777777777777778, -0.07777777777777778, -0.07777777777777778, -0.07777777777777778, -0.07777777777777778, -0.07777777777777778, -0.07777777777777778, -0.07777777777777778, -0.07777777777777778, -0.07777777777777778, -0.07777777777777778, -0.07777777777777778]"	"[-0.37592592592592594, -0.37592592592592594, -0.37592592592592594, -0.37592592592592594, -0.37592592592592594, -0.37592592592592594, -0.37592592592592594, -0.37592592592592594, -0.37592592592592594, -0.37592592592592594, -0.37592592592592594, -0.37592592592592594, -0.37592592592592594, -0.37592592592592594, -0.37592592592592594, -0.37592592592592594, -0.37592592592592594, -0.37592592592592594, -0.37592592592592594, -0.37592592592592594, -0.37592592592592594, -0.37592592592592594, -0.37592592592592594, -0.37592592592592594]"	"[1, 1, 1, 1, 1, 1, 1, 1, 1, 1, 1, 1, 1, 1, 1, 1, 1, 1, 1, 1, 1, 1, 1, 0]"	"[0, 0, 0, 0, 0, 0, 0, 0, 0, 0, 0, 0, 0, 0, 0, 0, 0, 0, 0, 0, 0, 0, 0, 0]"	"[0, 0, 0, 0, 0, 0, 0, 0, 0, 0, 0, 0, 0, 0, 0, 0, 0, 0, 0, 0, 0, 0, 0, 1]"	"[0.24212330000591464, 0.41712090000510216, 0.6171461000049021, 0.8089045000087935, 0.993522100005066, 1.175655099999858, 1.375351499998942, 1.5753943000017898, 1.7753626000048826, 1.9837079999997513, 2.1672419999958947, 2.367098900009296, 2.5684282000001986, 2.7755772000091383, 2.9671366999973543, 3.1587833000085084, 3.350539999999455, 3.5505057999980636, 4.000711600005161, 4.217381100010243, 4.417361700005131, 4.967293299996527, 5.409124500001781, 6.234137899999041]"	24	"[0.23910890000115614, 0.41411139999399893, 0.614133099996252, 0.8058951999992132, 0.9906744000036269, 1.1726729999936651, 1.3723350999935064, 1.5723798999970313, 1.764067600000999, 1.9806930999911856, 2.1642340999969747, 2.3640950999979395, 2.5655742999952054, 2.772567699998035, 2.964124599995557, 3.1557688000029884, 3.3475312999944435, 3.5474942000000738, 3.997706299996935, 4.214365499996347, 4.414350399994873, 4.964287900002091, 5.406115299992962, 6.231060499994783]"	"[0.3554479000013089, 0.5304493000003276, 0.7138021999999182, 0.9054813999973703, 1.0971807000023546, 1.297183100003167, 1.4722081999934744, 1.6889357000036398, 1.8805674000032013, 2.088943599999766, 2.2722384999942733, 2.4889586999925086, 2.6806509000016376, 2.8890365999977803, 3.072333099989919, 3.2556380000023637, 3.422374599991599, 3.622331499995198, 4.114074299999629, 4.322501499991631, 4.489117099990835, 5.047458999993978, 5.489272099992377, 6.231064899999183]"	158.2790168999927	158.2847383999906	159.77666009998939	159.79310529999202								27	02	2024-02-19_11h15.33.478	BART_exp	2023.2.3	119.9260775613586	2024-02-19 11h15.41.695562 +0100	
balloon.png	66	0	15	15	15	159.79310529999202													159.77683740000066	159.79310529999202	159.79310529999202	159.79310529999202	159.79310529999202	159.79310529999202	-0.0009637000039219856	-0.0009637000039219856	-0.0009637000039219856	159.79310529999202	166.07857149999472	27	1.35	False	"[-0.07777777777777778, -0.07777777777777778, -0.07777777777777778, -0.07777777777777778, -0.07777777777777778, -0.07777777777777778, -0.07777777777777778, -0.07777777777777778, -0.07777777777777778, -0.07777777777777778, -0.07777777777777778, -0.07777777777777778, -0.07777777777777778, -0.07777777777777778, -0.07777777777777778, -0.07777777777777778, -0.07777777777777778, -0.07777777777777778, -0.07777777777777778, -0.07777777777777778, -0.07777777777777778, -0.07777777777777778, -0.07777777777777778, -0.07777777777777778, -0.07777777777777778, -0.07777777777777778, -0.07777777777777778, -0.07777777777777778]"	"[-0.37592592592592594, -0.37592592592592594, -0.37592592592592594, -0.37592592592592594, -0.37592592592592594, -0.37592592592592594, -0.37592592592592594, -0.37592592592592594, -0.37592592592592594, -0.37592592592592594, -0.37592592592592594, -0.37592592592592594, -0.37592592592592594, -0.37592592592592594, -0.37592592592592594, -0.37592592592592594, -0.37592592592592594, -0.37592592592592594, -0.37592592592592594, -0.37592592592592594, -0.37592592592592594, -0.37592592592592594, -0.37592592592592594, -0.37592592592592594, -0.37592592592592594, -0.37592592592592594, -0.37592592592592594, -0.37592592592592594]"	"[1, 1, 1, 1, 1, 1, 1, 1, 1, 1, 1, 1, 1, 1, 1, 1, 1, 1, 1, 1, 1, 1, 1, 1, 1, 1, 1, 0]"	"[0, 0, 0, 0, 0, 0, 0, 0, 0, 0, 0, 0, 0, 0, 0, 0, 0, 0, 0, 0, 0, 0, 0, 0, 0, 0, 0, 0]"	"[0, 0, 0, 0, 0, 0, 0, 0, 0, 0, 0, 0, 0, 0, 0, 0, 0, 0, 0, 0, 0, 0, 0, 0, 0, 0, 0, 1]"	"[0.32547290000366047, 0.5004786999925273, 0.6921234000037657, 0.884018600001582, 1.0754766000027303, 1.2504669000045396, 1.43379090000235, 1.6338189999951283, 1.8170656000002054, 2.0170502999972086, 2.2170851999981096, 2.417059600003995, 2.6004083000007086, 2.7587895000033313, 2.959129800001392, 3.1671694999968167, 3.342143699992448, 3.5338362000038614, 3.7172595000010915, 3.9008456000010483, 4.075673400002415, 4.27568710000196, 4.4592836999945575, 4.6674112000036985, 4.859091599995736, 5.075743599998532, 5.700803500003531, 6.3008066000038525]"	28	"[0.3161685000086436, 0.49118180001096334, 0.6828202000033343, 0.8747127000096953, 1.066176500011352, 1.2411602000065614, 1.4244853999989573, 1.6245189000037499, 1.8077642999996897, 2.007742200003122, 2.2077785000001313, 2.4077548000059323, 2.5911032000003615, 2.749487200009753, 2.949835000006715, 3.1578621000080602, 3.332834600005299, 3.524528100009775, 3.707954299999983, 3.8915381000115303, 4.06636620000063, 4.266382400004659, 4.4499775000003865, 4.658110000003944, 4.849789600004442, 5.066438200010452, 5.691501100009191, 6.291438300002483]"	"[0.41581040000892244, 0.607534000009764, 0.7991706000029808, 0.9826998000062304, 1.1492075999994995, 1.3577033000037773, 1.5408950000128243, 1.7325800000107847, 1.9242776000028243, 2.115928700004588, 2.29928610000934, 2.4827496000070823, 2.674300400001812, 2.857685200011474, 3.0577008000109345, 3.2160124000074575, 3.4244722000003094, 3.607826400009799, 3.7827107000048272, 3.9827265000058105, 4.157770600009826, 4.324444700003369, 4.549450700011221, 4.741106200002832, 4.94109560000652, 5.124480600003153, 5.791212500000256, 6.291442600006121]"	166.0795941999968	166.08520839999255	167.5771670999966	167.58534099999815								27	02	2024-02-19_11h15.33.478	BART_exp	2023.2.3	119.9260775613586	2024-02-19 11h15.41.695562 +0100	
balloon.png	92	0	16	16	21	167.58534099999815													167.5773424999934	167.58534099999815	167.58534099999815	167.58534099999815	167.58534099999815	167.58534099999815	0.00581160000001546	0.00581160000001546	0.00581160000001546	167.58534099999815	176.3291167999996	35	1.75	False	"[-0.07777777777777778, -0.07777777777777778, -0.07777777777777778, -0.07685185185185185, -0.07592592592592592, -0.07592592592592592, -0.07592592592592592, -0.07592592592592592, -0.07592592592592592, -0.07592592592592592, -0.07592592592592592, -0.07592592592592592, -0.07592592592592592, -0.07592592592592592, -0.07592592592592592, -0.07592592592592592, -0.07592592592592592, -0.07592592592592592, -0.07592592592592592, -0.07592592592592592, -0.07592592592592592, -0.07592592592592592, -0.07592592592592592, -0.07592592592592592, -0.07592592592592592, -0.07592592592592592, -0.07592592592592592, -0.07592592592592592, -0.07592592592592592, -0.07592592592592592, -0.07592592592592592, -0.07592592592592592, -0.07592592592592592, -0.07592592592592592, -0.07592592592592592, -0.07592592592592592]"	"[-0.37592592592592594, -0.37592592592592594, -0.37592592592592594, -0.37592592592592594, -0.37592592592592594, -0.37592592592592594, -0.37592592592592594, -0.37592592592592594, -0.37592592592592594, -0.37592592592592594, -0.37592592592592594, -0.37592592592592594, -0.37592592592592594, -0.37592592592592594, -0.37592592592592594, -0.37592592592592594, -0.37592592592592594, -0.37592592592592594, -0.37592592592592594, -0.37592592592592594, -0.37592592592592594, -0.37592592592592594, -0.37592592592592594, -0.37592592592592594, -0.37592592592592594, -0.37592592592592594, -0.37592592592592594, -0.37592592592592594, -0.37592592592592594, -0.37592592592592594, -0.37592592592592594, -0.37592592592592594, -0.37592592592592594, -0.37592592592592594, -0.37592592592592594, -0.37592592592592594]"	"[1, 1, 1, 1, 1, 1, 1, 1, 1, 1, 1, 1, 1, 1, 1, 1, 1, 1, 1, 1, 1, 1, 1, 1, 1, 1, 1, 1, 1, 1, 1, 1, 1, 1, 1, 0]"	"[0, 0, 0, 0, 0, 0, 0, 0, 0, 0, 0, 0, 0, 0, 0, 0, 0, 0, 0, 0, 0, 0, 0, 0, 0, 0, 0, 0, 0, 0, 0, 0, 0, 0, 0, 0]"	"[0, 0, 0, 0, 0, 0, 0, 0, 0, 0, 0, 0, 0, 0, 0, 0, 0, 0, 0, 0, 0, 0, 0, 0, 0, 0, 0, 0, 0, 0, 0, 0, 0, 0, 0, 1]"	"[0.3669896999927005, 0.5503636999928858, 0.7503292999899713, 0.9422195999941323, 1.108875199992326, 1.3088597000023583, 1.4922241999884136, 1.675603499999852, 1.885386900001322, 2.067251100001158, 2.2589335999946343, 2.492300799989607, 2.7006269999983488, 2.89229720000003, 3.1173171999980696, 3.3089972000016132, 3.4923625999945216, 3.6841972999973223, 3.8840488999994704, 4.067392799988738, 4.250726799989934, 4.442386599999736, 4.642462399991928, 4.842513299998245, 5.017440800002078, 5.22586500000034, 5.409093700000085, 5.609155300000566, 5.817478299999493, 6.000682899990352, 6.209176099990145, 6.425891599996248, 6.6425459000020055, 6.809205199999269, 8.242839400001685, 8.750856799990288]"	36	"[0.36516450000635814, 0.5485369000089122, 0.7485054999997374, 0.9403959000046598, 1.1070514000020921, 1.3070410000073025, 1.4903993000043556, 1.6737802999996347, 1.883734800008824, 2.0654260000010254, 2.2571120000066003, 2.4904747000109637, 2.6988011000066763, 2.8904748000059044, 3.115499200008344, 3.307177300011972, 3.4905437999987043, 3.6823779000114882, 3.882225200009998, 4.065569600003073, 4.248906500011799, 4.440560800008825, 4.640640400000848, 4.840692900004797, 5.015615500000422, 5.224045700000715, 5.407276500001899, 5.6073371000093175, 5.815653700003168, 5.9988535000011325, 6.207348800002364, 6.424071300003561, 6.640723900010926, 6.807381800012081, 8.241020900008152, 8.748970500004361]"	"[0.4650114000105532, 0.6400314000056824, 0.8400712000002386, 1.015119900010177, 1.2067525000020396, 1.3984144999994896, 1.5986352000036277, 1.8067616000043927, 1.990110700004152, 2.1820463000040036, 2.3984709000069415, 2.6068412000022363, 2.7985162000113633, 2.998522000008961, 3.1818746000062674, 3.3985408000007737, 3.6069195000018226, 3.790326800008188, 3.9735853000020143, 4.156948800009559, 4.356930400012061, 4.558338500006357, 4.740323000005446, 4.940441099999589, 5.132003300008364, 5.315398200007621, 5.515348400003859, 5.698752600001171, 5.8820497000124305, 6.08209410001291, 6.307077400007984, 6.523892500001239, 6.715456300007645, 6.932109200002742, 8.298954900004901, 8.748975000009523]"	176.33027839999704	176.33593409998866	177.82785779998812	177.83599149998918								27	02	2024-02-19_11h15.33.478	BART_exp	2023.2.3	119.9260775613586	2024-02-19 11h15.41.695562 +0100	
balloon.png	123	0	17	17	28	177.83599149998918													177.82804139998916	177.83599149998918	177.83599149998918	177.83599149998918	177.83599149998918	177.83599149998918	0.005775400000857189	0.005775400000857189	0.005775400000857189	177.83599149998918	188.5299218	35	1.75	False	"[-0.07592592592592592, -0.07592592592592592, -0.07592592592592592, -0.07592592592592592, -0.07592592592592592, -0.07592592592592592, -0.07592592592592592, -0.07592592592592592, -0.07592592592592592, -0.07592592592592592, -0.07592592592592592, -0.07592592592592592, -0.07592592592592592, -0.07592592592592592, -0.07592592592592592, -0.07592592592592592, -0.07592592592592592, -0.07592592592592592, -0.07592592592592592, -0.07592592592592592, -0.07592592592592592, -0.07592592592592592, -0.07592592592592592, -0.07592592592592592, -0.07592592592592592, -0.07592592592592592, -0.075, -0.075, -0.075, -0.075, -0.075, -0.075, -0.075, -0.075, -0.075, -0.075]"	"[-0.37592592592592594, -0.37592592592592594, -0.37592592592592594, -0.37592592592592594, -0.37592592592592594, -0.37592592592592594, -0.37592592592592594, -0.37592592592592594, -0.37592592592592594, -0.37592592592592594, -0.37592592592592594, -0.37592592592592594, -0.37592592592592594, -0.37592592592592594, -0.37592592592592594, -0.37592592592592594, -0.37592592592592594, -0.37592592592592594, -0.37592592592592594, -0.37592592592592594, -0.37592592592592594, -0.37592592592592594, -0.37592592592592594, -0.37592592592592594, -0.37592592592592594, -0.37592592592592594, -0.375, -0.375, -0.375, -0.375, -0.375, -0.375, -0.375, -0.375, -0.375, -0.375]"	"[1, 1, 1, 1, 1, 1, 1, 1, 1, 1, 1, 1, 1, 1, 1, 1, 1, 1, 1, 1, 1, 1, 1, 1, 1, 1, 1, 1, 1, 1, 1, 1, 1, 1, 1, 0]"	"[0, 0, 0, 0, 0, 0, 0, 0, 0, 0, 0, 0, 0, 0, 0, 0, 0, 0, 0, 0, 0, 0, 0, 0, 0, 0, 0, 0, 0, 0, 0, 0, 0, 0, 0, 0]"	"[0, 0, 0, 0, 0, 0, 0, 0, 0, 0, 0, 0, 0, 0, 0, 0, 0, 0, 0, 0, 0, 0, 0, 0, 0, 0, 0, 0, 0, 0, 0, 0, 0, 0, 0, 1]"	"[0.3921711000002688, 0.5754784000018844, 0.7754972000111593, 0.9504660000093281, 1.1253574000002118, 1.3254082000057679, 1.5253955000080168, 1.7171826000121655, 1.9087619000056293, 2.100559099999373, 2.308810900009121, 2.525485700010904, 2.7339588000031654, 2.9338767000008374, 3.1004984000028344, 3.2922115000110352, 3.4838758000114467, 3.667243400006555, 3.8590613000123994, 4.067239100011648, 4.242420200011111, 4.442544300007285, 4.642428899998777, 4.834137400001055, 5.025783700009924, 5.217458700004499, 5.401022200006992, 5.659177200010163, 5.909072800001013, 6.17588790001173, 7.309121600002982, 8.684319700012566, 9.084284700002172, 9.80958100000862, 10.184531500010053, 10.700995300008799]"	36	"[0.39032349998888094, 0.573628899990581, 0.7736457999999402, 0.948613699991256, 1.1235118999902625, 1.3235598999890499, 1.5235481999989133, 1.7153337999916403, 1.906911099998979, 2.0987100999918766, 2.306961800000863, 2.5236338999966392, 2.732105799994315, 2.932035399993765, 3.09864579999703, 3.2903634999966016, 3.4820251999917673, 3.6653916999930516, 3.857230299996445, 4.065390599993407, 4.240572599999723, 4.4407514999911655, 4.640575700002955, 4.83228629999212, 5.023929899994982, 5.215608999991673, 5.399178599996958, 5.657328499990399, 5.907226399998763, 6.1740403000003425, 7.3072725999954855, 8.68247239998891, 9.082432800001698, 9.807732999994187, 10.182678099998157, 10.699085000000196]"	"[0.4983298000006471, 0.664993799990043, 0.8483698999916669, 1.0400414999894565, 1.2317020999907982, 1.4317344000010053, 1.615059799994924, 1.8234069000027375, 2.006772499997169, 2.223436699990998, 2.4234875999973156, 2.6067898999899626, 2.8068089000007603, 2.981891399991582, 3.190193899994483, 3.3736253999959445, 3.565247199992882, 3.7485328999900958, 3.948577099989052, 4.115231199990376, 4.331972899992252, 4.540294399994309, 4.723684800002957, 4.915358400001423, 5.115296099989791, 5.298647999996319, 5.5237198999966495, 5.7820071000023745, 5.990362500000629, 6.257053699999233, 7.415459199997713, 8.78229879999708, 9.173908600001596, 9.907287599999108, 10.282321899998351, 10.699089699992328]"	188.5311287999939	188.53671799998847	190.0286960999947	190.03687389999686								27	02	2024-02-19_11h15.33.478	BART_exp	2023.2.3	119.9260775613586	2024-02-19 11h15.41.695562 +0100	
balloon.png	23	0	18	18	5	190.03687389999686													190.0288690999878	190.03687389999686	190.03687389999686	190.03687389999686	190.03687389999686	190.03687389999686	0.005808200003230013	0.005808200003230013	0.005808200003230013	190.03687389999686	194.16381289999117	17	0.85	False	"[-0.07037037037037037, -0.07037037037037037, -0.07037037037037037, -0.07037037037037037, -0.07037037037037037, -0.07037037037037037, -0.07037037037037037, -0.07037037037037037, -0.07037037037037037, -0.07037037037037037, -0.07037037037037037, -0.07037037037037037, -0.07037037037037037, -0.07037037037037037, -0.07037037037037037, -0.07037037037037037, -0.07037037037037037, -0.07037037037037037]"	"[-0.38425925925925924, -0.38425925925925924, -0.38425925925925924, -0.38425925925925924, -0.38425925925925924, -0.38425925925925924, -0.38425925925925924, -0.38425925925925924, -0.38425925925925924, -0.38425925925925924, -0.38425925925925924, -0.38425925925925924, -0.38425925925925924, -0.38425925925925924, -0.38425925925925924, -0.38425925925925924, -0.38425925925925924, -0.38425925925925924]"	"[1, 1, 1, 1, 1, 1, 1, 1, 1, 1, 1, 1, 1, 1, 1, 1, 1, 0]"	"[0, 0, 0, 0, 0, 0, 0, 0, 0, 0, 0, 0, 0, 0, 0, 0, 0, 0]"	"[0, 0, 0, 0, 0, 0, 0, 0, 0, 0, 0, 0, 0, 0, 0, 0, 0, 1]"	"[0.42549499998858664, 0.6338265999947907, 0.8255304999911459, 1.0088152999960585, 1.1838384000002407, 1.3921732999879168, 1.5838968999887584, 1.7588646999938646, 1.9422782999899937, 2.1338655999861658, 2.3172652999928687, 2.492130200000247, 2.7171336999890627, 2.9256667999870842, 3.125600100000156, 3.3339883999869926, 3.5256318999890937, 4.134017499993206]"	18	"[0.4236490000039339, 0.6319841000076849, 0.8236840000026859, 1.0069679000007454, 1.1820025000051828, 1.3903260999941267, 1.5820566000038525, 1.7570159000024432, 1.9404349999967963, 2.13201719999779, 2.3154203000012785, 2.4902813999942737, 2.715290099993581, 2.923818900002516, 3.1237568000069587, 3.332143699997687, 3.523796900000889, 4.1321126999973785]"	"[0.5650015999999596, 0.7233120000018971, 0.9164835999981733, 1.1150292999955127, 1.3150972000003094, 1.5067105000052834, 1.690052599995397, 1.8734254000009969, 2.048404400004074, 2.2151747000025352, 2.3985070000053383, 2.6151027000014437, 2.8151173000078415, 3.031807100007427, 3.2401741000066977, 3.4234982000052696, 3.598506599999382, 4.132117000001017]"	194.1647130999918	194.17043159999594	195.66240929999913	195.67890039998747								27	02	2024-02-19_11h15.33.478	BART_exp	2023.2.3	119.9260775613586	2024-02-19 11h15.41.695562 +0100	
balloon.png	27	0	19	19	6	195.67890039998747													195.66258599999128	195.67890039998747	195.67890039998747	195.67890039998747	195.67890039998747	195.67890039998747	-0.0008891000034054741	-0.0008891000034054741	-0.0008891000034054741	195.67890039998747	204.23981049998838	28	1.35	True	"[-0.07037037037037037, -0.07037037037037037, -0.07037037037037037, -0.07037037037037037, -0.07037037037037037, -0.07037037037037037, -0.07037037037037037, -0.07037037037037037, -0.07037037037037037, -0.07037037037037037, -0.07037037037037037, -0.07037037037037037, -0.07037037037037037, -0.07037037037037037, -0.07037037037037037, -0.07037037037037037, -0.07037037037037037, -0.07037037037037037, -0.07037037037037037, -0.07037037037037037, -0.07037037037037037, -0.07037037037037037, -0.07037037037037037, -0.07037037037037037, -0.07037037037037037, -0.07037037037037037, -0.07037037037037037, -0.07037037037037037]"	"[-0.39444444444444443, -0.39444444444444443, -0.39444444444444443, -0.39444444444444443, -0.39444444444444443, -0.39444444444444443, -0.39444444444444443, -0.39444444444444443, -0.39444444444444443, -0.39444444444444443, -0.39444444444444443, -0.39444444444444443, -0.39444444444444443, -0.39444444444444443, -0.39444444444444443, -0.39444444444444443, -0.39444444444444443, -0.39444444444444443, -0.39444444444444443, -0.39444444444444443, -0.39444444444444443, -0.39444444444444443, -0.39444444444444443, -0.39444444444444443, -0.39444444444444443, -0.39444444444444443, -0.39444444444444443, -0.39444444444444443]"	"[1, 1, 1, 1, 1, 1, 1, 1, 1, 1, 1, 1, 1, 1, 1, 1, 1, 1, 1, 1, 1, 1, 1, 1, 1, 1, 1, 1]"	"[0, 0, 0, 0, 0, 0, 0, 0, 0, 0, 0, 0, 0, 0, 0, 0, 0, 0, 0, 0, 0, 0, 0, 0, 0, 0, 0, 0]"	"[0, 0, 0, 0, 0, 0, 0, 0, 0, 0, 0, 0, 0, 0, 0, 0, 0, 0, 0, 0, 0, 0, 0, 0, 0, 0, 0, 0]"	"[0.5838404000096489, 0.8254363000014564, 1.0419728999986546, 1.233661200007191, 1.443357800002559, 1.6170396000088658, 1.8337008000089554, 2.04207039999892, 2.2504312000091886, 2.4337976000097115, 2.650425100000575, 2.850449600009597, 3.0422944000019925, 3.2504713000089396, 3.4754907000024104, 3.683822400009376, 3.8671977000049083, 4.075584600010188, 4.300691500000539, 4.484074200008763, 4.692536900009145, 4.909081300007529, 5.517453400010709, 6.28414519999933, 6.467474400007632, 7.284223599999677, 7.484260700002778, 8.459153200004948]"	27	"[0.5807408999971813, 0.8223360999982106, 1.0388753000006545, 1.2305582999979379, 1.4404204999882495, 1.6139389000018127, 1.830595399995218, 2.0389699999941513, 2.247327699995367, 2.4306968999881065, 2.647326999998768, 2.8473454999912065, 3.039195399993332, 3.2473698999965563, 3.4723893999907887, 3.680718399991747, 3.8641000999923563, 4.072483399999328, 4.297589699999662, 4.480979899992235, 4.905980800001998, 5.514352799989865, 6.281044599993038, 6.464372999995248, 7.281120699990424, 7.481157799993525, 8.456054999987828]"	"[0.705384699991555, 0.922213500001817, 1.1387554999964777, 1.330478599993512, 1.52215599999181, 1.722111800001585, 1.9304685999959474, 2.1304791000002297, 2.322253599995747, 2.5305137999966973, 2.722250899998471, 2.9388910999987274, 3.16393949999474, 3.3639043000002857, 3.5639240000018617, 3.7805909999879077, 3.9889650999975856, 4.172305999993114, 4.355765899992548, 4.797462799993809, 5.005688699995517, 5.6307240999885835, 6.389115799989668, 6.572451799991541, 7.380858199991053, 7.547545299996273, 8.564302999991924]"	204.24089239999012	204.24611789999472	205.73811139998725	205.74623679999786								27	02	2024-02-19_11h15.33.478	BART_exp	2023.2.3	119.9260775613586	2024-02-19 11h15.41.695562 +0100	
balloon.png	127	0	20	20	29	205.74623679999786													205.7382937999937	205.74623679999786	205.74623679999786	205.74623679999786	205.74623679999786	205.74623679999786	0.005403900009696372			205.74623679999786	212.72360189999745	27	1.35	False	"[-0.07314814814814814, -0.07314814814814814, -0.07314814814814814, -0.07314814814814814, -0.07314814814814814, -0.07314814814814814, -0.07314814814814814, -0.07314814814814814, -0.07314814814814814, -0.07314814814814814, -0.07314814814814814, -0.07314814814814814, -0.07314814814814814, -0.07314814814814814, -0.07314814814814814, -0.07314814814814814, -0.07314814814814814, -0.07314814814814814, -0.07314814814814814, -0.07314814814814814, -0.07314814814814814, -0.07314814814814814, -0.07314814814814814, -0.07314814814814814, -0.07314814814814814, -0.07314814814814814, -0.07314814814814814, -0.07314814814814814]"	"[-0.3768518518518518, -0.3768518518518518, -0.3768518518518518, -0.3768518518518518, -0.3768518518518518, -0.3768518518518518, -0.3768518518518518, -0.3768518518518518, -0.3768518518518518, -0.3768518518518518, -0.3768518518518518, -0.3768518518518518, -0.3768518518518518, -0.3768518518518518, -0.3768518518518518, -0.3768518518518518, -0.3768518518518518, -0.3768518518518518, -0.3768518518518518, -0.3768518518518518, -0.3768518518518518, -0.3768518518518518, -0.3768518518518518, -0.3768518518518518, -0.3768518518518518, -0.3768518518518518, -0.3768518518518518, -0.3768518518518518]"	"[1, 1, 1, 1, 1, 1, 1, 1, 1, 1, 1, 1, 1, 1, 1, 1, 1, 1, 1, 1, 1, 1, 1, 1, 1, 1, 1, 0]"	"[0, 0, 0, 0, 0, 0, 0, 0, 0, 0, 0, 0, 0, 0, 0, 0, 0, 0, 0, 0, 0, 0, 0, 0, 0, 0, 0, 0]"	"[0, 0, 0, 0, 0, 0, 0, 0, 0, 0, 0, 0, 0, 0, 0, 0, 0, 0, 0, 0, 0, 0, 0, 0, 0, 0, 0, 1]"	"[0.5336210999957984, 0.7504936000041198, 0.9336633999919286, 1.1169997999968473, 1.3422174000006635, 1.5255168000003323, 1.700366799996118, 1.9087139000039315, 2.1503878999938024, 2.342236700002104, 2.508920799999032, 2.7171396000048844, 2.9255207999958657, 3.117192999998224, 3.325483599997824, 3.5171349000011105, 3.7088499999954365, 3.892188800004078, 4.117291599992313, 4.308959799993318, 4.533947799995076, 4.7338904999924125, 5.150606800001697, 5.400772099994356, 5.800821099997847, 6.06748109999171, 6.5006824000010965, 6.9843803999974625]"	28	"[0.5317214999959106, 0.7486028999992413, 0.9317627999989782, 1.1150927999988198, 1.34031810000306, 1.5236253000039142, 1.698458800005028, 1.9068090000073425, 2.148485300000175, 2.3403409000020474, 2.507022500009043, 2.7152358000021195, 2.9236169000068912, 3.1152975000004517, 3.3235827000025893, 3.5152361000073142, 3.7069464000087464, 3.890285900008166, 4.1153866999957245, 4.307064200009336, 4.532042699996964, 4.731994300003862, 5.148705300001893, 5.3988635999994585, 5.798918800006504, 6.065582299997914, 6.498777600005269, 6.982414099999005]"	"[0.6399103000003379, 0.8149532999959774, 0.9899263999977848, 1.231604900007369, 1.448542300000554, 1.6318895000003977, 1.8400094999960857, 2.056656800006749, 2.2567008000041824, 2.4317321999988053, 2.615065999998478, 2.823397800006205, 3.0234903000091435, 3.215069700003369, 3.390228300006129, 3.5819306000048527, 3.7901192999997875, 3.981785399999353, 4.198482899999362, 4.406909099998302, 4.598506000009365, 4.773529700003564, 5.248534300000756, 5.498548700008541, 5.882091100007528, 6.140275300000212, 6.5903407000005245, 6.98242190000019]"	212.724618799999	212.73002829999314	214.22202229998948	214.2301477000001								27	02	2024-02-19_11h15.33.478	BART_exp	2023.2.3	119.9260775613586	2024-02-19 11h15.41.695562 +0100	
balloon.png	5	0	21	21	1	214.2301477000001													214.22220319999906	214.2301477000001	214.2301477000001	214.2301477000001	214.2301477000001	214.2301477000001	0.005589799999142997	0.005589799999142997	0.005589799999142997	214.2301477000001	216.282151899999	6	0.25	True	"[-0.07314814814814814, -0.07314814814814814, -0.07314814814814814, -0.07314814814814814, -0.07314814814814814, -0.07314814814814814]"	"[-0.3768518518518518, -0.3768518518518518, -0.3768518518518518, -0.3768518518518518, -0.3768518518518518, -0.3768518518518518]"	"[1, 1, 1, 1, 1, 1]"	"[0, 0, 0, 0, 0, 0]"	"[0, 0, 0, 0, 0, 0]"	"[0.9338404000009177, 1.1588293999957386, 1.3588323000003584, 1.533934599996428, 1.7505563000013353, 1.9588706999929855]"	6	"[0.9319776999909664, 1.1569698999956017, 1.3569728000002215, 1.5320773999992525, 1.7486927999998443, 1.9570087000029162]"	"[1.0317101999971783, 1.2399880000011763, 1.473365099998773, 1.6650465999991866, 1.8650336999999126, 2.0483814000035636]"	216.2828986999957	216.28859759999614	217.78054929999053	217.79702969999926								27	02	2024-02-19_11h15.33.478	BART_exp	2023.2.3	119.9260775613586	2024-02-19 11h15.41.695562 +0100	
balloon.png	105	0	22	22	24	217.79702969999926													217.78073179999774	217.79702969999926	217.79702969999926	217.79702969999926	217.79702969999926	217.79702969999926	-0.0009068000072147697	-0.0009068000072147697	-0.0009068000072147697	217.79702969999926	224.0158354999876	19	0.95	False	"[-0.07314814814814814, -0.07314814814814814, -0.07314814814814814, -0.07314814814814814, -0.07314814814814814, -0.07314814814814814, -0.07314814814814814, -0.07314814814814814, -0.07314814814814814, -0.07314814814814814, -0.07314814814814814, -0.07314814814814814, -0.07314814814814814, -0.07314814814814814, -0.07314814814814814, -0.07314814814814814, -0.07314814814814814, -0.07314814814814814, -0.07314814814814814, -0.07314814814814814]"	"[-0.3768518518518518, -0.3768518518518518, -0.3768518518518518, -0.3768518518518518, -0.3768518518518518, -0.3768518518518518, -0.3768518518518518, -0.3768518518518518, -0.3768518518518518, -0.3768518518518518, -0.3768518518518518, -0.3768518518518518, -0.3768518518518518, -0.3768518518518518, -0.3768518518518518, -0.3768518518518518, -0.3768518518518518, -0.3768518518518518, -0.3768518518518518, -0.3768518518518518]"	"[1, 1, 1, 1, 1, 1, 1, 1, 1, 1, 1, 1, 1, 1, 1, 1, 1, 1, 1, 0]"	"[0, 0, 0, 0, 0, 0, 0, 0, 0, 0, 0, 0, 0, 0, 0, 0, 0, 0, 0, 0]"	"[0, 0, 0, 0, 0, 0, 0, 0, 0, 0, 0, 0, 0, 0, 0, 0, 0, 0, 0, 1]"	"[0.26699119999830145, 0.4503506000037305, 0.6504185000085272, 0.8254807000048459, 1.0088560000003781, 1.1921762999991188, 1.3671861000038916, 1.558876800001599, 1.7672681000112789, 1.9505825000087498, 2.150670800008811, 2.367262700005085, 2.575610100000631, 2.992294800002128, 3.550639900000533, 3.984044000011636, 4.6340758000005735, 5.483978600008413, 5.6506503999989945, 6.2341682000114815]"	20	"[0.2614014999999199, 0.4447515000065323, 0.6448212999966927, 0.8198816000076476, 1.00325470000098, 1.186578399996506, 1.361619100003736, 1.5532759000052465, 1.7616743999969913, 1.9449910999974236, 2.145075000007637, 2.361670199999935, 2.57001150000724, 2.9866996000055224, 3.5450445000024047, 3.9784508000011556, 4.628479300008621, 5.478377699997509, 5.645051800005604, 6.228517199997441]"	"[0.3612334000063129, 0.5362268000026233, 0.7445773000072222, 0.9196117000101367, 1.1029443000006722, 1.277959800005192, 1.4779856000095606, 1.6530058000062127, 1.8613593000045512, 2.0530650000000605, 2.2530029000045033, 2.444707800008473, 2.628081500006374, 3.0947597000049427, 3.6697701000084635, 4.0949300000065705, 4.719830100002582, 5.569966700000805, 5.736588200001279, 6.228521400000318]"	224.01679069999955	224.02245309999853	225.51443609999842	225.53922089999833								27	02	2024-02-19_11h15.33.478	BART_exp	2023.2.3	119.9260775613586	2024-02-19 11h15.41.695562 +0100	
balloon.png	49	0	23	23	11	225.53922089999833													225.5146214999986	225.53922089999833	225.53922089999833	225.53922089999833	225.53922089999833	225.53922089999833	-0.0009704999974928796	-0.0009704999974928796	-0.0009704999974928796	225.53922089999833	233.9081573000003	27	1.35	False	"[-0.07314814814814814, -0.07314814814814814, -0.07314814814814814, -0.07314814814814814, -0.07314814814814814, -0.07314814814814814, -0.07314814814814814, -0.07314814814814814, -0.07314814814814814, -0.07314814814814814, -0.07314814814814814, -0.07314814814814814, -0.07314814814814814, -0.07314814814814814, -0.07314814814814814, -0.07314814814814814, -0.07314814814814814, -0.07314814814814814, -0.07314814814814814, -0.07314814814814814, -0.07314814814814814, -0.07314814814814814, -0.07314814814814814, -0.07314814814814814, -0.07314814814814814, -0.07314814814814814, -0.07314814814814814, -0.07314814814814814]"	"[-0.3768518518518518, -0.3768518518518518, -0.3768518518518518, -0.3768518518518518, -0.3768518518518518, -0.3768518518518518, -0.3768518518518518, -0.3768518518518518, -0.3768518518518518, -0.3768518518518518, -0.3768518518518518, -0.3768518518518518, -0.3768518518518518, -0.3768518518518518, -0.3768518518518518, -0.3768518518518518, -0.3768518518518518, -0.3768518518518518, -0.3768518518518518, -0.3768518518518518, -0.3768518518518518, -0.3768518518518518, -0.3768518518518518, -0.3768518518518518, -0.3768518518518518, -0.3768518518518518, -0.3768518518518518, -0.3768518518518518]"	"[1, 1, 1, 1, 1, 1, 1, 1, 1, 1, 1, 1, 1, 1, 1, 1, 1, 1, 1, 1, 1, 1, 1, 1, 1, 1, 1, 0]"	"[0, 0, 0, 0, 0, 0, 0, 0, 0, 0, 0, 0, 0, 0, 0, 0, 0, 0, 0, 0, 0, 0, 0, 0, 0, 0, 0, 0]"	"[0, 0, 0, 0, 0, 0, 0, 0, 0, 0, 0, 0, 0, 0, 0, 0, 0, 0, 0, 0, 0, 0, 0, 0, 0, 0, 0, 1]"	"[0.5753411000041524, 0.7669595000043046, 0.9586519000004046, 1.1587396999966586, 1.3670442000002367, 1.5420532999996794, 1.7837475999986054, 1.9755147000105353, 2.183735099999467, 2.375430800006143, 2.5671033000107855, 2.7671575999993365, 2.942157199999201, 3.308811800001422, 3.933937599998899, 4.167271199999959, 4.400853400002234, 4.609079100002418, 4.792383300009533, 5.009107899997616, 5.217505300010089, 5.40917559999798, 5.609135400009109, 7.159099800002878, 7.325744300003862, 7.767449400009355, 7.96748390000721, 8.392625300009968]"	28	"[0.5637203999940539, 0.7553351999958977, 0.9470331000047736, 1.1471161999943433, 1.3554210000002058, 1.5304271999921184, 1.7721273999923142, 1.9638942000019597, 2.1721110999933444, 2.3638063999969745, 2.555478199996287, 2.7555374999938067, 2.930535299994517, 3.2971879999968223, 3.922319499994046, 4.15564739999536, 4.389235399998142, 4.5974622999929124, 4.780763499991735, 4.997488699998939, 5.205882499998552, 5.397559699995327, 5.597516099995119, 7.147480200001155, 7.314122900002985, 7.75582679999934, 7.955863499999396, 8.380942299991148]"	"[0.663537999993423, 0.8468791999912355, 1.038580299995374, 1.2302579999959562, 1.4052760000049602, 1.6469456000049831, 1.8637162999948487, 2.0636292999988655, 2.247009700004128, 2.446991299992078, 2.63038570000208, 2.8220297999941977, 3.005425800001831, 3.405402899996261, 4.022164199996041, 4.25546289999329, 4.463792399998056, 4.663806900003692, 4.89715960000467, 5.088836599999922, 5.272182200002135, 5.463850200001616, 5.713875599991297, 7.230686599999899, 7.422328300002846, 7.83913510000275, 8.005689099998563, 8.380946699995548]"	233.90929799999867	233.91479669998807	235.4067778999888	235.41489409998758								27	02	2024-02-19_11h15.33.478	BART_exp	2023.2.3	119.9260775613586	2024-02-19 11h15.41.695562 +0100	
balloon.png	110	0	24	24	25	235.41489409998758													235.40695520000008	235.41489409998758	235.41489409998758	235.41489409998758	235.41489409998758	235.41489409998758	0.00565679999999702	0.00565679999999702	0.00565679999999702	235.41489409998758	247.8422572999989	41	2.05	False	"[-0.07222222222222222, -0.07222222222222222, -0.07222222222222222, -0.07222222222222222, -0.07222222222222222, -0.07222222222222222, -0.07222222222222222, -0.07222222222222222, -0.07222222222222222, -0.07222222222222222, -0.07222222222222222, -0.07222222222222222, -0.07222222222222222, -0.07222222222222222, -0.07222222222222222, -0.07222222222222222, -0.07222222222222222, -0.07222222222222222, -0.07222222222222222, -0.07222222222222222, -0.07222222222222222, -0.07222222222222222, -0.07222222222222222, -0.07222222222222222, -0.07222222222222222, -0.07222222222222222, -0.07222222222222222, -0.07222222222222222, -0.07222222222222222, -0.07222222222222222, -0.07222222222222222, -0.07222222222222222, -0.07222222222222222, -0.07222222222222222, -0.07222222222222222, -0.07222222222222222, -0.07222222222222222, -0.07222222222222222, -0.07222222222222222, -0.07222222222222222, -0.07222222222222222, -0.07222222222222222]"	"[-0.3768518518518518, -0.3768518518518518, -0.3768518518518518, -0.3768518518518518, -0.3768518518518518, -0.3768518518518518, -0.3768518518518518, -0.3768518518518518, -0.3768518518518518, -0.3768518518518518, -0.3768518518518518, -0.3768518518518518, -0.3768518518518518, -0.3768518518518518, -0.3768518518518518, -0.3768518518518518, -0.3768518518518518, -0.3768518518518518, -0.3768518518518518, -0.3768518518518518, -0.3768518518518518, -0.3768518518518518, -0.3768518518518518, -0.3768518518518518, -0.3768518518518518, -0.3768518518518518, -0.3768518518518518, -0.3768518518518518, -0.3768518518518518, -0.3768518518518518, -0.3768518518518518, -0.3768518518518518, -0.3768518518518518, -0.3768518518518518, -0.3768518518518518, -0.3768518518518518, -0.3768518518518518, -0.3768518518518518, -0.3768518518518518, -0.3768518518518518, -0.3768518518518518, -0.3768518518518518]"	"[1, 1, 1, 1, 1, 1, 1, 1, 1, 1, 1, 1, 1, 1, 1, 1, 1, 1, 1, 1, 1, 1, 1, 1, 1, 1, 1, 1, 1, 1, 1, 1, 1, 1, 1, 1, 1, 1, 1, 1, 1, 0]"	"[0, 0, 0, 0, 0, 0, 0, 0, 0, 0, 0, 0, 0, 0, 0, 0, 0, 0, 0, 0, 0, 0, 0, 0, 0, 0, 0, 0, 0, 0, 0, 0, 0, 0, 0, 0, 0, 0, 0, 0, 0, 0]"	"[0, 0, 0, 0, 0, 0, 0, 0, 0, 0, 0, 0, 0, 0, 0, 0, 0, 0, 0, 0, 0, 0, 0, 0, 0, 0, 0, 0, 0, 0, 0, 0, 0, 0, 0, 0, 0, 0, 0, 0, 0, 1]"	"[0.5171460999990813, 0.7087854999990668, 1.0336958999978378, 1.2586929999961285, 1.450365700002294, 1.6338828000007197, 1.8171383000008063, 2.0254109999950742, 2.2087587999994867, 2.392250300006708, 2.5921619000000646, 2.7673232999950415, 2.9589854999940144, 3.1422849999944447, 3.333991099993, 3.5506736999959685, 3.934053100005258, 4.242219000007026, 4.484041500007152, 4.68408599999384, 4.892410900007235, 5.100757099993643, 5.309108400004334, 5.5424936000054, 5.750866600006702, 5.967529600005946, 6.192372399993474, 6.392359300007229, 6.592512599992915, 6.792587400006596, 6.992524300003424, 7.192424199995003, 7.425769599998603, 7.642477600005805, 8.534409900006722, 9.117699900001753, 9.325967600001604, 9.784253399993759, 9.967762500004028, 10.951193700006115, 11.151153700004215, 12.434414500006824]"	42	"[0.5152861999958986, 0.7069139999948675, 1.0318345999985468, 1.2568203999981051, 1.4484962999995332, 1.6320084999897517, 1.8152658000035444, 2.023542599999928, 2.20688679999148, 2.3903773999918485, 2.5902931000018725, 2.7654599999950733, 2.9571129999967525, 3.140412599997944, 3.332122399995569, 3.548807200000738, 3.9321927999990294, 4.240349599989713, 4.482167099995422, 4.682215199994971, 4.890545799993561, 5.098884299994097, 5.307236199994804, 5.540621499996632, 5.748998399998527, 5.965663800001494, 6.190501399993082, 6.390490799996769, 6.590641399991, 6.79072509999969, 6.9906581999966875, 7.190554399989196, 7.423898099994403, 7.640609699999914, 8.5325412999955, 9.115833599993493, 9.324098400000366, 9.782384499994805, 9.965896900001098, 10.94934039999498, 11.14928109999164, 12.432482799995341]"	"[0.6816271999996388, 0.8899565000028815, 1.1233014000026742, 1.3483302999957232, 1.5316900000034366, 1.7400495999900158, 1.915032599994447, 2.106754299995373, 2.306742300002952, 2.4900778000010177, 2.6650855999905616, 2.8484345999895595, 3.040173000001232, 3.2401319999917177, 3.456805699999677, 3.640255399994203, 4.090181699997629, 4.365199099993333, 4.565254000001005, 4.781925299990689, 4.990245299995877, 5.1986137999920174, 5.415331399999559, 5.632010799992713, 5.840299899995443, 6.0569676000013715, 6.273668699999689, 6.465346800003317, 6.657012900002883, 6.8653886999964016, 7.073734699995839, 7.315388100003474, 7.523751999993692, 7.732120400003623, 8.640520899993135, 9.21692659999826, 9.382209000003058, 9.848912499990547, 10.023910599993542, 11.032454899992445, 11.232385399998748, 12.432487199999741]"	247.84357269998873	247.84906419999606	249.3410511999973	249.34918919998745								27	02	2024-02-19_11h15.33.478	BART_exp	2023.2.3	119.9260775613586	2024-02-19 11h15.41.695562 +0100	
balloon.png	118	0	25	25	27	249.34918919998745													249.34123239999462	249.34918919998745	249.34918919998745	249.34918919998745	249.34918919998745	249.34918919998745	0.005685900003300048	0.005685900003300048	0.005685900003300048	249.34918919998745	257.1347146999906	31	1.55	False	"[-0.07222222222222222, -0.07222222222222222, -0.07222222222222222, -0.07222222222222222, -0.07222222222222222, -0.07222222222222222, -0.07222222222222222, -0.07222222222222222, -0.07222222222222222, -0.07222222222222222, -0.07222222222222222, -0.07222222222222222, -0.07222222222222222, -0.07222222222222222, -0.07222222222222222, -0.07222222222222222, -0.07222222222222222, -0.07222222222222222, -0.07222222222222222, -0.07222222222222222, -0.07222222222222222, -0.07222222222222222, -0.07222222222222222, -0.07222222222222222, -0.07222222222222222, -0.07222222222222222, -0.07222222222222222, -0.07222222222222222, -0.07222222222222222, -0.07222222222222222, -0.07222222222222222, -0.07222222222222222]"	"[-0.3768518518518518, -0.3768518518518518, -0.3768518518518518, -0.3768518518518518, -0.3768518518518518, -0.3768518518518518, -0.3768518518518518, -0.3768518518518518, -0.3768518518518518, -0.3768518518518518, -0.3768518518518518, -0.3768518518518518, -0.3768518518518518, -0.3768518518518518, -0.3768518518518518, -0.3768518518518518, -0.3768518518518518, -0.3768518518518518, -0.3768518518518518, -0.3768518518518518, -0.3768518518518518, -0.3768518518518518, -0.3768518518518518, -0.3768518518518518, -0.3768518518518518, -0.3768518518518518, -0.3768518518518518, -0.3768518518518518, -0.3768518518518518, -0.3768518518518518, -0.3768518518518518, -0.3768518518518518]"	"[1, 1, 1, 1, 1, 1, 1, 1, 1, 1, 1, 1, 1, 1, 1, 1, 1, 1, 1, 1, 1, 1, 1, 1, 1, 1, 1, 1, 1, 1, 1, 0]"	"[0, 0, 0, 0, 0, 0, 0, 0, 0, 0, 0, 0, 0, 0, 0, 0, 0, 0, 0, 0, 0, 0, 0, 0, 0, 0, 0, 0, 0, 0, 0, 0]"	"[0, 0, 0, 0, 0, 0, 0, 0, 0, 0, 0, 0, 0, 0, 0, 0, 0, 0, 0, 0, 0, 0, 0, 0, 0, 0, 0, 0, 0, 0, 0, 1]"	"[0.47529769998800475, 0.6503090999904089, 0.883704799998668, 1.1173195999872405, 1.3171455999981845, 1.525338899999042, 1.7171498999960022, 1.9170470999961253, 2.1338868999882834, 2.333879199999501, 2.533902399998624, 2.71722169998975, 2.9255958999856375, 3.1102058999967994, 3.325608999992255, 3.5341146999999182, 3.7423891999933403, 3.942343199989409, 4.192441299994243, 4.400722799997311, 4.63524599999073, 4.842244299987215, 5.075583799989545, 5.3006099999911385, 5.517442799988203, 5.734150599993882, 5.959181599988369, 6.167523499985691, 6.375837899991893, 6.584231399989221, 6.7842180999869015, 7.792582299996866]"	32	"[0.4734254999930272, 0.6484401999914553, 0.8818443999916781, 1.1154629999946337, 1.315276699999231, 1.5234668999910355, 1.715283500001533, 1.915173599991249, 2.132013599999482, 2.3320070000045234, 2.5320306999929016, 2.715353399995365, 2.92372219999379, 3.1084915999963414, 3.323739300001762, 3.5322448999941116, 3.740518399994471, 3.940479199998663, 4.190571200000704, 4.398850900004618, 4.633536800000002, 4.84037370000442, 5.073707599993213, 5.298735100004706, 5.5155741999915335, 5.732277499992051, 5.95730929999263, 6.165657099991222, 6.373966999992263, 6.582364699992468, 6.782350499997847, 7.790647899993928]"	"[0.5732724999979837, 0.7399379999988014, 1.0316786000039428, 1.2484514999960084, 1.448318399998243, 1.6483602999942377, 1.831695300003048, 2.0151926999969874, 2.2483700000011595, 2.4401132999919355, 2.6150964999978896, 2.80675180000253, 3.0067622999922605, 3.2067886000004364, 3.431790499991621, 3.6154595999978483, 3.8151494000048842, 4.08183559999452, 4.323520499994629, 4.5152387999987695, 4.740209499999764, 4.956913300004089, 5.181948800003738, 5.406940999993822, 5.623609799993574, 5.840290599997388, 6.065370800002711, 6.27364509999461, 6.4737558999913745, 6.673695599994971, 6.865369599996484, 7.790652099996805]"	257.1358204999997	257.14136609999696	258.6333162999945	258.64150129999325								27	02	2024-02-19_11h15.33.478	BART_exp	2023.2.3	119.9260775613586	2024-02-19 11h15.41.695562 +0100	
balloon.png	84	0	26	26	19	258.64150129999325													258.6334964999987	258.64150129999325	258.64150129999325	258.64150129999325	258.64150129999325	258.64150129999325	0.005741299988585524	0.005741299988585524	0.005741299988585524	258.64150129999325	265.3351829999883	25	1.25	False	"[-0.07222222222222222, -0.07222222222222222, -0.07222222222222222, -0.07222222222222222, -0.07222222222222222, -0.07222222222222222, -0.07222222222222222, -0.07222222222222222, -0.07222222222222222, -0.07222222222222222, -0.07222222222222222, -0.07222222222222222, -0.07222222222222222, -0.07222222222222222, -0.07222222222222222, -0.07222222222222222, -0.07222222222222222, -0.07222222222222222, -0.07222222222222222, -0.07222222222222222, -0.07222222222222222, -0.07222222222222222, -0.07222222222222222, -0.07222222222222222, -0.07222222222222222, -0.07222222222222222]"	"[-0.3768518518518518, -0.3768518518518518, -0.3768518518518518, -0.3768518518518518, -0.3768518518518518, -0.3768518518518518, -0.3768518518518518, -0.3768518518518518, -0.3768518518518518, -0.3768518518518518, -0.3768518518518518, -0.3768518518518518, -0.3768518518518518, -0.3768518518518518, -0.3768518518518518, -0.3768518518518518, -0.3768518518518518, -0.3768518518518518, -0.3768518518518518, -0.3768518518518518, -0.3768518518518518, -0.3768518518518518, -0.3768518518518518, -0.3768518518518518, -0.3768518518518518, -0.3768518518518518]"	"[1, 1, 1, 1, 1, 1, 1, 1, 1, 1, 1, 1, 1, 1, 1, 1, 1, 1, 1, 1, 1, 1, 1, 1, 1, 0]"	"[0, 0, 0, 0, 0, 0, 0, 0, 0, 0, 0, 0, 0, 0, 0, 0, 0, 0, 0, 0, 0, 0, 0, 0, 0, 0]"	"[0, 0, 0, 0, 0, 0, 0, 0, 0, 0, 0, 0, 0, 0, 0, 0, 0, 0, 0, 0, 0, 0, 0, 0, 0, 1]"	"[0.600521000000299, 0.7837110999971628, 0.9920145999931265, 1.1753743000008399, 1.3587199999892619, 1.567059099994367, 1.7670843999949284, 1.9675303999974858, 2.1600867999950424, 2.3587840999971377, 2.5423789999913424, 2.7588586999918334, 2.9505420999921625, 3.1754948000016157, 3.3671804999903543, 3.5588587999955053, 3.775578899992979, 3.9838877000001958, 4.192225399994641, 4.417457299990929, 4.625732000000426, 4.8341256999992765, 5.017489199992269, 5.225837699996191, 5.434205799989286, 6.700765499990666]"	26	"[0.5987076000019442, 0.7818817000079434, 0.9901745000097435, 1.1735370000096736, 1.3568782000074862, 1.5652197000017622, 1.7652449000015622, 1.9658600999973714, 2.15841580000415, 2.3569462000014028, 2.5405385000049137, 2.7570263000088744, 2.948698799998965, 3.1736593000096036, 3.3653391000116244, 3.5570186999975704, 3.7737367000081576, 3.9820450999977766, 4.190381200009142, 4.415619300008984, 4.623888500005705, 4.83228620000591, 5.015648200002033, 5.224004000003333, 5.432379000005312, 6.698861600001692]"	"[0.7066612000053283, 0.8900237000052584, 1.0983731000014814, 1.2733900000021094, 1.4817174000054365, 1.6733975000097416, 1.856958400006988, 2.0651676999987103, 2.2652247000078205, 2.4817959000065457, 2.673482199999853, 2.8984887000115123, 3.0568325000058394, 3.248502600006759, 3.4568660000077216, 3.665225900011137, 3.8819751999981236, 4.081909900007304, 4.29024550000031, 4.498598700010916, 4.706949100000202, 4.923640200009686, 5.12365690000297, 5.331985000011628, 5.548869000005652, 6.698866300008376]"	265.3364419999998	265.3419389999908	266.83387849999417	266.84202009999717								27	02	2024-02-19_11h15.33.478	BART_exp	2023.2.3	119.9260775613586	2024-02-19 11h15.41.695562 +0100	
balloon.png	88	0	27	27	20	266.84202009999717													266.8340595999907	266.84202009999717	266.84202009999717	266.84202009999717	266.84202009999717	266.84202009999717	0.00563749999855645	0.00563749999855645	0.00563749999855645	266.84202009999717	275.5608300999884	33	1.65	False	"[-0.07222222222222222, -0.07222222222222222, -0.07222222222222222, -0.07222222222222222, -0.07222222222222222, -0.07222222222222222, -0.07222222222222222, -0.07222222222222222, -0.07222222222222222, -0.07222222222222222, -0.07222222222222222, -0.07222222222222222, -0.07222222222222222, -0.07222222222222222, -0.07222222222222222, -0.07222222222222222, -0.07222222222222222, -0.07222222222222222, -0.07222222222222222, -0.07222222222222222, -0.07222222222222222, -0.07222222222222222, -0.07222222222222222, -0.07222222222222222, -0.07222222222222222, -0.07222222222222222, -0.07222222222222222, -0.07222222222222222, -0.07222222222222222, -0.07222222222222222, -0.07222222222222222, -0.07222222222222222, -0.07222222222222222, -0.07222222222222222]"	"[-0.3768518518518518, -0.3768518518518518, -0.3768518518518518, -0.3768518518518518, -0.3768518518518518, -0.3768518518518518, -0.3768518518518518, -0.3768518518518518, -0.3768518518518518, -0.3768518518518518, -0.3768518518518518, -0.3768518518518518, -0.3768518518518518, -0.3768518518518518, -0.3768518518518518, -0.3768518518518518, -0.3768518518518518, -0.3768518518518518, -0.3768518518518518, -0.3768518518518518, -0.3768518518518518, -0.3768518518518518, -0.3768518518518518, -0.3768518518518518, -0.3768518518518518, -0.3768518518518518, -0.3768518518518518, -0.3768518518518518, -0.3768518518518518, -0.3768518518518518, -0.3768518518518518, -0.3768518518518518, -0.3768518518518518, -0.3768518518518518]"	"[1, 1, 1, 1, 1, 1, 1, 1, 1, 1, 1, 1, 1, 1, 1, 1, 1, 1, 1, 1, 1, 1, 1, 1, 1, 1, 1, 1, 1, 1, 1, 1, 1, 0]"	"[0, 0, 0, 0, 0, 0, 0, 0, 0, 0, 0, 0, 0, 0, 0, 0, 0, 0, 0, 0, 0, 0, 0, 0, 0, 0, 0, 0, 0, 0, 0, 0, 0, 0]"	"[0, 0, 0, 0, 0, 0, 0, 0, 0, 0, 0, 0, 0, 0, 0, 0, 0, 0, 0, 0, 0, 0, 0, 0, 0, 0, 0, 0, 0, 0, 0, 0, 0, 1]"	"[0.358732599997893, 0.5504442999954335, 0.7838669000047958, 0.9836825999955181, 1.183708700002171, 1.3920472000027075, 1.5920934000023408, 1.783755199998268, 2.000589899995248, 2.209045099996729, 2.400663899999927, 2.6005990999983624, 2.800614099993254, 3.0090112000034424, 3.2089811000041664, 3.425691900003585, 3.642429400002584, 3.859063399999286, 4.100683700002264, 4.342309400002705, 4.625864699992235, 4.859154399993713, 5.0758309999946505, 5.292316399994888, 5.592449599993415, 6.025880300003337, 6.259212399992975, 6.475944999998319, 6.684269599994877, 6.89246849999472, 7.100782299996354, 7.35079689999111, 7.56748479999078, 8.725881599995773]"	33	"[0.35689799999818206, 0.5486150000069756, 0.9818475000065519, 1.1818729000078747, 1.3902120999991894, 1.5902594000071986, 1.78191639999568, 1.998757299996214, 2.207207400002517, 2.398828000004869, 2.598765500006266, 2.7987813000072492, 3.007175599996117, 3.207145100008347, 3.4238524999964284, 3.6406029000063427, 3.857228799999575, 4.0988444999966305, 4.3404717999947025, 4.624031300001661, 4.857318199996371, 5.074000499997055, 5.290486199999577, 5.590613599997596, 6.02404230000684, 6.257380700000795, 6.474115500008338, 6.6824379000026966, 6.890634299998055, 7.098943300006795, 7.348963600001298, 7.565650500007905, 8.723981300005107]"	"[0.4901231999974698, 0.8900966000073822, 1.1067351999954553, 1.2900669000082416, 1.4984918999980437, 1.6984191999945324, 1.9068260000058217, 2.1151454000064405, 2.323488299996825, 2.5151628000021446, 2.731956400006311, 2.9235652000061236, 3.1152473999973154, 3.3320444999990286, 3.5318820999964373, 3.7402779999974882, 3.906933799997205, 4.256958800004213, 4.498703699995531, 4.74863020000339, 4.973724099996616, 5.173729300004197, 5.407046399996034, 5.71537520000129, 6.157105899997987, 6.3654416000063065, 6.582098400001996, 6.790486800004146, 6.990446800002246, 7.2404860999959055, 7.457181400008267, 7.648889500007499, 8.723985699994955]"	275.5621312000003	275.56766859999334	277.0596356999886	277.06771379998827								27	02	2024-02-19_11h15.33.478	BART_exp	2023.2.3	119.9260775613586	2024-02-19 11h15.41.695562 +0100	
balloon.png	71	0	28	28	16	277.06771379998827													277.0598170999874	277.06771379998827	277.06771379998827	277.06771379998827	277.06771379998827	277.06771379998827	0.005644699995173141	0.005644699995173141	0.005644699995173141	277.06771379998827	287.85352169998805	40	2.00	False	"[-0.07222222222222222, -0.07222222222222222, -0.07222222222222222, -0.07222222222222222, -0.07222222222222222, -0.07222222222222222, -0.07222222222222222, -0.07222222222222222, -0.07222222222222222, -0.07222222222222222, -0.07222222222222222, -0.07222222222222222, -0.07222222222222222, -0.07222222222222222, -0.07222222222222222, -0.07222222222222222, -0.07222222222222222, -0.07222222222222222, -0.07222222222222222, -0.07222222222222222, -0.07222222222222222, -0.07222222222222222, -0.07222222222222222, -0.07222222222222222, -0.07222222222222222, -0.07222222222222222, -0.07222222222222222, -0.07222222222222222, -0.07222222222222222, -0.07222222222222222, -0.07222222222222222, -0.07222222222222222, -0.07222222222222222, -0.07222222222222222, -0.07222222222222222, -0.07222222222222222, -0.07222222222222222, -0.07222222222222222, -0.07222222222222222, -0.07222222222222222, -0.07222222222222222]"	"[-0.3768518518518518, -0.3768518518518518, -0.3768518518518518, -0.3768518518518518, -0.3768518518518518, -0.3768518518518518, -0.3768518518518518, -0.3768518518518518, -0.3768518518518518, -0.3768518518518518, -0.3768518518518518, -0.3768518518518518, -0.3768518518518518, -0.3768518518518518, -0.3768518518518518, -0.3768518518518518, -0.3768518518518518, -0.3768518518518518, -0.3768518518518518, -0.3768518518518518, -0.3768518518518518, -0.3768518518518518, -0.3768518518518518, -0.3768518518518518, -0.3768518518518518, -0.3768518518518518, -0.3768518518518518, -0.3768518518518518, -0.3768518518518518, -0.3768518518518518, -0.3768518518518518, -0.3768518518518518, -0.3768518518518518, -0.3768518518518518, -0.3768518518518518, -0.3768518518518518, -0.3768518518518518, -0.3768518518518518, -0.3768518518518518, -0.3768518518518518, -0.3768518518518518]"	"[1, 1, 1, 1, 1, 1, 1, 1, 1, 1, 1, 1, 1, 1, 1, 1, 1, 1, 1, 1, 1, 1, 1, 1, 1, 1, 1, 1, 1, 1, 1, 1, 1, 1, 1, 1, 1, 1, 1, 1, 0]"	"[0, 0, 0, 0, 0, 0, 0, 0, 0, 0, 0, 0, 0, 0, 0, 0, 0, 0, 0, 0, 0, 0, 0, 0, 0, 0, 0, 0, 0, 0, 0, 0, 0, 0, 0, 0, 0, 0, 0, 0, 0]"	"[0, 0, 0, 0, 0, 0, 0, 0, 0, 0, 0, 0, 0, 0, 0, 0, 0, 0, 0, 0, 0, 0, 0, 0, 0, 0, 0, 0, 0, 0, 0, 0, 0, 0, 0, 0, 0, 0, 0, 0, 1]"	"[0.35867260000668466, 0.5502665999956662, 0.7503481000021566, 0.9589538000000175, 1.1503681000031065, 1.3420078000053763, 1.558697000000393, 1.8005143000045791, 1.9923183000064455, 2.217184000008274, 2.4088933000020916, 2.608968000000459, 2.8172844000073383, 3.042279100001906, 3.258812800006126, 3.4838572000007844, 3.8007199999992736, 4.033985500005656, 4.267174499997054, 4.500570400006836, 4.733875500009162, 4.95078120000835, 5.184057400008896, 5.417425300009199, 5.65074860000459, 5.868022199996631, 6.083947300008731, 6.3089728000049945, 6.542358200007584, 6.759142599999905, 6.950840000004973, 7.209220699995058, 7.442556800000602, 7.642710900006932, 7.825955899999826, 8.06749739999941, 8.317554699999164, 8.609295800008113, 8.959323999995831, 9.317527399995015, 10.792830000005779]"	41	"[0.35683330000028946, 0.5484248000138905, 0.7485131000139518, 0.9571164000080898, 1.1485302000073716, 1.3401639000076102, 1.5568568000016967, 1.7986742000066442, 1.9904765000101179, 2.2153407000005245, 2.407059900011518, 2.6071295000001555, 2.8154457000055118, 3.0404439000121783, 3.256968700006837, 3.4820235000079265, 3.798881500013522, 4.032142400013981, 4.265334500014433, 4.498727500002133, 4.732035900000483, 4.948942800008808, 5.182216400004108, 5.415582500005257, 5.648907500013593, 5.866346800001338, 6.082109200011473, 6.30713050000486, 6.5405160000082105, 6.757303700011107, 6.9489984000101686, 7.207378300008713, 7.440717500008759, 7.640872700008913, 7.824119200013229, 8.065657000013744, 8.31571320000512, 8.60746040000231, 8.957485700011603, 9.315689500013832, 10.790926400004537]"	"[0.4649449000135064, 0.6400343000132125, 0.848368400009349, 1.0399890000117011, 1.2566891000024043, 1.4566632000060054, 1.6733789000136312, 1.8651189000083832, 2.115057800008799, 2.3234217000135686, 2.5234206000022823, 2.7068349000037415, 2.9236040000105277, 3.1485055000084685, 3.3569186000095215, 3.6486970000114525, 3.9068443000141997, 4.1401837000012165, 4.390233400001307, 4.6068957000097726, 4.840268800006015, 5.065245800011326, 5.298663500012481, 5.5236840000143275, 5.757023500002106, 5.973667600002955, 6.1819934000086505, 6.423667700000806, 6.6403653000015765, 6.8738674000051105, 7.082044400012819, 7.3154108000017, 7.5320721000025515, 7.748756800006959, 7.957132700001239, 8.173841800002265, 8.43218980000529, 8.740503000008175, 9.023903799999971, 9.399050100008026, 10.790930500006652]"	287.85478739999235	287.86010809999425	289.35205739999947	289.3604047999979								27	02	2024-02-19_11h15.33.478	BART_exp	2023.2.3	119.9260775613586	2024-02-19 11h15.41.695562 +0100	
balloon.png	18	0	29	29	4	289.3604047999979													289.3522372999869	289.3604047999979	289.3604047999979	289.3604047999979	289.3604047999979	289.3604047999979	0.005678600005921908	0.005678600005921908	0.005678600005921908	289.3604047999979	293.445793699997	19	0.90	True	"[-0.07222222222222222, -0.07222222222222222, -0.07222222222222222, -0.07222222222222222, -0.07222222222222222, -0.07222222222222222, -0.07222222222222222, -0.07222222222222222, -0.07222222222222222, -0.07222222222222222, -0.07222222222222222, -0.07222222222222222, -0.07222222222222222, -0.07222222222222222, -0.07222222222222222, -0.07222222222222222, -0.07222222222222222, -0.07222222222222222, -0.07222222222222222]"	"[-0.3768518518518518, -0.3768518518518518, -0.3768518518518518, -0.3768518518518518, -0.3768518518518518, -0.3768518518518518, -0.3768518518518518, -0.3768518518518518, -0.3768518518518518, -0.3768518518518518, -0.3768518518518518, -0.3768518518518518, -0.3768518518518518, -0.3768518518518518, -0.3768518518518518, -0.3768518518518518, -0.3768518518518518, -0.3768518518518518, -0.3768518518518518]"	"[1, 1, 1, 1, 1, 1, 1, 1, 1, 1, 1, 1, 1, 1, 1, 1, 1, 1, 1]"	"[0, 0, 0, 0, 0, 0, 0, 0, 0, 0, 0, 0, 0, 0, 0, 0, 0, 0, 0]"	"[0, 0, 0, 0, 0, 0, 0, 0, 0, 0, 0, 0, 0, 0, 0, 0, 0, 0, 0]"	"[0.4336279999988619, 0.633771799999522, 0.8336606999946525, 1.0420214000041597, 1.217027999999118, 1.4336971000011545, 1.6337507999996888, 1.8254087999957846, 2.017119399999501, 2.2087553000019398, 2.4004252000013366, 2.6009159999957774, 2.800476100004744, 3.000479800000903, 3.200489299997571, 3.3921648999967147, 3.600556100005633, 3.8005789000017103, 3.99224239999603]"	19	"[0.43179680001048837, 0.6319365000090329, 0.8318260000087321, 1.0401989000092726, 1.2151933999994071, 1.4235654000076465, 1.6319170000060694, 1.8235792000050424, 2.0152833000029204, 2.2069250000058673, 2.398598200001288, 2.5992602000042098, 2.798651200006134, 2.9986470000003465, 3.19865690000006, 3.3903283000108786, 3.598726500000339, 3.7987437000119826, 3.990413100007572]"	"[0.5817122000007657, 0.7566959000105271, 0.9400577000051271, 1.140077400006703, 1.3400479999982053, 1.5233993000001647, 1.723414000007324, 1.9068123000033665, 2.1151489000039874, 2.298465700005181, 2.4984691999998176, 2.6984961999987718, 2.89849900000263, 3.098567000008188, 3.298566800003755, 3.498536900006002, 3.6902140000020154, 3.8735575000027893, 4.081895900002564]"	293.44664149999153	293.45222829999693	294.94413019999047	294.95226099999854								27	02	2024-02-19_11h15.33.478	BART_exp	2023.2.3	119.9260775613586	2024-02-19 11h15.41.695562 +0100	
																																														294.9441655999981	294.95226099999854	294.95226099999854	304.47001669999736	space	9.51406699999643	None	27	02	2024-02-19_11h15.33.478	BART_exp	2023.2.3	119.9260775613586	2024-02-19 11h15.41.695562 +0100	
