"image"	"max_pumps"	"pump_loop.thisRepN"	"pump_loop.thisTrialN"	"pump_loop.thisN"	"pump_loop.thisIndex"	"thisRow.t"	"notes"	"Start.started"	"text_start.started"	"continue_start.started"	"mouse_start.started"	"Start.stopped"	"mouse_start.x"	"mouse_start.y"	"mouse_start.leftButton"	"mouse_start.midButton"	"mouse_start.rightButton"	"mouse_start.time"	"trials.started"	"stim_balloon.started"	"stim_balloon_burst.started"	"stim_balloon_burst.stopped"	"text_ballon_value.started"	"text_bank.started"	"mouse.started"	"sound_bang.started"	"sound_bang.stopped"	"button_balloon.started"	"trials.stopped"	"n_pumps"	"earnings"	"popped"	"mouse.x"	"mouse.y"	"mouse.leftButton"	"mouse.midButton"	"mouse.rightButton"	"mouse.time"	"button_balloon.numClicks"	"button_balloon.timesOn"	"button_balloon.timesOff"	"Feedback.started"	"text_feedback.started"	"Feedback.stopped"	"text_feedback.stopped"	"End.started"	"text_end.started"	"key_end.started"	"End.stopped"	"key_end.keys"	"key_end.rt"	"key_end.duration"	"participant"	"session"	"date"	"expName"	"psychopyVersion"	"frameRate"	"expStart"	"...61"
NA	NA	NA	NA	NA	NA	NA	NA	0.00541510000039124	0.0200993000003109	0.0200993000003109	0.00591339999982665	1.79174310000008	"[0.6766666666666666]"	"[-0.41083333333333333]"	"[1]"	"[0]"	"[0]"	"[1.7848742000001039]"	NA	NA	NA	NA	NA	NA	NA	NA	NA	NA	NA	NA	NA	NA	NA	NA	NA	NA	NA	NA	NA	NA	NA	NA	NA	NA	NA	NA	NA	NA	NA	NA	NA	NA	"02"	"03"	"2023-12-14_13h49.07.130"	"BART_exp"	"2023.2.2"	59.9926089107209	"2023-12-14 13h49.24.572247 +0100"	NA
"balloon.png"	84	0	0	0	19	1.90292720000025	NA	NA	NA	NA	NA	NA	NA	NA	NA	NA	NA	NA	1.80360780000001	1.90292720000025	1.90292720000025	1.90292720000025	1.90292720000025	1.90292720000025	0.0144046999998864	0.0144046999998864	0.0144046999998864	1.90292720000025	6.93503340000007	24	1.2	FALSE	"[0.6766666666666666, 0.6766666666666666, -0.07083333333333333, -0.07, -0.06666666666666667, -0.06666666666666667, -0.06666666666666667, -0.06666666666666667, -0.06666666666666667, -0.06666666666666667, -0.06666666666666667, -0.06666666666666667, -0.06666666666666667, -0.06666666666666667, -0.06666666666666667, -0.06666666666666667, -0.06666666666666667, -0.06666666666666667, -0.06666666666666667, -0.06666666666666667, -0.06666666666666667, -0.06666666666666667, -0.06416666666666666, -0.058333333333333334, -0.058333333333333334, -0.058333333333333334, 0.10416666666666667]"	"[-0.41083333333333333, -0.41083333333333333, -0.3575, -0.3566666666666667, -0.3566666666666667, -0.3566666666666667, -0.3566666666666667, -0.3566666666666667, -0.3566666666666667, -0.3566666666666667, -0.3566666666666667, -0.3566666666666667, -0.3566666666666667, -0.3566666666666667, -0.3566666666666667, -0.3566666666666667, -0.3566666666666667, -0.3566666666666667, -0.3566666666666667, -0.3566666666666667, -0.3566666666666667, -0.3566666666666667, -0.3566666666666667, -0.3566666666666667, -0.3566666666666667, -0.3566666666666667, -0.04583333333333333]"	"[1, 1, 1, 1, 1, 1, 1, 1, 1, 1, 1, 1, 1, 1, 1, 1, 1, 1, 1, 1, 1, 1, 1, 1, 1, 1, 0]"	"[0, 0, 0, 0, 0, 0, 0, 0, 0, 0, 0, 0, 0, 0, 0, 0, 0, 0, 0, 0, 0, 0, 0, 0, 0, 0, 0]"	"[0, 0, 0, 0, 0, 0, 0, 0, 0, 0, 0, 0, 0, 0, 0, 0, 0, 0, 0, 0, 0, 0, 0, 0, 0, 0, 1]"	"[0.19973449999997683, 0.3664206000003105, 0.9825509000002057, 1.165639800000008, 1.3325650000001588, 1.515761300000122, 1.682158999999956, 1.8654851999999664, 2.0154348999999456, 2.1983939000001556, 2.348371000000043, 2.5149669000002177, 2.6650555999999597, 2.8315029000000322, 2.998070600000119, 3.1482107000001633, 3.3312556999999288, 3.4976630999999543, 3.664068699999916, 3.8308885000001283, 3.9974154000001363, 4.1639727000001585, 4.347095000000081, 4.530189000000064, 4.680346900000131, 4.880029200000081, 5.130054799999925]"	24	"[0.8985485999996854, 1.081638799999837, 1.2485666999996283, 1.431758599999739, 1.598165599999902, 1.7814766999999847, 1.93143579999969, 2.114380799999708, 2.264369699999861, 2.4309653999998773, 2.5810563, 2.747500999999829, 2.9140794999998434, 3.0642063999998754, 3.247242699999788, 3.413667499999974, 3.580066699999861, 3.746888399999989, 3.9134096999996473, 4.079964699999891, 4.263081300000067, 4.446193899999798, 4.596350199999961, 4.796021799999835]"	"[0.9986184999997931, 1.1649282999997013, 1.3481947999998738, 1.4979770999998436, 1.6812418999998044, 1.8310923999997613, 1.997722099999919, 2.1641998999998577, 2.330881699999736, 2.4974700999996458, 2.64729669999997, 2.8304705999998987, 2.9804411000000073, 3.1468816999999945, 3.3134502999996585, 3.49677070000007, 3.663207899999634, 3.8297677999998996, 3.9962937999998758, 4.179484399999637, 4.346062599999641, 4.4960346999996545, 4.679330899999968, 4.879125699999804]"	6.9371470000001	6.95932020000009	8.44815060000019	NA	NA	NA	NA	NA	NA	NA	NA	"02"	"03"	"2023-12-14_13h49.07.130"	"BART_exp"	"2023.2.2"	59.9926089107209	"2023-12-14 13h49.24.572247 +0100"	NA
"balloon.png"	18	0	1	1	4	8.48154760000034	NA	NA	NA	NA	NA	NA	NA	NA	NA	NA	NA	NA	8.44841650000035	8.48154760000034	8.48154760000034	8.48154760000034	8.48154760000034	8.48154760000034	0.0132343000000219	0.0132343000000219	0.0132343000000219	8.48154760000034	11.9367203000002	19	0.9	TRUE	"[-0.0075, -0.0075, -0.0075, -0.0075, -0.0075, -0.0075, -0.0075, -0.0075, -0.0075, -0.0075, -0.0075, -0.0075, -0.0075, -0.0075, -0.0075, -0.0075, -0.0075, -0.0075, -0.0075]"	"[-0.3983333333333333, -0.3983333333333333, -0.3983333333333333, -0.3983333333333333, -0.3983333333333333, -0.3983333333333333, -0.3983333333333333, -0.3983333333333333, -0.3983333333333333, -0.3983333333333333, -0.3983333333333333, -0.3983333333333333, -0.3983333333333333, -0.3983333333333333, -0.3983333333333333, -0.3983333333333333, -0.3983333333333333, -0.3983333333333333, -0.3983333333333333]"	"[1, 1, 1, 1, 1, 1, 1, 1, 1, 1, 1, 1, 1, 1, 1, 1, 1, 1, 1]"	"[0, 0, 0, 0, 0, 0, 0, 0, 0, 0, 0, 0, 0, 0, 0, 0, 0, 0, 0]"	"[0, 0, 0, 0, 0, 0, 0, 0, 0, 0, 0, 0, 0, 0, 0, 0, 0, 0, 0]"	"[0.06723849999980303, 0.23377409999966403, 0.4007389999997031, 0.5839343999996345, 0.7839214999999058, 0.9837234999999964, 1.215689999999995, 1.3835356999998112, 1.566375799999605, 1.7498802999998588, 1.933063299999958, 2.1496651999996175, 2.332832099999905, 2.515770699999848, 2.682310299999699, 2.849141099999997, 3.0157650999999532, 3.182234999999764, 3.3654679999999644]"	19	"[0.044368699999722594, 0.21089989999973113, 0.3778713000001517, 0.561061399999744, 0.7610547999997834, 0.9608656000000337, 1.192835500000001, 1.3606787999997323, 1.5435155000000123, 1.7270235999999386, 1.9102030999997623, 2.126813399999719, 2.309966700000132, 2.4929127999998855, 2.659445499999947, 2.826267200000075, 2.9929001000000426, 3.159382899999855, 3.3426048999999693]"	"[0.11088530000006358, 0.27758399999993344, 0.46072849999973187, 0.6606152999997903, 0.8772246999997151, 1.0604800000000978, 1.243733599999814, 1.4435300999998617, 1.626987999999983, 1.826529599999958, 2.0098235999998906, 2.2097773000000416, 2.393055099999856, 2.559404799999811, 2.7259272000001147, 2.908976899999743, 3.0757896999998593, 3.242409999999836, 3.4089438000000882]"	11.9380161000004	11.9518492000002	13.4447837000002	NA	NA	NA	NA	NA	NA	NA	NA	"02"	"03"	"2023-12-14_13h49.07.130"	"BART_exp"	"2023.2.2"	59.9926089107209	"2023-12-14 13h49.24.572247 +0100"	NA
"balloon.png"	31	0	2	2	7	13.4968745000001	NA	NA	NA	NA	NA	NA	NA	NA	NA	NA	NA	NA	13.4450372000001	13.4968745000001	13.4968745000001	13.4968745000001	13.4968745000001	13.4968745000001	0.00877780000018901	0.00877780000018901	0.00877780000018901	13.4968745000001	17.8113402000004	23	1.15	FALSE	"[0.01, 0.01, 0.01, 0.01, 0.01, 0.01, 0.01, 0.01, 0.01, 0.01, 0.01, 0.01, 0.01, 0.01, 0.01, 0.013333333333333334, 0.013333333333333334, 0.02666666666666667, 0.0325, 0.034166666666666665, 0.034166666666666665, 0.03166666666666667, 0.03166666666666667, 0.08833333333333333]"	"[-0.3908333333333333, -0.3908333333333333, -0.3908333333333333, -0.3908333333333333, -0.3908333333333333, -0.3908333333333333, -0.3908333333333333, -0.3908333333333333, -0.3908333333333333, -0.3908333333333333, -0.3908333333333333, -0.3908333333333333, -0.3908333333333333, -0.3908333333333333, -0.3908333333333333, -0.3908333333333333, -0.3908333333333333, -0.39416666666666667, -0.405, -0.39666666666666667, -0.39166666666666666, -0.38916666666666666, -0.38916666666666666, -0.1375]"	"[1, 1, 1, 1, 1, 1, 1, 1, 1, 1, 1, 1, 1, 1, 1, 1, 1, 1, 1, 1, 1, 1, 1, 0]"	"[0, 0, 0, 0, 0, 0, 0, 0, 0, 0, 0, 0, 0, 0, 0, 0, 0, 0, 0, 0, 0, 0, 0, 0]"	"[0, 0, 0, 0, 0, 0, 0, 0, 0, 0, 0, 0, 0, 0, 0, 0, 0, 0, 0, 0, 0, 0, 0, 1]"	"[0.20067900000003647, 0.4172696000000542, 0.5674117999997179, 0.7339555999997174, 0.9172407000000931, 1.1006373000000167, 1.2678229999996802, 1.4660862999999154, 1.6176674999996976, 1.816917999999987, 1.983315599999969, 2.13310569999976, 2.3329203999996935, 2.483133799999905, 2.6496455999999853, 2.832496099999844, 2.9989611999999397, 3.1821666000000732, 3.3653913999996803, 3.548663099999885, 3.732144799999787, 3.8986095999998724, 4.04836320000004, 4.365042200000062]"	23	"[0.15850339999997232, 0.37511880000010933, 0.5252540999999837, 0.6917910000001939, 0.8751093000000765, 1.058556899999985, 1.225761700000021, 1.4240492000003542, 1.575599400000101, 1.774810300000354, 1.9411850000001323, 2.090968100000282, 2.2907904000003327, 2.4410212000002502, 2.6075204000003396, 2.79035550000026, 2.956812300000365, 3.140013700000054, 3.3232574000003297, 3.506518500000311, 3.689999600000192, 3.8564548000003924, 4.006210700000338]"	"[0.2585221000003912, 0.4249730000001364, 0.5915552000001298, 0.7747988000000987, 0.9590920000000551, 1.146063900000172, 1.3084234000002652, 1.4751955000001544, 1.6748224000002665, 1.8411862000002657, 1.9908155000002807, 2.190583300000071, 2.3405923000000257, 2.5073365000002923, 2.6903101000002607, 2.8567807000003995, 3.040071600000374, 3.2231791000003795, 3.3897517000000335, 3.5896019000001615, 3.756199200000083, 3.9227153000001636, 4.08924560000014]"	17.8126492000001	17.8252923	19.3081426000003	19.3243196000003	NA	NA	NA	NA	NA	NA	NA	"02"	"03"	"2023-12-14_13h49.07.130"	"BART_exp"	"2023.2.2"	59.9926089107209	"2023-12-14 13h49.24.572247 +0100"	NA
"balloon.png"	88	0	3	3	20	19.3243196000003	NA	NA	NA	NA	NA	NA	NA	NA	NA	NA	NA	NA	19.3083915000002	19.3243196000003	19.3243196000003	19.3243196000003	19.3243196000003	19.3243196000003	0.0117790999997851	0.0117790999997851	0.0117790999997851	19.3243196000003	24.1415609000001	24	1.2	FALSE	"[0.011666666666666667, 0.011666666666666667, 0.011666666666666667, 0.011666666666666667, 0.011666666666666667, 0.011666666666666667, 0.011666666666666667, 0.011666666666666667, 0.011666666666666667, 0.011666666666666667, 0.011666666666666667, 0.011666666666666667, 0.011666666666666667, 0.011666666666666667, 0.011666666666666667, 0.011666666666666667, 0.011666666666666667, 0.011666666666666667, 0.011666666666666667, 0.011666666666666667, 0.011666666666666667, 0.011666666666666667, 0.011666666666666667, 0.011666666666666667, -0.014166666666666666]"	"[-0.36583333333333334, -0.36583333333333334, -0.36583333333333334, -0.36583333333333334, -0.36583333333333334, -0.36583333333333334, -0.36583333333333334, -0.36583333333333334, -0.36583333333333334, -0.36583333333333334, -0.36583333333333334, -0.36583333333333334, -0.36583333333333334, -0.36583333333333334, -0.36583333333333334, -0.36583333333333334, -0.36583333333333334, -0.36583333333333334, -0.36583333333333334, -0.36583333333333334, -0.36583333333333334, -0.36583333333333334, -0.36583333333333334, -0.36583333333333334, -0.14]"	"[1, 1, 1, 1, 1, 1, 1, 1, 1, 1, 1, 1, 1, 1, 1, 1, 1, 1, 1, 1, 1, 1, 1, 1, 0]"	"[0, 0, 0, 0, 0, 0, 0, 0, 0, 0, 0, 0, 0, 0, 0, 0, 0, 0, 0, 0, 0, 0, 0, 0, 0]"	"[0, 0, 0, 0, 0, 0, 0, 0, 0, 0, 0, 0, 0, 0, 0, 0, 0, 0, 0, 0, 0, 0, 0, 0, 1]"	"[0.1004837000000407, 0.2837819000001218, 0.48362330000009024, 0.6673329000000194, 0.8498484000001554, 1.0499479000000065, 1.2661400000001777, 1.44959259999996, 1.6658602000002247, 1.8660358000001906, 2.0826907999999094, 2.2658105000000432, 2.4654654999999366, 2.665454899999986, 2.865203599999859, 3.03205220000018, 3.2316541000000143, 3.431499199999962, 3.6147163999999066, 3.8147509999998874, 4.014337099999921, 4.18134340000006, 4.3645283000000745, 4.53104650000023, 4.831831599999987]"	23	"[0.0977191000001767, 0.2810239999998885, 0.48086130000001504, 0.6645894000002954, 0.847110100000009, 1.0471927000003234, 1.2633928000000196, 1.4468305999998847, 1.6631007999999383, 1.8632849999999053, 2.079941500000132, 2.263052400000106, 2.4627078000003166, 2.862444400000186, 3.029301399999895, 3.228896900000109, 3.4287383999999292, 3.611962299999959, 3.811991300000045, 4.011583299999984, 4.178599700000177, 4.361767800000052, 4.528288100000282]"	"[0.18059709999988627, 0.3641534000003048, 0.563755300000139, 0.7470859000000019, 0.9469884000000093, 1.1634604999999283, 1.3632019000001492, 1.5464394999999058, 1.7629000000001724, 1.9628824999999779, 2.1628074000000197, 2.3460003000000142, 2.729098000000249, 2.9289959000002455, 3.112191900000198, 3.312022699999943, 3.5285502000001543, 3.6951216000002205, 3.911562100000083, 4.078290400000242, 4.278126200000315, 4.461356199999955, 4.6777750999999625]"	24.1430031	24.1546116	25.6535901000002	NA	NA	NA	NA	NA	NA	NA	NA	"02"	"03"	"2023-12-14_13h49.07.130"	"BART_exp"	"2023.2.2"	59.9926089107209	"2023-12-14 13h49.24.572247 +0100"	NA
"balloon.png"	23	0	4	4	5	25.7256475000004	NA	NA	NA	NA	NA	NA	NA	NA	NA	NA	NA	NA	25.6538639	25.7256475000004	25.7256475000004	25.7256475000004	25.7256475000004	25.7256475000004	0.0126454000001104	0.0126454000001104	0.0126454000001104	25.7256475000004	30.1870268000002	24	1.15	TRUE	"[0.015, 0.015, 0.015, 0.015, 0.015, 0.014166666666666666, 0.014166666666666666, 0.014166666666666666, 0.014166666666666666, 0.014166666666666666, 0.014166666666666666, 0.014166666666666666, 0.014166666666666666, 0.014166666666666666, 0.014166666666666666, 0.014166666666666666, 0.014166666666666666, 0.014166666666666666, 0.014166666666666666, 0.014166666666666666, 0.014166666666666666, 0.014166666666666666, 0.014166666666666666, 0.014166666666666666]"	"[-0.41, -0.41, -0.41, -0.41, -0.41, -0.41, -0.41, -0.41, -0.41, -0.41, -0.41, -0.41, -0.41, -0.41, -0.41, -0.41, -0.41, -0.41, -0.41, -0.41, -0.41, -0.41, -0.41, -0.41]"	"[1, 1, 1, 1, 1, 1, 1, 1, 1, 1, 1, 1, 1, 1, 1, 1, 1, 1, 1, 1, 1, 1, 1, 1]"	"[0, 0, 0, 0, 0, 0, 0, 0, 0, 0, 0, 0, 0, 0, 0, 0, 0, 0, 0, 0, 0, 0, 0, 0]"	"[0, 0, 0, 0, 0, 0, 0, 0, 0, 0, 0, 0, 0, 0, 0, 0, 0, 0, 0, 0, 0, 0, 0, 0]"	"[0.07282729999997173, 0.2175336000000243, 0.43406519999962256, 0.6505696999997781, 0.8672367999997732, 1.0834682999998222, 1.266974499999833, 1.4668652000000293, 1.666680599999836, 1.8499007999998867, 2.016453400000046, 2.2161036999996213, 2.3992590999996537, 2.5826741999999285, 2.765571699999782, 2.965468999999757, 3.1488274999996975, 3.332058799999686, 3.5155463999999483, 3.698713299999781, 3.8984780999999202, 4.0650338000000374, 4.2483478999997715, 4.431274900000062]"	24	"[0.00048190000006798073, 0.15614460000006147, 0.3726819000003161, 0.5891802000001007, 0.8058595000002242, 1.0220901000002414, 1.2055966000002627, 1.405489800000396, 1.6053075000004355, 1.7885321000003387, 1.9551062000000456, 2.154730700000073, 2.3378845000002, 2.5212996000000203, 2.7041917000001376, 2.9040929000002507, 3.087459200000012, 3.2706837000000633, 3.4541723000002094, 3.637332200000401, 3.837104400000044, 4.003663300000426, 4.186976600000435, 4.3698991000001115]"	"[0.07288460000017949, 0.28897290000031717, 0.48890700000038123, 0.7054213000001255, 0.9219610000000102, 1.1051276000002872, 1.3217746000000261, 1.5216346000001977, 1.7047512000003735, 1.8880118000001858, 2.054532999999992, 2.254512700000305, 2.4542818000004445, 2.6374782000002597, 2.8039598000000296, 2.987041300000328, 3.170582100000047, 3.370396200000414, 3.553601400000389, 3.736862900000233, 3.9199783000003663, 4.103353300000435, 4.286563100000421, 4.4530774000004385]"	30.1883817000003	30.2005606000002	31.6996527000001	NA	NA	NA	NA	NA	NA	NA	NA	"02"	"03"	"2023-12-14_13h49.07.130"	"BART_exp"	"2023.2.2"	59.9926089107209	"2023-12-14 13h49.24.572247 +0100"	NA
"balloon.png"	36	0	5	5	8	31.7284746	NA	NA	NA	NA	NA	NA	NA	NA	NA	NA	NA	NA	31.6999104000001	31.7284746	31.7284746	31.7284746	31.7284746	31.7284746	0.0133653999996568	0.0133653999996568	0.0133653999996568	31.7284746	37.3818652	28	1.4	FALSE	"[0.004166666666666667, 0.004166666666666667, 0.004166666666666667, 0.004166666666666667, 0.004166666666666667, 0.004166666666666667, 0.004166666666666667, 0.004166666666666667, 0.004166666666666667, 0.004166666666666667, 0.004166666666666667, 0.004166666666666667, 0.004166666666666667, 0.004166666666666667, 0.004166666666666667, 0.004166666666666667, 0.004166666666666667, 0.004166666666666667, 0.006666666666666667, 0.01, 0.01, 0.01, 0.011666666666666667, 0.019166666666666665, 0.019166666666666665, 0.019166666666666665, 0.019166666666666665, 0.019166666666666665, 0.065, 0.12]"	"[-0.41, -0.41, -0.41, -0.41, -0.41, -0.41, -0.41, -0.41, -0.41, -0.41, -0.41, -0.41, -0.41, -0.41, -0.41, -0.41, -0.41, -0.41, -0.41, -0.41, -0.41, -0.41, -0.4091666666666667, -0.4058333333333333, -0.4058333333333333, -0.4058333333333333, -0.4058333333333333, -0.4058333333333333, -0.385, -0.08083333333333333]"	"[1, 1, 1, 1, 1, 1, 1, 1, 1, 1, 1, 1, 1, 1, 1, 1, 1, 1, 1, 1, 1, 1, 1, 1, 1, 1, 1, 1, 1, 0]"	"[0, 0, 0, 0, 0, 0, 0, 0, 0, 0, 0, 0, 0, 0, 0, 0, 0, 0, 0, 0, 0, 0, 0, 0, 0, 0, 0, 0, 0, 0]"	"[0, 0, 0, 0, 0, 0, 0, 0, 0, 0, 0, 0, 0, 0, 0, 0, 0, 0, 0, 0, 0, 0, 0, 0, 0, 0, 0, 0, 0, 1]"	"[0.15087949999997363, 0.3506446999999753, 0.5172475999997914, 0.7170913999998447, 0.9002817999999024, 1.0837312999997266, 1.2504616000001079, 1.449992100000145, 1.6331540000001041, 1.7997645000000375, 1.9827786999999262, 2.1829588000000513, 2.3994087000000945, 2.566243400000076, 2.782686399999875, 2.98218259999976, 3.1654193999997915, 3.332096300000103, 3.5318106999998236, 3.699762700000065, 3.898500199999944, 4.082159199999751, 4.264656800000012, 4.4816077999998924, 4.681196600000021, 4.881075899999814, 5.064120999999886, 5.247527300000002, 5.4140441999998075, 5.680531500000143]"	29	"[0.13266240000029939, 0.33242820000032225, 0.49903360000007524, 0.6988854999999603, 0.8820736000002398, 1.0655369000000974, 1.2322562000003927, 1.4317911000002823, 1.6149438000002192, 1.7815471000003527, 1.9645615000004, 2.164737700000387, 2.3812056000001576, 2.548043200000393, 2.7644804000001386, 2.963987999999972, 3.1472115999999914, 3.31389020000006, 3.513608100000056, 3.6815654000001814, 3.880288400000154, 4.063948600000003, 4.246444500000052, 4.46340710000004, 4.662985600000411, 4.862870700000258, 5.04590380000036, 5.229316000000381, 5.395834200000081]"	"[0.2156264000000192, 0.41551750000007814, 0.6154986000001372, 0.7986721000002035, 0.9652165000002242, 1.1484097000002293, 1.3150518000002194, 1.4982561000001624, 1.6647437000001446, 1.8645513000001301, 2.0310354000002917, 2.264320100000077, 2.4642926000001353, 2.664093600000342, 2.847352800000408, 3.047072400000161, 3.2136317000004055, 3.4135965000000397, 3.613400900000215, 3.7633138000001054, 3.9632221000001664, 4.146509000000151, 4.346333200000117, 4.579596500000207, 4.746123500000067, 4.946342900000218, 5.129037300000164, 5.312409900000148, 5.49575300000015]"	37.3834016000001	37.3965780000003	38.8950675000001	NA	NA	NA	NA	NA	NA	NA	NA	"02"	"03"	"2023-12-14_13h49.07.130"	"BART_exp"	"2023.2.2"	59.9926089107209	"2023-12-14 13h49.24.572247 +0100"	NA
"balloon.png"	92	0	6	6	21	38.9493196000003	NA	NA	NA	NA	NA	NA	NA	NA	NA	NA	NA	NA	38.8953279000002	38.9493196000003	38.9493196000003	38.9493196000003	38.9493196000003	38.9493196000003	0.0137776999999914	0.0137776999999914	0.0137776999999914	38.9493196000003	44.4940787	26	1.3	FALSE	"[0.0025, 0.0025, 0.0025, 0.0025, 0.0025, 0.0025, 0.0025, 0.0025, 0.0025, 0.0025, 0.0025, 0.0025, 0.0025, 0.0025, 0.0025, 0.0025, 0.0025, 0.0025, 0.0025, 0.0025, 0.0025, 0.0025, 0.0025, 0.0025, 0.0025, 0.0025, 0.03916666666666667]"	"[-0.3725, -0.3725, -0.3725, -0.3725, -0.3725, -0.3725, -0.3725, -0.3725, -0.3725, -0.3725, -0.3725, -0.3725, -0.3725, -0.3725, -0.3725, -0.3725, -0.3725, -0.3725, -0.3725, -0.3725, -0.3725, -0.3725, -0.3725, -0.3725, -0.3725, -0.3725, -0.11416666666666667]"	"[1, 1, 1, 1, 1, 1, 1, 1, 1, 1, 1, 1, 1, 1, 1, 1, 1, 1, 1, 1, 1, 1, 1, 1, 1, 1, 0]"	"[0, 0, 0, 0, 0, 0, 0, 0, 0, 0, 0, 0, 0, 0, 0, 0, 0, 0, 0, 0, 0, 0, 0, 0, 0, 0, 0]"	"[0, 0, 0, 0, 0, 0, 0, 0, 0, 0, 0, 0, 0, 0, 0, 0, 0, 0, 0, 0, 0, 0, 0, 0, 0, 0, 1]"	"[0.4007246999999552, 0.5671118999998725, 0.7339547999999922, 0.9336339999999836, 1.200342399999954, 1.3668441999998322, 1.5833952999996654, 1.7831593000000794, 1.999631899999713, 2.199521900000036, 2.3993454999999813, 2.6160101999998915, 2.799212699999771, 2.9991110999999364, 3.2152455999998892, 3.415416499999992, 3.615229999999883, 3.8487193999999363, 4.04854720000003, 4.24829950000003, 4.414925900000071, 4.598128000000088, 4.797696199999791, 4.964264700000058, 5.130859800000053, 5.297405199999957, 5.597417899999982]"	26	"[0.35687860000007277, 0.5232545999997456, 0.6900967999999921, 0.8897766000000047, 1.1565058999999565, 1.322984699999779, 1.5395482999997512, 1.7393029999998362, 1.955767200000082, 2.1556602999999086, 2.3554826999998113, 2.572154899999987, 2.755357300000014, 2.9552552999998625, 3.1549135999998725, 3.371553099999801, 3.5713752000001477, 3.804856700000073, 4.004685299999892, 4.204442799999924, 4.371075099999871, 4.55427409999993, 4.753841799999918, 4.920409700000164, 5.08700940000017, 5.253545199999735]"	"[0.42330020000008517, 0.589611099999729, 0.7895935000001373, 0.9894398000001274, 1.255958400000054, 1.4390196999997897, 1.6390916000000288, 1.8555098000001635, 2.055326799999875, 2.2551942000000054, 2.4550626999998713, 2.671694799999841, 2.871508400000039, 3.054632800000036, 3.25458720000006, 3.4710814999998547, 3.687755399999787, 3.8876131000001806, 4.104093200000079, 4.287411599999814, 4.4705550999997286, 4.653820900000028, 4.820368600000165, 5.003538800000115, 5.153586699999778, 5.3699705999997605]"	44.4954766000001	44.5078439000004	45.9913589000003	46.0069353000004	NA	NA	NA	NA	NA	NA	NA	"02"	"03"	"2023-12-14_13h49.07.130"	"BART_exp"	"2023.2.2"	59.9926089107209	"2023-12-14 13h49.24.572247 +0100"	NA
"balloon.png"	14	0	7	7	3	46.0069353000004	NA	NA	NA	NA	NA	NA	NA	NA	NA	NA	NA	NA	45.9916157000002	46.0069353000004	46.0069353000004	46.0069353000004	46.0069353000004	46.0069353000004	0.0115689999997812	0.0115689999997812	0.0115689999997812	46.0069353000004	48.8583241000001	15	0.7	TRUE	"[0.04416666666666667, 0.04416666666666667, 0.04416666666666667, 0.04416666666666667, 0.04416666666666667, 0.04416666666666667, 0.04416666666666667, 0.04416666666666667, 0.04416666666666667, 0.04416666666666667, 0.04416666666666667, 0.04416666666666667, 0.04416666666666667, 0.04416666666666667]"	"[-0.39, -0.39, -0.39, -0.39, -0.39, -0.39, -0.39, -0.39, -0.39, -0.39, -0.39, -0.39, -0.39, -0.39]"	"[1, 1, 1, 1, 1, 1, 1, 1, 1, 1, 1, 1, 1, 1]"	"[0, 0, 0, 0, 0, 0, 0, 0, 0, 0, 0, 0, 0, 0]"	"[0, 0, 0, 0, 0, 0, 0, 0, 0, 0, 0, 0, 0, 0]"	"[0.14957370000001902, 0.33290960000022096, 0.4997395999998844, 0.6830285999999433, 0.8992766000001211, 1.0991571999998087, 1.282657400000062, 1.4660367000001315, 1.6826120999999148, 1.8991092999999637, 2.1153079000000616, 2.331796299999951, 2.5330878999998276, 2.764972200000102]"	14	"[0.14645000000018626, 0.3297879000001558, 0.4966250000002219, 0.6799151999998685, 0.8961795000000166, 1.0960512000001472, 1.2795504999999139, 1.4629330000002483, 1.6795240000001286, 1.8960265999999137, 2.1122120999998515, 2.32868980000012, 2.529987500000061, 2.7618633000001864]"	"[0.24634569999989253, 0.4130094000001918, 0.6128668999999718, 0.7960631000000831, 0.9959207000001697, 1.1959077999999863, 1.3957814000000326, 1.5957647999998699, 1.8121765000000778, 2.01213080000025, 2.2286300999999185, 2.4450292000001355, 2.6282915000001594, 2.84472790000018]"	48.8594179000002	48.8716904000003	50.3546517	50.3708553000001	NA	NA	NA	NA	NA	NA	NA	"02"	"03"	"2023-12-14_13h49.07.130"	"BART_exp"	"2023.2.2"	59.9926089107209	"2023-12-14 13h49.24.572247 +0100"	NA
"balloon.png"	127	0	8	8	29	50.3708553000001	NA	NA	NA	NA	NA	NA	NA	NA	NA	NA	NA	NA	50.3549028000002	50.3708553000001	50.3708553000001	50.3708553000001	50.3708553000001	50.3708553000001	0.011547900000096	NA	NA	50.3708553000001	56.4196471	28	1.4	FALSE	"[0.04416666666666667, 0.04416666666666667, 0.04416666666666667, 0.04416666666666667, 0.04416666666666667, 0.04416666666666667, 0.04416666666666667, 0.04416666666666667, 0.04416666666666667, 0.04416666666666667, 0.04416666666666667, 0.04416666666666667, 0.04416666666666667, 0.04416666666666667, 0.04416666666666667, 0.04416666666666667, 0.04416666666666667, 0.04416666666666667, 0.04416666666666667, 0.04416666666666667, 0.04416666666666667, 0.04416666666666667, 0.04416666666666667, 0.04416666666666667, 0.04416666666666667, 0.04416666666666667, 0.04416666666666667, 0.04416666666666667, 0.04416666666666667, 0.0975]"	"[-0.37666666666666665, -0.37666666666666665, -0.37666666666666665, -0.37666666666666665, -0.37666666666666665, -0.37666666666666665, -0.37666666666666665, -0.37666666666666665, -0.37666666666666665, -0.37666666666666665, -0.37666666666666665, -0.37666666666666665, -0.37666666666666665, -0.37666666666666665, -0.37666666666666665, -0.37666666666666665, -0.37666666666666665, -0.37666666666666665, -0.37666666666666665, -0.37666666666666665, -0.37666666666666665, -0.37666666666666665, -0.37666666666666665, -0.37666666666666665, -0.37666666666666665, -0.37666666666666665, -0.37666666666666665, -0.37666666666666665, -0.37666666666666665, -0.23666666666666666]"	"[1, 1, 1, 1, 1, 1, 1, 1, 1, 1, 1, 1, 1, 1, 1, 1, 1, 1, 1, 1, 1, 1, 1, 1, 1, 1, 1, 1, 1, 0]"	"[0, 0, 0, 0, 0, 0, 0, 0, 0, 0, 0, 0, 0, 0, 0, 0, 0, 0, 0, 0, 0, 0, 0, 0, 0, 0, 0, 0, 0, 0]"	"[0, 0, 0, 0, 0, 0, 0, 0, 0, 0, 0, 0, 0, 0, 0, 0, 0, 0, 0, 0, 0, 0, 0, 0, 0, 0, 0, 0, 0, 1]"	"[0.500221099999635, 0.6670798000000104, 0.849846499999785, 1.0167108999999073, 1.1996150999998463, 1.3995018000000528, 1.599664599999869, 1.7826459999996587, 1.966187699999864, 2.165951799999675, 2.3492034999999305, 2.5489895999999135, 2.732200699999794, 2.9155438999996477, 3.115380400000049, 3.3149012999997467, 3.5148629000000255, 3.6980023999999503, 3.8980876000000535, 4.081216599999607, 4.264377599999989, 4.46424769999976, 4.664105099999688, 4.8473409999996875, 5.0143896999998105, 5.182009899999684, 5.380634799999825, 5.580446399999801, 5.79693640000005, 6.063444899999922]"	29	"[0.4977403000002596, 0.6647548999999344, 0.8473698000002514, 1.0142304000000877, 1.1971317000002273, 1.3970174999999472, 1.5971830000003138, 1.7801775000002635, 1.9637107000003198, 2.163475600000311, 2.346730799999932, 2.5465124000002106, 2.7297708999999486, 2.9130779000001894, 3.1129008000002614, 3.3124196000003394, 3.5123781000002054, 3.6955203000002257, 3.8956209000002673, 4.078745100000106, 4.261898400000064, 4.4617676000002575, 4.661624900000334, 4.844863199999963, 5.01191450000033, 5.179543000000194, 5.378161399999954, 5.577958000000308, 5.794454300000325]"	"[0.5807195000002139, 0.7473508000002766, 0.9305420999999114, 1.1137337000000116, 1.3135935000000245, 1.5134737000003042, 1.6965720000002875, 1.8799386999999115, 2.079825300000266, 2.2631415999999263, 2.4629408999999214, 2.6627949000003355, 2.862716900000123, 3.029233000000204, 3.229095000000143, 3.428972000000158, 3.6121470000002773, 3.8119698000000426, 4.011963400000241, 4.195092500000101, 4.378353999999945, 4.578105699999924, 4.761406900000111, 4.944714600000225, 5.111286500000006, 5.294464300000072, 5.511094200000116, 5.710697400000299, 5.910695100000339]"	56.4211559	56.4335486	57.9164538	57.9325851000003	NA	NA	NA	NA	NA	NA	NA	"02"	"03"	"2023-12-14_13h49.07.130"	"BART_exp"	"2023.2.2"	59.9926089107209	"2023-12-14 13h49.24.572247 +0100"	NA
"balloon.png"	105	0	9	9	24	57.9325851000003	NA	NA	NA	NA	NA	NA	NA	NA	NA	NA	NA	NA	57.9167050000001	57.9325851000003	57.9325851000003	57.9325851000003	57.9325851000003	57.9325851000003	0.0115341999999146	0.0115341999999146	0.0115341999999146	57.9325851000003	64.4144263000003	30	1.5	FALSE	"[0.011666666666666667, 0.011666666666666667, 0.011666666666666667, 0.011666666666666667, 0.011666666666666667, 0.011666666666666667, 0.011666666666666667, 0.011666666666666667, 0.011666666666666667, 0.011666666666666667, 0.011666666666666667, 0.011666666666666667, 0.011666666666666667, 0.011666666666666667, 0.011666666666666667, 0.011666666666666667, 0.011666666666666667, 0.011666666666666667, 0.011666666666666667, 0.011666666666666667, 0.011666666666666667, 0.011666666666666667, 0.011666666666666667, 0.011666666666666667, 0.011666666666666667, 0.011666666666666667, 0.011666666666666667, 0.011666666666666667, 0.011666666666666667, 0.011666666666666667, 0.08166666666666667]"	"[-0.3958333333333333, -0.3958333333333333, -0.3958333333333333, -0.3958333333333333, -0.3958333333333333, -0.3958333333333333, -0.3958333333333333, -0.3958333333333333, -0.3958333333333333, -0.3958333333333333, -0.3958333333333333, -0.3958333333333333, -0.3958333333333333, -0.3958333333333333, -0.3958333333333333, -0.3958333333333333, -0.3958333333333333, -0.3958333333333333, -0.3958333333333333, -0.3958333333333333, -0.3958333333333333, -0.3958333333333333, -0.3958333333333333, -0.3958333333333333, -0.3958333333333333, -0.3958333333333333, -0.3958333333333333, -0.3958333333333333, -0.3958333333333333, -0.3958333333333333, -0.14333333333333334]"	"[1, 1, 1, 1, 1, 1, 1, 1, 1, 1, 1, 1, 1, 1, 1, 1, 1, 1, 1, 1, 1, 1, 1, 1, 1, 1, 1, 1, 1, 1, 0]"	"[0, 0, 0, 0, 0, 0, 0, 0, 0, 0, 0, 0, 0, 0, 0, 0, 0, 0, 0, 0, 0, 0, 0, 0, 0, 0, 0, 0, 0, 0, 0]"	"[0, 0, 0, 0, 0, 0, 0, 0, 0, 0, 0, 0, 0, 0, 0, 0, 0, 0, 0, 0, 0, 0, 0, 0, 0, 0, 0, 0, 0, 0, 1]"	"[0.5499657999998817, 0.7003193999998985, 0.9000866999999744, 1.1166293000001133, 1.299842500000068, 1.499614400000155, 1.699606700000004, 1.8994523000001209, 2.0993232999999236, 2.282502800000202, 2.4824014000000716, 2.6819789000001037, 2.865472899999986, 3.048562200000106, 3.2484957000001486, 3.4316428000001906, 3.648079200000211, 3.8314737000000605, 4.031075200000032, 4.230927999999949, 4.447408500000165, 4.630914599999869, 4.830731399999877, 5.047311400000126, 5.230499799999961, 5.463371800000004, 5.6470023000001675, 5.846629099999973, 6.0465423000000555, 6.22998490000009, 6.4964075000002595]"	30	"[0.5474991000000955, 0.6978474000002279, 0.8976203000001988, 1.1141496999998708, 1.2973688000001857, 1.4971418000000085, 1.6971432999998797, 1.8969836000001123, 2.096860000000106, 2.2800311000000875, 2.479967300000226, 2.679517500000202, 2.8630000000002838, 3.0460940000002665, 3.2460221999999703, 3.429172699999981, 3.6456066000000646, 3.829012700000021, 4.028608900000108, 4.228454300000067, 4.444927300000018, 4.628441800000019, 4.828267899999901, 5.044843500000297, 5.228031900000133, 5.460896699999921, 5.644532000000254, 5.844162400000187, 6.0440724999998565, 6.227508800000123]"	"[0.6140580000001137, 0.8139986999999564, 0.9970576000000619, 1.2136454999999842, 1.4135208000002422, 1.5967392000002292, 1.813384699999915, 2.013146400000096, 2.1963510999999016, 2.3962859000002936, 2.579487400000289, 2.7627926999998635, 2.9625208000002203, 3.145942300000115, 3.345575899999858, 3.54539479999994, 3.7452932000001056, 3.9452424000000974, 4.128368300000147, 4.328275700000177, 4.544780499999888, 4.744637499999953, 4.96132979999993, 5.144530999999915, 5.344338400000197, 5.5441060000002835, 5.760595600000215, 5.943949500000144, 6.143970099999933, 6.360378400000172]"	64.4159053000003	64.4284551000001	65.9272698	NA	NA	NA	NA	NA	NA	NA	NA	"02"	"03"	"2023-12-14_13h49.07.130"	"BART_exp"	"2023.2.2"	59.9926089107209	"2023-12-14 13h49.24.572247 +0100"	NA
"balloon.png"	71	0	10	10	16	66.0083713000004	NA	NA	NA	NA	NA	NA	NA	NA	NA	NA	NA	NA	65.9275318	66.0083713000004	66.0083713000004	66.0083713000004	66.0083713000004	66.0083713000004	0.0134289000002354	0.0134289000002354	0.0134289000002354	66.0083713000004	71.9428484	28	1.4	FALSE	"[0.035, 0.035, 0.035, 0.035, 0.035, 0.035833333333333335, 0.035833333333333335, 0.035833333333333335, 0.035833333333333335, 0.035833333333333335, 0.035833333333333335, 0.035833333333333335, 0.035833333333333335, 0.035833333333333335, 0.035833333333333335, 0.035833333333333335, 0.035833333333333335, 0.035833333333333335, 0.035833333333333335, 0.035833333333333335, 0.03666666666666667, 0.041666666666666664, 0.041666666666666664, 0.041666666666666664, 0.041666666666666664, 0.041666666666666664, 0.041666666666666664, 0.041666666666666664, 0.06583333333333333]"	"[-0.39916666666666667, -0.39916666666666667, -0.39916666666666667, -0.39916666666666667, -0.39916666666666667, -0.39916666666666667, -0.39916666666666667, -0.39916666666666667, -0.39916666666666667, -0.39916666666666667, -0.39916666666666667, -0.39916666666666667, -0.39916666666666667, -0.39916666666666667, -0.39916666666666667, -0.39916666666666667, -0.39916666666666667, -0.39916666666666667, -0.39916666666666667, -0.39916666666666667, -0.39916666666666667, -0.39916666666666667, -0.39916666666666667, -0.39916666666666667, -0.39916666666666667, -0.39916666666666667, -0.39916666666666667, -0.39916666666666667, -0.115]"	"[1, 1, 1, 1, 1, 1, 1, 1, 1, 1, 1, 1, 1, 1, 1, 1, 1, 1, 1, 1, 1, 1, 1, 1, 1, 1, 1, 1, 0]"	"[0, 0, 0, 0, 0, 0, 0, 0, 0, 0, 0, 0, 0, 0, 0, 0, 0, 0, 0, 0, 0, 0, 0, 0, 0, 0, 0, 0, 0]"	"[0, 0, 0, 0, 0, 0, 0, 0, 0, 0, 0, 0, 0, 0, 0, 0, 0, 0, 0, 0, 0, 0, 0, 0, 0, 0, 0, 0, 1]"	"[0.3172831000001679, 0.48438320000013846, 0.6839175000000068, 0.8673899999998866, 1.0669404999998733, 1.2671453000002657, 1.483407900000202, 1.6668408999998974, 1.8831777999998849, 2.1162591000002067, 2.299805799999831, 2.549611299999924, 2.749419900000248, 2.9493224000002556, 3.1488718999999037, 3.3324077000002035, 3.565511400000105, 3.7487475000002632, 3.981884799999989, 4.181638900000053, 4.398823900000025, 4.58146459999989, 4.781257000000096, 4.997914500000206, 5.19761890000018, 5.397573499999908, 5.580770999999913, 5.76396509999995, 6.013967299999877]"	28	"[0.24672340000006443, 0.4138413999999102, 0.6133629000000838, 0.7968337000002066, 0.9963892000000669, 1.196589000000131, 1.4128458000000137, 1.5962773000001107, 1.8126199000002998, 2.0457108999999036, 2.229252500000257, 2.479046500000095, 2.678855200000271, 2.8787594999998873, 3.078310700000202, 3.2618556000002172, 3.4949525000001813, 3.678188500000033, 3.9113188999999693, 4.111071400000128, 4.32827750000024, 4.510912700000063, 4.710690100000193, 4.927345099999911, 5.127053799999885, 5.327023300000292, 5.510205399999904, 5.693393900000046]"	"[0.3301329999999325, 0.49674640000012005, 0.7132313000001886, 0.9130709000000934, 1.129705400000148, 1.2961589999999887, 1.5127207000000453, 1.7125648999999612, 1.912290799999937, 2.1456637000001137, 2.345444800000223, 2.5619661000000633, 2.778488400000242, 2.978303700000197, 3.1614634000002297, 3.3781394000002365, 3.5779646000000866, 3.777765199999976, 3.9943483000001834, 4.194139600000199, 4.410873100000117, 4.5940740000000915, 4.827185800000279, 5.026912000000266, 5.226863299999877, 5.426830400000199, 5.626759799999945, 5.793198500000017]"	71.9445801000002	71.9568575000003	73.4397144	73.4559877000002	NA	NA	NA	NA	NA	NA	NA	"02"	"03"	"2023-12-14_13h49.07.130"	"BART_exp"	"2023.2.2"	59.9926089107209	"2023-12-14 13h49.24.572247 +0100"	NA
"balloon.png"	57	0	11	11	13	73.4559877000002	NA	NA	NA	NA	NA	NA	NA	NA	NA	NA	NA	NA	73.4399736	73.4559877000002	73.4559877000002	73.4559877000002	73.4559877000002	73.4559877000002	0.0115192999996907	0.0115192999996907	0.0115192999996907	73.4559877000002	78.7385195000002	23	1.15	FALSE	"[-0.0033333333333333335, -0.0033333333333333335, -0.0033333333333333335, -0.0033333333333333335, -0.0033333333333333335, -0.0033333333333333335, -0.0033333333333333335, -0.0033333333333333335, -0.0033333333333333335, -0.0033333333333333335, -0.0033333333333333335, -0.0033333333333333335, -0.0033333333333333335, -0.0033333333333333335, -0.0033333333333333335, -0.0033333333333333335, -0.0033333333333333335, -0.0033333333333333335, -0.0033333333333333335, -0.0033333333333333335, -0.0033333333333333335, 0.009166666666666667, 0.009166666666666667, 0.013333333333333334]"	"[-0.37166666666666665, -0.37166666666666665, -0.37166666666666665, -0.37166666666666665, -0.37166666666666665, -0.37166666666666665, -0.37166666666666665, -0.37166666666666665, -0.37166666666666665, -0.37166666666666665, -0.37166666666666665, -0.37166666666666665, -0.37166666666666665, -0.37166666666666665, -0.37166666666666665, -0.37166666666666665, -0.37166666666666665, -0.37166666666666665, -0.37166666666666665, -0.37166666666666665, -0.37166666666666665, -0.38083333333333336, -0.38083333333333336, -0.1]"	"[1, 1, 1, 1, 1, 1, 1, 1, 1, 1, 1, 1, 1, 1, 1, 1, 1, 1, 1, 1, 1, 1, 1, 0]"	"[0, 0, 0, 0, 0, 0, 0, 0, 0, 0, 0, 0, 0, 0, 0, 0, 0, 0, 0, 0, 0, 0, 0, 0]"	"[0, 0, 0, 0, 0, 0, 0, 0, 0, 0, 0, 0, 0, 0, 0, 0, 0, 0, 0, 0, 0, 0, 0, 1]"	"[0.33360979999997653, 0.5166172000003826, 0.6998397000002115, 0.8998866000001726, 1.1331389000001764, 1.3331009000003178, 1.5660812000000988, 1.7827972000000045, 1.965928300000087, 2.199577600000339, 2.399272099999962, 2.5823629000001347, 2.79882600000019, 3.0153682000000117, 3.215494900000067, 3.4151568000002044, 3.6149444000002404, 3.7980901999999332, 3.9979833000002145, 4.1978079000000434, 4.397693100000197, 4.847546100000272, 4.997523000000001, 5.2971605000002455]"	23	"[0.33082359999980326, 0.5138369000001148, 0.6970538000000488, 0.897102200000063, 1.13037869999971, 1.3303296999997656, 1.5467736000000514, 1.780019799999991, 1.9631509000000733, 2.1968329000001177, 2.39651670000012, 2.5795908000000054, 2.796051499999976, 3.0125911999998607, 3.212747799999761, 3.412390200000118, 3.6121730999998363, 3.7953158000000258, 3.995207500000106, 4.195053699999789, 4.394940299999689, 4.844778000000133, 4.994740699999966]"	"[0.43046229999981733, 0.5970030999997107, 0.7968968000000132, 1.0134078999999474, 1.2135180999998738, 1.4466153999997005, 1.6630040000000008, 1.8795743000000584, 2.0796949999999015, 2.2796164000001227, 2.512651300000016, 2.695777299999918, 2.8956656000000294, 3.112000900000112, 3.3121759000000566, 3.4952628999999433, 3.695035799999914, 3.8948832999999468, 4.095029199999772, 4.2949808999997, 4.4781152000000475, 4.911058599999706, 5.110835999999836]"	78.7400627000002	78.7527447000002	80.2515797999999	NA	NA	NA	NA	NA	NA	NA	NA	"02"	"03"	"2023-12-14_13h49.07.130"	"BART_exp"	"2023.2.2"	59.9926089107209	"2023-12-14 13h49.24.572247 +0100"	NA
"balloon.png"	10	0	12	12	2	80.2960868	NA	NA	NA	NA	NA	NA	NA	NA	NA	NA	NA	NA	80.2518461	80.2960868	80.2960868	80.2960868	80.2960868	80.2960868	0.0135286999998243	0.0135286999998243	0.0135286999998243	80.2960868	82.5030005000003	11	0.5	TRUE	"[0.03166666666666667, 0.03166666666666667, 0.03166666666666667, 0.03166666666666667, 0.03166666666666667, 0.03166666666666667, 0.03166666666666667, 0.03166666666666667, 0.03166666666666667, 0.03166666666666667, 0.03166666666666667]"	"[-0.41083333333333333, -0.41083333333333333, -0.41083333333333333, -0.41083333333333333, -0.41083333333333333, -0.41083333333333333, -0.41083333333333333, -0.41083333333333333, -0.41083333333333333, -0.41083333333333333, -0.41083333333333333]"	"[1, 1, 1, 1, 1, 1, 1, 1, 1, 1, 1]"	"[0, 0, 0, 0, 0, 0, 0, 0, 0, 0, 0]"	"[0, 0, 0, 0, 0, 0, 0, 0, 0, 0, 0]"	"[0.08400750000009793, 0.25075669999978345, 0.4341071999997439, 0.650620699999763, 0.8504017000000204, 1.0670767999999953, 1.2669364999997015, 1.450029000000086, 1.6833542999997917, 1.8831388999997216, 2.1329320999998345]"	11	"[0.04970370000000912, 0.21646179999970627, 0.3998222000000169, 0.6163418000001002, 0.8161248000001251, 1.0328034999997726, 1.2326622000000498, 1.4157423999999992, 1.64908719999994, 1.8488615999999638, 2.0986457999997583]"	"[0.14947429999983797, 0.3159522000000834, 0.5159451999998055, 0.6992560999997295, 0.9157608999998956, 1.1322894999998425, 1.3320862000000488, 1.515346899999713, 1.7486112999999932, 1.9650072999997974, 2.1980694999997468]"	82.5039675000003	82.5167108000001	83.9995633000003	84.0155428000003	NA	NA	NA	NA	NA	NA	NA	"02"	"03"	"2023-12-14_13h49.07.130"	"BART_exp"	"2023.2.2"	59.9926089107209	"2023-12-14 13h49.24.572247 +0100"	NA
"balloon.png"	66	0	13	13	15	84.0155428000003	NA	NA	NA	NA	NA	NA	NA	NA	NA	NA	NA	NA	83.9998172000001	84.0155428000003	84.0155428000003	84.0155428000003	84.0155428000003	84.0155428000003	0.0116852000001017	NA	NA	84.0155428000003	90.1810546000002	25	1.25	FALSE	"[0.03166666666666667, 0.0225, 0.0575, 0.06916666666666667, 0.08, 0.075, 0.075, 0.075, 0.075, 0.075, 0.075, 0.075, 0.075, 0.075, 0.075, 0.075, 0.075, 0.075, 0.075, 0.075, 0.075, 0.075, 0.075, 0.075, 0.075, 0.075, 0.075, 0.014166666666666666]"	"[-0.41083333333333333, -0.4266666666666667, -0.29083333333333333, -0.3416666666666667, -0.4141666666666667, -0.4033333333333333, -0.4033333333333333, -0.4033333333333333, -0.4033333333333333, -0.4033333333333333, -0.4033333333333333, -0.4033333333333333, -0.4033333333333333, -0.4033333333333333, -0.4033333333333333, -0.4033333333333333, -0.4033333333333333, -0.4033333333333333, -0.4033333333333333, -0.4033333333333333, -0.4033333333333333, -0.4033333333333333, -0.4033333333333333, -0.4033333333333333, -0.4033333333333333, -0.4033333333333333, -0.4033333333333333, -0.14333333333333334]"	"[1, 1, 1, 1, 1, 1, 1, 1, 1, 1, 1, 1, 1, 1, 1, 1, 1, 1, 1, 1, 1, 1, 1, 1, 1, 1, 1, 0]"	"[0, 0, 0, 0, 0, 0, 0, 0, 0, 0, 0, 0, 0, 0, 0, 0, 0, 0, 0, 0, 0, 0, 0, 0, 0, 0, 0, 0]"	"[0, 0, 0, 0, 0, 0, 0, 0, 0, 0, 0, 0, 0, 0, 0, 0, 0, 0, 0, 0, 0, 0, 0, 0, 0, 0, 0, 1]"	"[0.21714059999976598, 0.3837069999999585, 0.6503295999996226, 0.8832377999997334, 1.1498853999996754, 1.482997499999783, 1.6828311999997823, 1.9158786999996664, 2.1156824999998207, 2.315800500000023, 2.5154272999998284, 2.7320756999997684, 2.931778199999826, 3.232096299999739, 3.4484380999997484, 3.6816902999999, 3.8814525999996476, 4.064667799999825, 4.297762599999714, 4.514204499999778, 4.7308428999999705, 4.947091499999715, 5.130635600000005, 5.313868499999899, 5.530179999999746, 5.713711500000045, 5.8968198999996275, 6.179899100000057]"	25	"[0.21452200000021548, 0.38108069999998406, 1.1473023000003195, 1.480386400000043, 1.6802176000001054, 1.913261700000021, 2.113070300000345, 2.31318710000005, 2.5128136000002996, 2.729456100000334, 2.929163000000244, 3.2294873000000734, 3.445823300000029, 3.679080200000044, 3.8788306000001285, 4.062055600000349, 4.2951569000001655, 4.511594999999943, 4.728226800000357, 4.944465100000343, 5.128012600000147, 5.311265700000149, 5.5275925999999345, 5.711097100000188, 5.894205300000067]"	"[0.314065600000049, 0.4805903000001308, 1.2633519999999407, 1.5798628000002282, 1.7963697000000138, 1.9961895999999797, 2.2128654000002825, 2.4127313000003596, 2.6458591000000524, 2.8291142000002765, 3.0456170000002203, 3.3621258000002854, 3.5786926000000676, 3.7951121999999486, 3.994935700000042, 4.211441899999954, 4.411428100000194, 4.661268800000016, 4.8777328000001035, 5.044311900000139, 5.227514600000177, 5.427506100000301, 5.627436700000089, 5.827176600000257, 6.02702249999993]"	90.1824033000003	90.1950365000002	91.6942124000002	NA	NA	NA	NA	NA	NA	NA	NA	"02"	"03"	"2023-12-14_13h49.07.130"	"BART_exp"	"2023.2.2"	59.9926089107209	"2023-12-14 13h49.24.572247 +0100"	NA
"balloon.png"	114	0	14	14	26	91.7727513	NA	NA	NA	NA	NA	NA	NA	NA	NA	NA	NA	NA	91.6944765000003	91.7727513	91.7727513	91.7727513	91.7727513	91.7727513	0.0138504000001376	0.0138504000001376	0.0138504000001376	91.7727513	96.360302	24	1.2	FALSE	"[0.006666666666666667, 0.006666666666666667, 0.006666666666666667, 0.006666666666666667, 0.006666666666666667, 0.006666666666666667, 0.006666666666666667, 0.006666666666666667, 0.006666666666666667, 0.006666666666666667, 0.006666666666666667, 0.006666666666666667, 0.006666666666666667, 0.006666666666666667, 0.006666666666666667, 0.010833333333333334, 0.010833333333333334, 0.010833333333333334, 0.010833333333333334, 0.010833333333333334, 0.010833333333333334, 0.010833333333333334, 0.010833333333333334, 0.010833333333333334, 0.03]"	"[-0.36666666666666664, -0.36666666666666664, -0.36666666666666664, -0.36666666666666664, -0.36666666666666664, -0.36666666666666664, -0.36666666666666664, -0.36666666666666664, -0.36666666666666664, -0.36666666666666664, -0.36666666666666664, -0.36666666666666664, -0.36666666666666664, -0.36666666666666664, -0.36666666666666664, -0.36833333333333335, -0.36833333333333335, -0.36833333333333335, -0.36833333333333335, -0.36833333333333335, -0.36833333333333335, -0.36833333333333335, -0.36833333333333335, -0.36833333333333335, -0.175]"	"[1, 1, 1, 1, 1, 1, 1, 1, 1, 1, 1, 1, 1, 1, 1, 1, 1, 1, 1, 1, 1, 1, 1, 1, 0]"	"[0, 0, 0, 0, 0, 0, 0, 0, 0, 0, 0, 0, 0, 0, 0, 0, 0, 0, 0, 0, 0, 0, 0, 0, 0]"	"[0, 0, 0, 0, 0, 0, 0, 0, 0, 0, 0, 0, 0, 0, 0, 0, 0, 0, 0, 0, 0, 0, 0, 0, 1]"	"[0.07935689999976603, 0.18407609999985652, 0.38373649999994086, 0.5839031999998952, 0.7670309000000088, 0.966760400000112, 1.1667722000001959, 1.3831411999999546, 1.6166376000001037, 1.7662464, 1.9664400000001478, 2.1828927999999905, 2.3825605000001815, 2.549177100000179, 2.7491156999999475, 2.9656678999999713, 3.1487670000001344, 3.315606900000148, 3.5154155999998693, 3.715272500000083, 3.8981628000001365, 4.081614900000204, 4.264867100000174, 4.431116599999768, 4.664493499999935]"	24	"[0.000492600000143284, 0.11638429999993605, 0.31604150000021036, 0.5162130000003344, 0.6993428999999196, 0.8990779999999177, 1.099086300000181, 1.3154514000002564, 1.5489638000003652, 1.6985638999999537, 1.8987707000001137, 2.115214200000082, 2.314875700000357, 2.4814847000002374, 2.6814296000002287, 2.897990100000243, 3.0810937999999624, 3.2479277000002185, 3.4477350000001934, 3.647584000000279, 3.8304799000002276, 4.013937500000338, 4.197191200000361, 4.363427799999954]"	"[0.031529200000022684, 0.21600760000001173, 0.3991651000001184, 0.5823545000002923, 0.7990088000001379, 0.9986471000001984, 1.2156340000001364, 1.4318207000001166, 1.5986195000000407, 1.83151880000014, 1.9982951000001776, 2.1981267000001026, 2.3978454000002785, 2.5810781000000134, 2.797691400000076, 2.9809918999999354, 3.180924199999936, 3.364068000000316, 3.547020900000007, 3.747089500000129, 3.930142600000181, 4.11357739999994, 4.280085600000348, 4.463255500000287]"	96.3616161	96.3743195000002	97.8735353000002	NA	NA	NA	NA	NA	NA	NA	NA	"02"	"03"	"2023-12-14_13h49.07.130"	"BART_exp"	"2023.2.2"	59.9926089107209	"2023-12-14 13h49.24.572247 +0100"	NA
"balloon.png"	101	0	15	15	23	97.9269425000002	NA	NA	NA	NA	NA	NA	NA	NA	NA	NA	NA	NA	97.8738128	97.9269425000002	97.9269425000002	97.9269425000002	97.9269425000002	97.9269425000002	0.0139973000000282	0.0139973000000282	0.0139973000000282	97.9269425000002	102.3728969	22	1.1	FALSE	"[0.015, 0.015, 0.015, 0.015, 0.015, 0.015, 0.015, 0.015, 0.015, 0.015, 0.015, 0.015, 0.015, 0.015, 0.015, 0.015, 0.015, 0.015, 0.015, 0.015, 0.015, 0.015, 0.06416666666666666]"	"[-0.3625, -0.3625, -0.3625, -0.3625, -0.3625, -0.3625, -0.3625, -0.3625, -0.3625, -0.3625, -0.3625, -0.3625, -0.3625, -0.3625, -0.3625, -0.3625, -0.3625, -0.3625, -0.3625, -0.3625, -0.3625, -0.3625, -0.07166666666666667]"	"[1, 1, 1, 1, 1, 1, 1, 1, 1, 1, 1, 1, 1, 1, 1, 1, 1, 1, 1, 1, 1, 1, 0]"	"[0, 0, 0, 0, 0, 0, 0, 0, 0, 0, 0, 0, 0, 0, 0, 0, 0, 0, 0, 0, 0, 0, 0]"	"[0, 0, 0, 0, 0, 0, 0, 0, 0, 0, 0, 0, 0, 0, 0, 0, 0, 0, 0, 0, 0, 0, 1]"	"[0.054227000000082626, 0.23382309999988138, 0.4337101999999504, 0.6335776999999325, 0.8336707999997088, 1.0499470999998266, 1.2168062999999165, 1.4499832999999853, 1.666230799999994, 1.849446700000044, 2.0661811999998463, 2.2660668999997142, 2.4657139999999345, 2.6822618000001057, 2.8490812000000005, 3.0654704999997193, 3.265301500000078, 3.448792499999854, 3.648264399999789, 3.8151042999998026, 4.064931299999898, 4.248134800000116, 4.49772989999974]"	22	"[0.0005105999998704647, 0.19150489999992715, 0.3913910000001124, 0.5912662999999156, 0.79135610000003, 1.0076438999999482, 1.1744942000000265, 1.4076764000001276, 1.6239129999999022, 1.8071381999998266, 2.023870999999872, 2.2237574000000677, 2.423395100000107, 2.6399530999997296, 2.80676799999992, 3.0231595000000198, 3.223000299999967, 3.4064837000000807, 3.605954799999836, 3.7727873999997428, 4.022625000000062, 4.205833999999868]"	"[0.0747839999999087, 0.29127699999980905, 0.5083918000000267, 0.6910637000000861, 0.907623699999931, 1.0909747000000607, 1.3239396999997552, 1.5072915999999168, 1.7070036999998592, 1.9067770000001474, 2.123549500000081, 2.3233500000001186, 2.523301100000026, 2.7230516999998144, 2.9230146999998396, 3.1393896999998105, 3.3227716000001237, 3.505985799999962, 3.705745299999762, 3.8889604000000872, 4.155500899999879, 4.305486700000074]"	102.3742045	102.3870744	103.8862763	NA	NA	NA	NA	NA	NA	NA	NA	"02"	"03"	"2023-12-14_13h49.07.130"	"BART_exp"	"2023.2.2"	59.9926089107209	"2023-12-14 13h49.24.572247 +0100"	NA
"balloon.png"	75	0	16	16	17	103.9278111	NA	NA	NA	NA	NA	NA	NA	NA	NA	NA	NA	NA	103.886541	103.9278111	103.9278111	103.9278111	103.9278111	103.9278111	0.0140416999997797	0.0140416999997797	0.0140416999997797	103.9278111	109.1854952	25	1.25	FALSE	"[0.04583333333333333, 0.04583333333333333, 0.04583333333333333, 0.04583333333333333, 0.04583333333333333, 0.04583333333333333, 0.04583333333333333, 0.04583333333333333, 0.04583333333333333, 0.04583333333333333, 0.04583333333333333, 0.04583333333333333, 0.04583333333333333, 0.04583333333333333, 0.04583333333333333, 0.04583333333333333, 0.04583333333333333, 0.04583333333333333, 0.04583333333333333, 0.04583333333333333, 0.04, 0.05, 0.050833333333333335, 0.050833333333333335, 0.050833333333333335, 0.125]"	"[-0.4, -0.4, -0.4, -0.4, -0.4, -0.4, -0.4, -0.4, -0.4, -0.4, -0.4, -0.4, -0.4, -0.4, -0.4, -0.4, -0.4, -0.4, -0.4, -0.4, -0.41083333333333333, -0.36083333333333334, -0.36, -0.36, -0.36, -0.25333333333333335]"	"[1, 1, 1, 1, 1, 1, 1, 1, 1, 1, 1, 1, 1, 1, 1, 1, 1, 1, 1, 1, 1, 1, 1, 1, 1, 0]"	"[0, 0, 0, 0, 0, 0, 0, 0, 0, 0, 0, 0, 0, 0, 0, 0, 0, 0, 0, 0, 0, 0, 0, 0, 0, 0]"	"[0, 0, 0, 0, 0, 0, 0, 0, 0, 0, 0, 0, 0, 0, 0, 0, 0, 0, 0, 0, 0, 0, 0, 0, 0, 1]"	"[0.3339616999996906, 0.5337667999997393, 0.7336894000000029, 0.9337166000000252, 1.1499777999997605, 1.3498655999997027, 1.533492799999749, 1.7497444999999061, 1.9331554000000324, 2.1494684999997844, 2.333005899999989, 2.5325762999996186, 2.6991195999999036, 2.8658666999999696, 3.065737899999931, 3.265626799999609, 3.4487801000000218, 3.6653830999998718, 3.848616299999776, 4.031878499999948, 4.231342899999618, 4.481431799999882, 4.698466199999984, 4.897951699999794, 5.0643857000000025, 5.297636799999964]"	25	"[0.3033909999999196, 0.5031975000001694, 0.7031167000000096, 0.9031429000001481, 1.119401200000084, 1.3192893999998887, 1.5029349000001275, 1.7191804999997657, 1.9025854999999865, 2.1189048999999613, 2.3024357999997846, 2.5020206999997754, 2.668545600000016, 2.8352906000000075, 3.0351612999997997, 3.2350649999998495, 3.418207000000166, 3.6348213000001124, 3.8180508000000373, 4.001301499999954, 4.200759599999856, 4.450851000000057, 4.66791639999974, 4.867393900000025, 5.033817799999724]"	"[0.4197834999999941, 0.6029398000000583, 0.8361304000000018, 1.0360203999998703, 1.2525611999999455, 1.4192008999998507, 1.6190874999997504, 1.818898099999842, 2.018807200000083, 2.218633200000113, 2.418398100000104, 2.601706099999774, 2.751666000000114, 2.9350211000000854, 3.151390099999844, 3.3179949999998826, 3.5177450999999564, 3.7010848999998416, 3.9008749999998145, 4.084125999999742, 4.300577299999986, 4.550260200000139, 4.767123099999935, 4.950249099999837, 5.150046799999927]"	109.1868703	109.1994061	110.682328	110.6983948	NA	NA	NA	NA	NA	NA	NA	"02"	"03"	"2023-12-14_13h49.07.130"	"BART_exp"	"2023.2.2"	59.9926089107209	"2023-12-14 13h49.24.572247 +0100"	NA
"balloon.png"	49	0	17	17	11	110.6983948	NA	NA	NA	NA	NA	NA	NA	NA	NA	NA	NA	NA	110.682576	110.6983948	110.6983948	110.6983948	110.6983948	110.6983948	0.0116318999998839	0.0116318999998839	0.0116318999998839	110.6983948	120.0783046	44	2.2	FALSE	"[0.09583333333333334, 0.09583333333333334, 0.09583333333333334, 0.09583333333333334, 0.09583333333333334, 0.09583333333333334, 0.09583333333333334, 0.09583333333333334, 0.09583333333333334, 0.09583333333333334, 0.09583333333333334, 0.09583333333333334, 0.09583333333333334, 0.09583333333333334, 0.09583333333333334, 0.09583333333333334, 0.09583333333333334, 0.09583333333333334, 0.09583333333333334, 0.09583333333333334, 0.08583333333333333, 0.08583333333333333, 0.08583333333333333, 0.08583333333333333, 0.08583333333333333, 0.08583333333333333, 0.08583333333333333, 0.08583333333333333, 0.08583333333333333, 0.08583333333333333, 0.08583333333333333, 0.08583333333333333, 0.08583333333333333, 0.08583333333333333, 0.08583333333333333, 0.08583333333333333, 0.08583333333333333, 0.08583333333333333, 0.08583333333333333, 0.08583333333333333, 0.08583333333333333, 0.08583333333333333, 0.08583333333333333, 0.08583333333333333, 0.11916666666666667]"	"[-0.3983333333333333, -0.3983333333333333, -0.3983333333333333, -0.3983333333333333, -0.3983333333333333, -0.3983333333333333, -0.3983333333333333, -0.3983333333333333, -0.3983333333333333, -0.3983333333333333, -0.3983333333333333, -0.3983333333333333, -0.3983333333333333, -0.3983333333333333, -0.3983333333333333, -0.3983333333333333, -0.3983333333333333, -0.3983333333333333, -0.3983333333333333, -0.3983333333333333, -0.4166666666666667, -0.4166666666666667, -0.4166666666666667, -0.4166666666666667, -0.4166666666666667, -0.4166666666666667, -0.4166666666666667, -0.4166666666666667, -0.4166666666666667, -0.4166666666666667, -0.4166666666666667, -0.4166666666666667, -0.4166666666666667, -0.4166666666666667, -0.4166666666666667, -0.4166666666666667, -0.4166666666666667, -0.4166666666666667, -0.4166666666666667, -0.4175, -0.4175, -0.4175, -0.4175, -0.4175, -0.3408333333333333]"	"[1, 1, 1, 1, 1, 1, 1, 1, 1, 1, 1, 1, 1, 1, 1, 1, 1, 1, 1, 1, 1, 1, 1, 1, 1, 1, 1, 1, 1, 1, 1, 1, 1, 1, 1, 1, 1, 1, 1, 1, 1, 1, 1, 1, 0]"	"[0, 0, 0, 0, 0, 0, 0, 0, 0, 0, 0, 0, 0, 0, 0, 0, 0, 0, 0, 0, 0, 0, 0, 0, 0, 0, 0, 0, 0, 0, 0, 0, 0, 0, 0, 0, 0, 0, 0, 0, 0, 0, 0, 0, 0]"	"[0, 0, 0, 0, 0, 0, 0, 0, 0, 0, 0, 0, 0, 0, 0, 0, 0, 0, 0, 0, 0, 0, 0, 0, 0, 0, 0, 0, 0, 0, 0, 0, 0, 0, 0, 0, 0, 0, 0, 0, 0, 0, 0, 0, 1]"	"[0.23337119999996503, 0.3999591000001601, 0.5832608000000619, 0.7834932000000663, 0.9831683000002158, 1.1830070999999407, 1.3829617999999755, 1.5827705000001515, 1.782482600000094, 1.9993107999998756, 2.1996941000002153, 2.398982700000033, 2.5823653000002196, 2.7655636999998023, 2.9653293000001213, 3.148338599999988, 3.3485107999999855, 3.5649239999997917, 3.7814706999997725, 3.9816790999998375, 4.182456200000161, 4.381087599999773, 4.580945600000177, 4.797379600000113, 5.013991299999816, 5.263609600000109, 5.480039600000055, 5.696652900000117, 5.913084400000116, 6.129802200000086, 6.346273199999814, 6.579645400000118, 6.796163699999852, 7.02918980000004, 7.27882929999987, 7.512234400000125, 7.761920999999802, 7.945410799999991, 8.145280700000058, 8.361970399999791, 8.57824440000013, 8.761583500000143, 8.961204100000032, 9.144647799999802, 9.394409800000176]"	44	"[0.23087870000017574, 0.3974726000001283, 0.5807807999999568, 0.7810046999998121, 0.980692099999942, 1.1805269000001317, 1.3804841000001034, 1.5802760999999919, 1.7800139000000854, 1.9968681000000288, 2.1972615999998197, 2.3965228000001844, 2.5798924999999144, 2.763089300000047, 2.9628481999998257, 3.1458677000000534, 3.346030199999859, 3.5624438999998347, 3.778979799999888, 3.979211700000178, 4.1799833999998555, 4.378609100000176, 4.578458699999828, 4.794889100000091, 5.011506100000133, 5.261118599999918, 5.477569900000162, 5.694171600000118, 5.9106071999999585, 6.127314899999874, 6.343799000000217, 6.577161499999875, 6.793680400000085, 7.0267023999999765, 7.27634130000024, 7.509762300000148, 7.759439500000099, 7.942926499999885, 8.142800799999804, 8.359486599999855, 8.575767799999994, 8.759102800000164, 8.958722899999884, 9.142168100000163]"	"[0.29738129999986995, 0.480681800000184, 0.6638929000000644, 0.8637566000002153, 1.080348800000138, 1.2801586999999017, 1.4802168000001075, 1.6799550000000636, 1.8966266000002179, 2.0799772000000303, 2.2799764000001232, 2.46296540000003, 2.662693600000239, 2.845923899999889, 3.0790891999999985, 3.2458114000000933, 3.44555709999986, 3.6786286000001382, 3.8785704000001715, 4.111717599999793, 4.295087899999999, 4.5114472999998725, 4.694542199999887, 4.911142999999811, 5.12767759999997, 5.3442988000001606, 5.59411880000016, 5.810613799999828, 6.027025800000047, 6.243689400000221, 6.460299700000178, 6.676746600000115, 6.909926100000121, 7.159616700000242, 7.3929315000000315, 7.626110900000185, 7.809313100000054, 8.059077700000216, 8.242488400000184, 8.442207200000212, 8.642166999999972, 8.842009999999846, 9.041875400000208, 9.258375800000067]"	120.080113	120.0923164	121.5751953	121.5914047	NA	NA	NA	NA	NA	NA	NA	"02"	"03"	"2023-12-14_13h49.07.130"	"BART_exp"	"2023.2.2"	59.9926089107209	"2023-12-14 13h49.24.572247 +0100"	NA
"balloon.png"	62	0	18	18	14	121.5914047	NA	NA	NA	NA	NA	NA	NA	NA	NA	NA	NA	NA	121.5754396	121.5914047	121.5914047	121.5914047	121.5914047	121.5914047	0.0113999999998668	0.0113999999998668	0.0113999999998668	121.5914047	132.3540336	50	2.5	FALSE	"[-0.024166666666666666, -0.024166666666666666, -0.024166666666666666, -0.024166666666666666, -0.024166666666666666, -0.024166666666666666, -0.024166666666666666, -0.024166666666666666, -0.024166666666666666, -0.024166666666666666, -0.024166666666666666, -0.024166666666666666, -0.024166666666666666, -0.024166666666666666, -0.024166666666666666, -0.024166666666666666, -0.024166666666666666, -0.024166666666666666, -0.024166666666666666, -0.024166666666666666, -0.024166666666666666, -0.024166666666666666, -0.024166666666666666, -0.024166666666666666, -0.024166666666666666, -0.024166666666666666, -0.024166666666666666, -0.024166666666666666, -0.024166666666666666, -0.024166666666666666, -0.024166666666666666, -0.024166666666666666, -0.024166666666666666, -0.024166666666666666, -0.024166666666666666, -0.024166666666666666, -0.024166666666666666, -0.024166666666666666, -0.024166666666666666, -0.024166666666666666, -0.0175, -0.0175, -0.0175, -0.0175, -0.0175, -0.0175, -0.0175, -0.0175, -0.0175, -0.0175, 0.025833333333333333]"	"[-0.37166666666666665, -0.37166666666666665, -0.37166666666666665, -0.37166666666666665, -0.37166666666666665, -0.37166666666666665, -0.37166666666666665, -0.37166666666666665, -0.37166666666666665, -0.37166666666666665, -0.37166666666666665, -0.37166666666666665, -0.37166666666666665, -0.37166666666666665, -0.37166666666666665, -0.37166666666666665, -0.37166666666666665, -0.37166666666666665, -0.37166666666666665, -0.37166666666666665, -0.37166666666666665, -0.37166666666666665, -0.37166666666666665, -0.37166666666666665, -0.37166666666666665, -0.37166666666666665, -0.37166666666666665, -0.37166666666666665, -0.37166666666666665, -0.37166666666666665, -0.37166666666666665, -0.37166666666666665, -0.37166666666666665, -0.37166666666666665, -0.37166666666666665, -0.37166666666666665, -0.37166666666666665, -0.37166666666666665, -0.37166666666666665, -0.37166666666666665, -0.37583333333333335, -0.37583333333333335, -0.37583333333333335, -0.37583333333333335, -0.37583333333333335, -0.37583333333333335, -0.37583333333333335, -0.37583333333333335, -0.37583333333333335, -0.37583333333333335, -0.24916666666666668]"	"[1, 1, 1, 1, 1, 1, 1, 1, 1, 1, 1, 1, 1, 1, 1, 1, 1, 1, 1, 1, 1, 1, 1, 1, 1, 1, 1, 1, 1, 1, 1, 1, 1, 1, 1, 1, 1, 1, 1, 1, 1, 1, 1, 1, 1, 1, 1, 1, 1, 1, 0]"	"[0, 0, 0, 0, 0, 0, 0, 0, 0, 0, 0, 0, 0, 0, 0, 0, 0, 0, 0, 0, 0, 0, 0, 0, 0, 0, 0, 0, 0, 0, 0, 0, 0, 0, 0, 0, 0, 0, 0, 0, 0, 0, 0, 0, 0, 0, 0, 0, 0, 0, 0]"	"[0, 0, 0, 0, 0, 0, 0, 0, 0, 0, 0, 0, 0, 0, 0, 0, 0, 0, 0, 0, 0, 0, 0, 0, 0, 0, 0, 0, 0, 0, 0, 0, 0, 0, 0, 0, 0, 0, 0, 0, 0, 0, 0, 0, 0, 0, 0, 0, 0, 0, 1]"	"[0.25005259999988994, 0.44995979999976043, 0.7000943999996707, 0.9331279999996696, 1.1662626999996064, 1.3997537000000193, 1.5663093999996818, 1.7661129999996774, 1.999380199999905, 2.182545399999981, 2.382502999999815, 2.5820506000000023, 2.7819116999999096, 2.965479899999991, 3.181780699999763, 3.381683599999633, 3.581588699999884, 3.781488299999637, 3.981180199999926, 4.214291299999786, 4.4143999999996595, 4.597576599999684, 4.814303399999972, 5.013636199999837, 5.2138843999996425, 5.446878799999922, 5.646997499999998, 5.8468088999998145, 6.0467289999996865, 6.2467280999999275, 6.446420899999794, 6.646112799999628, 6.845874399999957, 7.045787399999881, 7.262294799999836, 7.462455299999874, 7.66227600000002, 7.878702599999997, 8.095404999999573, 8.295380000000023, 8.545266099999935, 8.761762699999963, 8.994824799999606, 9.211335399999825, 9.427938299999823, 9.660715699999855, 9.91068869999981, 10.110373499999696, 10.293949099999736, 10.49374429999989, 10.77725620000001]"	49	"[0.24758969999993496, 0.44750100000010207, 0.6976506999999401, 0.9306885000000875, 1.1638155000000552, 1.39731380000012, 1.563857999999982, 1.763661100000263, 1.9969279000001734, 2.180105200000071, 2.380058799999915, 2.5795986000002813, 2.7794647999999142, 2.963046200000008, 3.179345000000012, 3.379243100000167, 3.5791463999998996, 3.7790383999999904, 3.978736300000037, 4.211839800000234, 4.41195770000013, 4.595122600000195, 4.811861900000167, 5.011186600000201, 5.211454600000252, 5.427931700000045, 5.64454939999996, 5.84435859999985, 6.044277500000135, 6.244293199999902, 6.4439752000002954, 6.6436664000002565, 6.843423000000257, 7.043328300000212, 7.259851100000105, 7.460020100000293, 7.659829700000046, 7.876256699999885, 8.092964100000245, 8.292944300000272, 8.542829900000015, 8.759316900000158, 8.992379300000266, 9.208878800000093, 9.425490600000103, 9.658271400000103, 9.908267199999955, 10.291504700000132, 10.49130550000018]"	"[0.34742940000023737, 0.5473280000001068, 0.7971207000000504, 1.01385879999998, 1.2470186999998987, 1.4635201000000961, 1.663368999999875, 1.8966866999999183, 2.079810600000201, 2.279714199999944, 2.4795797000001585, 2.6628092000000834, 2.846170300000267, 3.062598900000012, 3.262296200000037, 3.5121431000002303, 3.678709600000275, 3.8951452999999674, 4.0951734000000215, 4.294996999999967, 4.4949077999999645, 4.694723300000078, 4.8947800000000825, 5.094581100000141, 5.311072800000147, 5.527582700000039, 5.760802499999954, 5.943960099999913, 6.160573000000113, 6.3603634999999485, 6.576848000000155, 6.760030800000095, 6.959940600000209, 7.142978200000016, 7.359753400000045, 7.576292199999898, 7.776157100000091, 8.025998800000252, 8.225788799999918, 8.442414200000258, 8.658907500000169, 8.892091499999879, 9.12528650000013, 9.341852999999901, 9.541599900000165, 9.77470940000012, 10.207800399999996, 10.407755400000042, 10.607580599999892]"	132.3560184	132.3676283	133.8505379	133.8667881	NA	NA	NA	NA	NA	NA	NA	"02"	"03"	"2023-12-14_13h49.07.130"	"BART_exp"	"2023.2.2"	59.9926089107209	"2023-12-14 13h49.24.572247 +0100"	NA
"balloon.png"	5	0	19	19	1	133.8667881	NA	NA	NA	NA	NA	NA	NA	NA	NA	NA	NA	NA	133.8507869	133.8667881	133.8667881	133.8667881	133.8667881	133.8667881	0.0108790999997836	0.0108790999997836	0.0108790999997836	133.8667881	134.9360657	6	0.25	TRUE	"[-0.03, -0.03, -0.03, -0.03, -0.03]"	"[-0.39, -0.39, -0.39, -0.39, -0.39]"	"[1, 1, 1, 1, 1]"	"[0, 0, 0, 0, 0]"	"[0, 0, 0, 0, 0]"	"[0.13332589999981792, 0.3338611999997738, 0.5337574000000131, 0.7335905999998431, 0.950482700000066]"	5	"[0.13072479999982534, 0.33126899999979287, 0.5311668999997892, 0.7310450999998466, 0.9479455000000598]"	"[0.24755539999978282, 0.43077709999988656, 0.6306291999999303, 0.847586599999886, 1.0639368000001923]"	134.9369786	134.9494247	136.4485139	NA	NA	NA	NA	NA	NA	NA	NA	"02"	"03"	"2023-12-14_13h49.07.130"	"BART_exp"	"2023.2.2"	59.9926089107209	"2023-12-14 13h49.24.572247 +0100"	NA
"balloon.png"	79	0	20	20	18	136.5276759	NA	NA	NA	NA	NA	NA	NA	NA	NA	NA	NA	NA	136.4487996	136.5276759	136.5276759	136.5276759	136.5276759	136.5276759	0.0139432999999371	0.0139432999999371	0.0139432999999371	136.5276759	142.8300052	32	1.6	FALSE	"[-0.03, -0.03, -0.03, -0.03, -0.03, -0.03, -0.03, -0.03, -0.03, -0.03, -0.03, -0.03, -0.03, -0.03, -0.03, -0.03, -0.03, -0.03, -0.03, -0.03, -0.03, -0.03, -0.03, -0.03, -0.03, -0.03, -0.03, -0.03, -0.03, -0.03, -0.03, -0.03]"	"[-0.39, -0.39, -0.39, -0.39, -0.39, -0.39, -0.39, -0.39, -0.39, -0.39, -0.39, -0.39, -0.39, -0.39, -0.39, -0.39, -0.39, -0.39, -0.39, -0.39, -0.39, -0.39, -0.39, -0.39, -0.39, -0.39, -0.39, -0.39, -0.39, -0.39, -0.39, -0.39]"	"[1, 1, 1, 1, 1, 1, 1, 1, 1, 1, 1, 1, 1, 1, 1, 1, 1, 1, 1, 1, 1, 1, 1, 1, 1, 1, 1, 1, 1, 1, 1, 0]"	"[0, 0, 0, 0, 0, 0, 0, 0, 0, 0, 0, 0, 0, 0, 0, 0, 0, 0, 0, 0, 0, 0, 0, 0, 0, 0, 0, 0, 0, 0, 0, 0]"	"[0, 0, 0, 0, 0, 0, 0, 0, 0, 0, 0, 0, 0, 0, 0, 0, 0, 0, 0, 0, 0, 0, 0, 0, 0, 0, 0, 0, 0, 0, 0, 1]"	"[0.15090490000011414, 0.3839733000004344, 0.6006126000002041, 0.8171456000000035, 1.0334344000002602, 1.2501631000000089, 1.4830524000003606, 1.683170500000415, 1.8830752000003486, 2.0826532000000952, 2.2660757000003287, 2.465995600000042, 2.665676000000076, 2.84908170000017, 3.049022700000023, 3.2488118000001123, 3.448670200000379, 3.6649294000003465, 3.865041900000051, 4.048425400000269, 4.23158470000044, 4.414817700000185, 4.614574200000334, 4.814383900000394, 5.030829200000426, 5.214203400000315, 5.430695200000173, 5.630514300000414, 5.813909599999988, 5.996650500000214, 6.1799612000004345, 6.379773999999998]"	32	"[0.08271920000015598, 0.31578550000040195, 0.5324318000002677, 0.7489690000002156, 0.9652549000002182, 1.1819887000001472, 1.4148681000001488, 1.6149814000000333, 1.814897000000201, 2.014473700000053, 2.1979290000003857, 2.3978173000000425, 2.5974983000000975, 2.7808978000002753, 2.9808599000002687, 3.180631100000028, 3.380485300000146, 3.5967459000003146, 3.796849800000018, 3.9802510000004077, 4.163398800000323, 4.346629900000153, 4.5463786000000255, 4.746202799999992, 4.962648500000341, 5.146032600000126, 5.362514000000374, 5.562327900000128, 5.745717300000251, 5.928457200000139, 6.111784600000192, 6.31150050000042]"	"[0.1822041000000354, 0.4153014000003168, 0.6486125999999786, 0.8318838000000142, 1.064915800000108, 1.264882800000123, 1.4813218000003872, 1.68111190000036, 1.8811337000001913, 2.080993600000056, 2.280880700000125, 2.4974009000002297, 2.6805813000000853, 2.8804314000003615, 3.0803061000001435, 3.2800616000004084, 3.479979600000206, 3.6799300000002404, 3.863114400000086, 4.0629180000000815, 4.262945899999977, 4.446047100000214, 4.645936900000379, 4.845737000000099, 5.045658500000172, 5.262146900000062, 5.445334800000182, 5.645264800000405, 5.811715499999991, 6.0117511000003105, 6.228204100000312, 6.311506400000326]"	142.8315307	142.8443435	144.34334	NA	NA	NA	NA	NA	NA	NA	NA	"02"	"03"	"2023-12-14_13h49.07.130"	"BART_exp"	"2023.2.2"	59.9926089107209	"2023-12-14 13h49.24.572247 +0100"	NA
"balloon.png"	118	0	21	21	27	144.4313403	NA	NA	NA	NA	NA	NA	NA	NA	NA	NA	NA	NA	144.343593	144.4313403	144.4313403	144.4313403	144.4313403	144.4313403	0.014022699999714	0.014022699999714	0.014022699999714	144.4313403	150.0755221	28	1.4	FALSE	"[-0.03, -0.03, -0.03, -0.03, -0.03, -0.03, -0.03, -0.03, -0.03, -0.03, -0.03, -0.03, -0.03, -0.03, -0.03, -0.03, -0.03, -0.03, -0.03, -0.03, -0.03, -0.03, -0.03, -0.03, -0.03, -0.03, -0.03, -0.03, -0.03]"	"[-0.39, -0.39, -0.39, -0.39, -0.39, -0.39, -0.39, -0.39, -0.39, -0.39, -0.39, -0.39, -0.39, -0.39, -0.39, -0.39, -0.39, -0.39, -0.39, -0.39, -0.39, -0.39, -0.39, -0.39, -0.39, -0.39, -0.39, -0.39, -0.39]"	"[1, 1, 1, 1, 1, 1, 1, 1, 1, 1, 1, 1, 1, 1, 1, 1, 1, 1, 1, 1, 1, 1, 1, 1, 1, 1, 1, 1, 0]"	"[0, 0, 0, 0, 0, 0, 0, 0, 0, 0, 0, 0, 0, 0, 0, 0, 0, 0, 0, 0, 0, 0, 0, 0, 0, 0, 0, 0, 0]"	"[0, 0, 0, 0, 0, 0, 0, 0, 0, 0, 0, 0, 0, 0, 0, 0, 0, 0, 0, 0, 0, 0, 0, 0, 0, 0, 0, 0, 1]"	"[0.0885190999997576, 0.2505889999997635, 0.4505325999998604, 0.6667793000001438, 0.8999668999999813, 1.0997951999997895, 1.3163199999999051, 1.5164301999998315, 1.7494723999998314, 1.9327656000000388, 2.132416699999794, 2.3659044000000904, 2.5657728000001043, 2.782334500000161, 3.0153999999997723, 3.1988375999999334, 3.3986620999999104, 3.598530799999935, 3.7816736999998284, 3.9813396999998076, 4.1811563999999635, 4.364417100000082, 4.547796800000015, 4.747487199999796, 4.964035500000136, 5.147487499999897, 5.347287099999903, 5.514042700000118, 5.7303351000000475]"	29	"[0.00047309999990829965, 0.1734200000000783, 0.37338580000005095, 0.5896268000001328, 0.8228104999998322, 1.022641399999884, 1.2391662999998516, 1.4392775000001166, 1.6723277000000962, 1.8556128000000172, 2.0552607999998145, 2.288758400000006, 2.4886285000002317, 2.7051895999998123, 2.938253100000111, 3.1216835000000174, 3.321512399999847, 3.5214116000001923, 3.7045208999998067, 3.9041950999999244, 4.104000499999984, 4.287263400000029, 4.470654900000227, 4.670336199999838, 4.886887300000126, 5.070340899999792, 5.270132499999818, 5.436897399999907, 5.6531018999999105]"	"[0.07289470000023357, 0.27307699999983015, 0.4728928999998061, 0.6894643000000542, 0.9059115999998539, 1.1057190999999875, 1.3222633000000314, 1.5222423999998682, 1.7387100000000828, 1.9385535000001255, 2.1550336999998763, 2.3717114000000947, 2.5716050999999425, 2.804749500000071, 3.0212556000001314, 3.204537699999946, 3.404367099999945, 3.604267499999878, 3.787490799999887, 3.9873913999999786, 4.17059990000007, 4.3537694999999985, 4.570373600000039, 4.7535892999999305, 4.970043799999985, 5.1698584000000665, 5.3531723999999485, 5.569595100000242, 5.653108099999827]"	150.0771767	150.0895911	151.5886195	NA	NA	NA	NA	NA	NA	NA	NA	"02"	"03"	"2023-12-14_13h49.07.130"	"BART_exp"	"2023.2.2"	59.9926089107209	"2023-12-14 13h49.24.572247 +0100"	NA
"balloon.png"	97	0	22	22	22	151.6511581	NA	NA	NA	NA	NA	NA	NA	NA	NA	NA	NA	NA	151.5888771	151.6511581	151.6511581	151.6511581	151.6511581	151.6511581	0.0135219999997389	0.0135219999997389	0.0135219999997389	151.6511581	161.3683093	43	2.15	FALSE	"[-0.03, -0.03, -0.03, -0.03, -0.03, -0.03, -0.03, -0.03, -0.03, -0.03, -0.03, -0.03, -0.03, -0.03, -0.03, -0.03, -0.03, -0.03, -0.03, -0.03, -0.03, -0.03, -0.03, -0.03, -0.03, -0.03, -0.03, -0.03, -0.03, -0.03, -0.03, -0.03, -0.03, -0.03, -0.03, -0.03, -0.03, -0.03, -0.03, -0.03, -0.03, -0.03, -0.03]"	"[-0.39, -0.39, -0.39, -0.39, -0.39, -0.39, -0.39, -0.39, -0.39, -0.39, -0.39, -0.39, -0.39, -0.39, -0.39, -0.39, -0.39, -0.39, -0.39, -0.39, -0.39, -0.39, -0.39, -0.39, -0.39, -0.39, -0.39, -0.39, -0.39, -0.39, -0.39, -0.39, -0.39, -0.39, -0.39, -0.39, -0.39, -0.39, -0.39, -0.39, -0.39, -0.39, -0.39]"	"[1, 1, 1, 1, 1, 1, 1, 1, 1, 1, 1, 1, 1, 1, 1, 1, 1, 1, 1, 1, 1, 1, 1, 1, 1, 1, 1, 1, 1, 1, 1, 1, 1, 1, 1, 1, 1, 1, 1, 1, 1, 1, 0]"	"[0, 0, 0, 0, 0, 0, 0, 0, 0, 0, 0, 0, 0, 0, 0, 0, 0, 0, 0, 0, 0, 0, 0, 0, 0, 0, 0, 0, 0, 0, 0, 0, 0, 0, 0, 0, 0, 0, 0, 0, 0, 0, 0]"	"[0, 0, 0, 0, 0, 0, 0, 0, 0, 0, 0, 0, 0, 0, 0, 0, 0, 0, 0, 0, 0, 0, 0, 0, 0, 0, 0, 0, 0, 0, 0, 0, 0, 0, 0, 0, 0, 0, 0, 0, 0, 0, 1]"	"[0.20059730000002673, 0.4007888000001003, 0.6006903000002239, 0.7838968000000932, 1.017169499999909, 1.2333450000000994, 1.450091600000178, 1.666779900000165, 1.8833663000000342, 2.0997717000000193, 2.3162351000000854, 2.5491571000002295, 2.7492378000001736, 2.965676700000131, 3.165730199999871, 3.365579300000263, 3.5654380999999375, 3.7820850000002793, 3.981803200000286, 4.198630100000173, 4.431209599999875, 4.631121500000063, 4.847982100000081, 5.097845799999959, 5.314419000000271, 5.54770039999994, 5.780791000000136, 6.01395760000014, 6.263506400000097, 6.480173899999954, 6.696843499999886, 6.946542700000009, 7.180027800000062, 7.412737200000265, 7.629303900000195, 7.846072600000298, 8.112459599999966, 8.362459100000251, 8.595571600000312, 8.812056300000222, 9.028482199999871, 9.211842100000013, 9.778115699999944]"	43	"[0.14845530000002327, 0.34865309999986493, 0.5485673999996834, 0.7317729999999756, 0.9650495000000774, 1.1812144000000444, 1.3979592000000594, 1.61465649999991, 1.8312479000001076, 2.0476463999998487, 2.2641076999998404, 2.497033999999985, 2.69713210000009, 2.9135565999999926, 3.113605000000007, 3.313457599999765, 3.5133074999998826, 3.729965799999718, 3.9296807000000626, 4.146511699999792, 4.379078799999661, 4.578988299999764, 4.795864599999732, 5.045719499999905, 5.2623021999997945, 5.495577499999854, 5.728670299999976, 5.961833299999853, 6.211379099999704, 6.428046499999709, 6.644720700000107, 6.894414399999732, 7.127900499999669, 7.360608499999671, 7.57719249999991, 7.7939437, 8.060337099999742, 8.310338299999785, 8.543456299999889, 8.759942899999714, 8.976408600000013, 9.159714500000064, 9.725903099999869]"	"[0.21496380000007775, 0.43174009999984264, 0.6315159000000676, 0.8480076000000736, 1.031223499999669, 1.2810108999997283, 1.4975703000000067, 1.7141336999998202, 1.947284099999706, 2.16379999999981, 2.3637433999997484, 2.613524899999902, 2.7968885000000228, 3.013298599999871, 3.2131525999998303, 3.4130660999999236, 3.6128610000000663, 3.8126901000000544, 4.029298899999958, 4.24572629999966, 4.462240800000018, 4.678759099999752, 4.928739299999961, 5.161935699999958, 5.378456200000073, 5.628310000000056, 5.844864499999858, 6.078220500000043, 6.311292399999729, 6.544331799999782, 6.761088799999925, 6.994062799999938, 7.243936299999859, 7.443752099999983, 7.6769272999999885, 7.943493899999794, 8.19333400000005, 8.409810899999684, 8.626303000000007, 8.842896799999835, 9.042845299999954, 9.259316099999978, 9.725908599999912]"	161.3702377	161.3822052	162.8650917	162.8813285	NA	NA	NA	NA	NA	NA	NA	"02"	"03"	"2023-12-14_13h49.07.130"	"BART_exp"	"2023.2.2"	59.9926089107209	"2023-12-14 13h49.24.572247 +0100"	NA
"balloon.png"	40	0	23	23	9	162.8813285	NA	NA	NA	NA	NA	NA	NA	NA	NA	NA	NA	NA	162.865337	162.8813285	162.8813285	162.8813285	162.8813285	162.8813285	0.0111972999998215	0.0111972999998215	0.0111972999998215	162.8813285	170.9784538	38	1.9	FALSE	"[-0.03, -0.03, -0.03, -0.03, -0.03, -0.03, -0.03, -0.03, -0.03, -0.03, -0.03, -0.03, -0.03, -0.03, -0.03, -0.03, -0.03, -0.03, -0.03, -0.03, -0.03, -0.03, -0.03, -0.03, -0.03, -0.03, -0.03, -0.03, -0.03, -0.03, -0.03, -0.03, -0.03, -0.03, -0.03, -0.03, -0.03, -0.03]"	"[-0.39, -0.39, -0.39, -0.39, -0.39, -0.39, -0.39, -0.39, -0.39, -0.39, -0.39, -0.39, -0.39, -0.39, -0.39, -0.39, -0.39, -0.39, -0.39, -0.39, -0.39, -0.39, -0.39, -0.39, -0.39, -0.39, -0.39, -0.39, -0.39, -0.39, -0.39, -0.39, -0.39, -0.39, -0.39, -0.39, -0.39, -0.39]"	"[1, 1, 1, 1, 1, 1, 1, 1, 1, 1, 1, 1, 1, 1, 1, 1, 1, 1, 1, 1, 1, 1, 1, 1, 1, 1, 1, 1, 1, 1, 1, 1, 1, 1, 1, 1, 1, 0]"	"[0, 0, 0, 0, 0, 0, 0, 0, 0, 0, 0, 0, 0, 0, 0, 0, 0, 0, 0, 0, 0, 0, 0, 0, 0, 0, 0, 0, 0, 0, 0, 0, 0, 0, 0, 0, 0, 0]"	"[0, 0, 0, 0, 0, 0, 0, 0, 0, 0, 0, 0, 0, 0, 0, 0, 0, 0, 0, 0, 0, 0, 0, 0, 0, 0, 0, 0, 0, 0, 0, 0, 0, 0, 0, 0, 0, 1]"	"[0.15054139999983818, 0.350467899999785, 0.5835351999999148, 0.7998964999997042, 1.0167934999999488, 1.2496722999999292, 1.4664253000000826, 1.6992882999998074, 1.9160861000000295, 2.11572359999991, 2.3324251999997614, 2.565372099999877, 2.74871179999991, 2.950141299999814, 3.1653723999997965, 3.3818413999997574, 3.581772699999874, 3.7981973999999354, 4.014662699999917, 4.214618699999846, 4.431225499999982, 4.664170900000045, 4.88068659999999, 5.080820899999708, 5.313827899999978, 5.513788499999919, 5.746728300000086, 5.979897899999742, 6.229477800000041, 6.429907199999889, 6.663093099999969, 6.879703900000095, 7.112532299999657, 7.345797499999662, 7.562425399999938, 7.728789499999948, 7.912226699999792, 8.111800599999697]"	38	"[0.1478778999999122, 0.347813600000336, 0.5808839000001171, 0.7972351000003073, 1.0141354000002138, 1.2470210999999836, 1.4637658999999985, 1.69662900000003, 1.9134300000000621, 2.113076600000113, 2.3297670000001744, 2.5462870999999723, 2.74605610000026, 2.947497800000292, 3.1627132000003257, 3.379185100000086, 3.5791143000001284, 3.795525600000019, 4.011994299999969, 4.211958700000196, 4.428574600000047, 4.661523600000237, 4.87803490000033, 5.078158300000268, 5.3111901000002035, 5.511130500000036, 5.744073700000172, 5.977236400000038, 6.210479300000316, 6.4272641000002295, 6.660444500000267, 6.877055200000086, 7.109874400000081, 7.343140500000118, 7.559769200000119, 7.726128100000096, 7.90955699999995, 8.109046800000215]"	"[0.2640460000002349, 0.4640705000001617, 0.6804815000000417, 0.8969569999999294, 1.1302774000000682, 1.3467773000002126, 1.5631659000000582, 1.7964160999999876, 2.0128864000002977, 2.2128593000002184, 2.412659000000076, 2.6291565999999875, 2.8457290000001194, 3.062196000000313, 3.2456292000001667, 3.4619596000002275, 3.678497899999911, 3.89506960000017, 4.111564199999975, 4.328297400000338, 4.527936200000113, 4.744726400000218, 4.961096400000315, 5.177592300000015, 5.410911899999974, 5.627374800000325, 5.843785100000332, 6.093616099999963, 6.310157100000197, 6.543349100000341, 6.77670100000023, 7.009777100000065, 7.226319400000193, 7.426263600000311, 7.626034899999922, 7.842575300000135, 8.042432600000211, 8.109052600000268]"	170.9801094	170.992892	172.4918186	NA	NA	NA	NA	NA	NA	NA	NA	"02"	"03"	"2023-12-14_13h49.07.130"	"BART_exp"	"2023.2.2"	59.9926089107209	"2023-12-14 13h49.24.572247 +0100"	NA
"balloon.png"	110	0	24	24	25	172.5531297	NA	NA	NA	NA	NA	NA	NA	NA	NA	NA	NA	NA	172.4920869	172.5531297	172.5531297	172.5531297	172.5531297	172.5531297	0.0140372000000752	0.0140372000000752	0.0140372000000752	172.5531297	177.9573148	27	1.35	FALSE	"[-0.03, -0.03, -0.03, -0.03, -0.03, -0.03, -0.03, -0.03, -0.03, -0.03, -0.03, -0.03, -0.03, -0.03, -0.03, -0.03, -0.03, -0.03, -0.03, -0.03, -0.03, -0.03, -0.03, -0.03, -0.03, -0.03, -0.03]"	"[-0.39, -0.39, -0.39, -0.39, -0.39, -0.39, -0.39, -0.39, -0.39, -0.39, -0.39, -0.39, -0.39, -0.39, -0.39, -0.39, -0.39, -0.39, -0.39, -0.39, -0.39, -0.39, -0.39, -0.39, -0.39, -0.39, -0.39]"	"[1, 1, 1, 1, 1, 1, 1, 1, 1, 1, 1, 1, 1, 1, 1, 1, 1, 1, 1, 1, 1, 1, 1, 1, 1, 1, 0]"	"[0, 0, 0, 0, 0, 0, 0, 0, 0, 0, 0, 0, 0, 0, 0, 0, 0, 0, 0, 0, 0, 0, 0, 0, 0, 0, 0]"	"[0, 0, 0, 0, 0, 0, 0, 0, 0, 0, 0, 0, 0, 0, 0, 0, 0, 0, 0, 0, 0, 0, 0, 0, 0, 0, 1]"	"[0.13378220000004148, 0.3338528000003862, 0.550446500000362, 0.7669844000001831, 0.9835130999999819, 1.1833612000000358, 1.3829225000004044, 1.5829124000001684, 1.7829850000002807, 2.0159958000003826, 2.215868500000397, 2.432525700000042, 2.632365600000412, 2.8655625999999756, 3.098790200000167, 3.348683600000186, 3.548511100000269, 3.7816584000001967, 3.981547000000319, 4.247807200000352, 4.431180300000051, 4.63121160000037, 4.814376799999991, 5.0140448000001925, 5.180722200000218, 5.330788300000222, 5.4637086000002455]"	27	"[0.08304359999965527, 0.2831152999997357, 0.49970940000002884, 0.7162457999997969, 0.9327871000000414, 1.1326389000000745, 1.3321917999996913, 1.5321834999999737, 1.732257699999991, 1.965288899999905, 2.165152399999897, 2.3818004999998266, 2.5816384999998263, 2.8148298999999497, 3.048065499999666, 3.297957199999928, 3.4977796999996826, 3.7309243999998216, 3.9308210999997755, 4.1970791999997346, 4.3804496999996445, 4.5804871999998795, 4.7636515999997755, 4.9633082999998805, 5.130002800000057, 5.280062399999679, 5.41289659999984]"	"[0.18282529999987673, 0.3994247999999061, 0.5993039999998473, 0.8157997999996951, 1.032333699999981, 1.215499699999782, 1.4154435000000376, 1.6320525999999518, 1.8484979999998359, 2.06500989999995, 2.2814644999998563, 2.514642499999809, 2.731160699999691, 2.9476770999999644, 3.1809540999997807, 3.41404539999985, 3.613903299999947, 3.8304488999997375, 4.063562899999852, 4.280225699999846, 4.480176399999891, 4.680029599999671, 4.8800452000000405, 5.046381099999962, 5.229697999999644, 5.379614399999809, 5.412903899999947]"	177.9588779	177.9715329	179.4705999	NA	NA	NA	NA	NA	NA	NA	NA	"02"	"03"	"2023-12-14_13h49.07.130"	"BART_exp"	"2023.2.2"	59.9926089107209	"2023-12-14 13h49.24.572247 +0100"	NA
"balloon.png"	53	0	25	25	12	179.5452204	NA	NA	NA	NA	NA	NA	NA	NA	NA	NA	NA	NA	179.4708783	179.5452204	179.5452204	179.5452204	179.5452204	179.5452204	0.0138962999999421	0.0138962999999421	0.0138962999999421	179.5452204	186.2520584	35	1.75	FALSE	"[-0.03, -0.03, -0.03, -0.03, -0.03, -0.03, -0.03, -0.03, -0.03, -0.03, -0.03, -0.03, -0.029166666666666667, -0.028333333333333332, -0.028333333333333332, -0.028333333333333332, -0.028333333333333332, -0.028333333333333332, -0.028333333333333332, -0.028333333333333332, -0.028333333333333332, -0.028333333333333332, -0.028333333333333332, -0.028333333333333332, -0.028333333333333332, -0.028333333333333332, -0.028333333333333332, -0.028333333333333332, -0.028333333333333332, -0.028333333333333332, -0.028333333333333332, -0.028333333333333332, -0.028333333333333332, -0.028333333333333332, -0.028333333333333332, -0.028333333333333332]"	"[-0.39, -0.39, -0.39, -0.39, -0.39, -0.39, -0.39, -0.39, -0.39, -0.39, -0.39, -0.39, -0.38916666666666666, -0.38916666666666666, -0.38916666666666666, -0.38916666666666666, -0.38916666666666666, -0.38916666666666666, -0.38916666666666666, -0.38916666666666666, -0.38916666666666666, -0.38916666666666666, -0.38916666666666666, -0.38916666666666666, -0.38916666666666666, -0.38916666666666666, -0.38916666666666666, -0.38916666666666666, -0.38916666666666666, -0.38916666666666666, -0.38916666666666666, -0.38916666666666666, -0.38916666666666666, -0.38916666666666666, -0.38916666666666666, -0.38916666666666666]"	"[1, 1, 1, 1, 1, 1, 1, 1, 1, 1, 1, 1, 1, 1, 1, 1, 1, 1, 1, 1, 1, 1, 1, 1, 1, 1, 1, 1, 1, 1, 1, 1, 1, 1, 1, 0]"	"[0, 0, 0, 0, 0, 0, 0, 0, 0, 0, 0, 0, 0, 0, 0, 0, 0, 0, 0, 0, 0, 0, 0, 0, 0, 0, 0, 0, 0, 0, 0, 0, 0, 0, 0, 0]"	"[0, 0, 0, 0, 0, 0, 0, 0, 0, 0, 0, 0, 0, 0, 0, 0, 0, 0, 0, 0, 0, 0, 0, 0, 0, 0, 0, 0, 0, 0, 0, 0, 0, 0, 0, 1]"	"[0.07537309999952413, 0.26735589999952936, 0.4507645000003322, 0.6506435999999667, 0.8503914000002624, 1.0503803000001426, 1.2168566999998802, 1.416961099999753, 1.5999971999999616, 1.7831564999996772, 1.9833339999995587, 2.1995521999997436, 2.4160455000001093, 2.61778779999986, 2.8325833999997485, 3.015770899999552, 3.2155737000002773, 3.415398699999969, 3.632127500000024, 3.831892700000026, 4.0317032000002655, 4.231580099999519, 4.43153540000003, 4.631441700000323, 4.8313373999999385, 5.014430899999752, 5.214022899999691, 5.397522999999637, 5.597408099999484, 5.780702199999723, 5.963944399999491, 6.14709429999948, 6.3303640000003725, 6.496822600000087, 6.663360599999578, 6.7798611999996865]"	36	"[0.0004607999999279855, 0.20328949999930046, 0.38670399999955407, 0.5865750999992088, 0.7863221999996313, 0.9863219999997455, 1.1527959999993982, 1.3529084999991028, 1.535937699999522, 1.719086199999765, 1.9192622999999003, 2.135481499999514, 2.3519751999992877, 2.553731599999992, 2.768528399999923, 2.951703599999746, 3.1515165999999226, 3.3513232999994216, 3.5680622999998377, 3.7678321999992477, 3.967632799999592, 4.167511599999671, 4.367461399999229, 4.567389299999377, 4.767277099999774, 4.950363099999777, 5.149964899999759, 5.333461399999578, 5.533341299999847, 5.7166591999994125, 5.89987949999977, 6.083028699999886, 6.266294899999593, 6.43276699999933, 6.599325299999691, 6.715716499999871]"	"[0.10287779999998747, 0.2863763999994262, 0.48630839999987074, 0.6693911999991542, 0.8693437999991147, 1.0691145999999208, 1.2523003999995126, 1.452207599999383, 1.6354319999991276, 1.8352447999996002, 2.035132099999828, 2.218542799999341, 2.4351279999991675, 2.6348127999999633, 2.818105899999864, 3.0345344999996087, 3.2177995999991253, 3.43422179999925, 3.634269299999687, 3.850681299999451, 4.050520799999504, 4.250469899999189, 4.466899899999589, 4.650292499999523, 4.850113699999383, 5.033245999999963, 5.216588699999193, 5.3998068999999305, 5.599595599999702, 5.799523299999237, 5.982722699999613, 6.18243209999946, 6.349109599999792, 6.549029799999516, 6.682238899999902, 6.715722799999639]"	186.253908000001	186.2669121	187.7652797	NA	NA	NA	NA	NA	NA	NA	NA	"02"	"03"	"2023-12-14_13h49.07.130"	"BART_exp"	"2023.2.2"	59.9926089107209	"2023-12-14 13h49.24.572247 +0100"	NA
"balloon.png"	27	0	26	26	6	187.8251022	NA	NA	NA	NA	NA	NA	NA	NA	NA	NA	NA	NA	187.7655422	187.8251022	187.8251022	187.8251022	187.8251022	187.8251022	0.0135964999999487	0.0135964999999487	0.0135964999999487	187.8251022	191.7830291	21	1.05	FALSE	"[-0.028333333333333332, -0.028333333333333332, -0.028333333333333332, -0.028333333333333332, -0.028333333333333332, -0.028333333333333332, -0.028333333333333332, -0.028333333333333332, -0.028333333333333332, -0.028333333333333332, -0.028333333333333332, -0.028333333333333332, -0.0275, -0.0275, -0.02666666666666667, -0.02666666666666667, -0.02666666666666667, -0.02666666666666667, -0.02666666666666667, -0.025833333333333333, -0.025833333333333333]"	"[-0.38916666666666666, -0.38916666666666666, -0.38916666666666666, -0.38916666666666666, -0.38916666666666666, -0.38916666666666666, -0.38916666666666666, -0.38916666666666666, -0.38916666666666666, -0.38916666666666666, -0.38916666666666666, -0.38916666666666666, -0.38916666666666666, -0.38916666666666666, -0.38916666666666666, -0.38916666666666666, -0.38916666666666666, -0.38916666666666666, -0.38916666666666666, -0.38916666666666666, -0.38916666666666666]"	"[1, 1, 1, 1, 1, 1, 1, 1, 1, 1, 1, 1, 1, 1, 1, 1, 1, 1, 1, 1, 0]"	"[0, 0, 0, 0, 0, 0, 0, 0, 0, 0, 0, 0, 0, 0, 0, 0, 0, 0, 0, 0, 0]"	"[0, 0, 0, 0, 0, 0, 0, 0, 0, 0, 0, 0, 0, 0, 0, 0, 0, 0, 0, 0, 1]"	"[0.1838142999995398, 0.3672980999999709, 0.5672475999999733, 0.7835752999999386, 0.9668935999998212, 1.1499724999994214, 1.3337571000001844, 1.5498434999999517, 1.7496832999995604, 1.9494242999999187, 2.1326634999995804, 2.3161880999996356, 2.532358999999815, 2.7157769999994343, 2.8992373999999472, 3.0823555999995733, 3.2655754999996134, 3.4988644999993994, 3.681848999999602, 3.8821907999999894, 4.016188900000088]"	21	"[0.13436750000073516, 0.31786080000074435, 0.5178160000004937, 0.734143500000755, 0.9174587000006795, 1.1005279999999402, 1.2843431000001146, 1.500412000000324, 1.7002651000002516, 1.8999965000002703, 2.0832278000007136, 2.266748000000007, 2.4829273000004832, 2.6663603000006333, 2.8498167000007015, 3.032930500000475, 3.2161573000003045, 3.449432600000364, 3.632419700000355, 3.832755000000361, 3.9666720000004716]"	"[0.23424620000059804, 0.40077670000027865, 0.6007869000004575, 0.7840787000004639, 0.9838916000007885, 1.1836468000001332, 1.38354260000051, 1.600216800000453, 1.783208900000318, 1.966539300000477, 2.1830443000008017, 2.3662349000005634, 2.566091800000322, 2.749513000000661, 2.932493500000419, 3.1491642000000866, 3.3322860000007495, 3.5488264000005074, 3.7487997000007454, 3.9318839000006847, 3.9666775000005146]"	191.7842807	191.7958572	193.2787166	193.2949983	NA	NA	NA	NA	NA	NA	NA	"02"	"03"	"2023-12-14_13h49.07.130"	"BART_exp"	"2023.2.2"	59.9926089107209	"2023-12-14 13h49.24.572247 +0100"	NA
"balloon.png"	1	0	27	27	0	193.2949983	NA	NA	NA	NA	NA	NA	NA	NA	NA	NA	NA	NA	193.2789693	193.2949983	193.2949983	193.2949983	193.2949983	193.2949983	0.0108217000006334	0.0108217000006334	0.0108217000006334	193.2949983	193.597728700001	2	0.05	TRUE	"[-0.025833333333333333]"	"[-0.38916666666666666]"	"[1]"	"[0]"	"[0]"	"[0.20038760000079492]"	2	"[0.08083269999951881, 0.19795419999991282]"	"[0.11306729999978415, 0.29748039999958564]"	193.5984567	193.6112482	195.0942211	195.1103905	NA	NA	NA	NA	NA	NA	NA	"02"	"03"	"2023-12-14_13h49.07.130"	"BART_exp"	"2023.2.2"	59.9926089107209	"2023-12-14 13h49.24.572247 +0100"	NA
"balloon.png"	123	0	28	28	28	195.1103905	NA	NA	NA	NA	NA	NA	NA	NA	NA	NA	NA	NA	195.0944726	195.1103905	195.1103905	195.1103905	195.1103905	195.1103905	0.0120389000003342	NA	NA	195.1103905	199.3270887	22	1.1	FALSE	"[-0.025833333333333333, -0.025833333333333333, -0.025833333333333333, -0.025833333333333333, -0.025833333333333333, -0.025833333333333333, -0.025833333333333333, -0.025833333333333333, -0.025833333333333333, -0.025833333333333333, -0.025833333333333333, -0.025833333333333333, -0.025833333333333333, -0.025833333333333333, -0.025833333333333333, -0.025833333333333333, -0.025833333333333333, -0.025833333333333333, -0.025833333333333333, -0.0225, -0.0225, 0.07]"	"[-0.38916666666666666, -0.38916666666666666, -0.38916666666666666, -0.38916666666666666, -0.38916666666666666, -0.38916666666666666, -0.38916666666666666, -0.38916666666666666, -0.38916666666666666, -0.38916666666666666, -0.38916666666666666, -0.38916666666666666, -0.38916666666666666, -0.38916666666666666, -0.38916666666666666, -0.38916666666666666, -0.38916666666666666, -0.38916666666666666, -0.38916666666666666, -0.385, -0.385, -0.24333333333333335]"	"[1, 1, 1, 1, 1, 1, 1, 1, 1, 1, 1, 1, 1, 1, 1, 1, 1, 1, 1, 1, 1, 0]"	"[0, 0, 0, 0, 0, 0, 0, 0, 0, 0, 0, 0, 0, 0, 0, 0, 0, 0, 0, 0, 0, 0]"	"[0, 0, 0, 0, 0, 0, 0, 0, 0, 0, 0, 0, 0, 0, 0, 0, 0, 0, 0, 0, 0, 1]"	"[0.18369309999980032, 0.3834045999992668, 0.5666732999998203, 0.733491399999366, 0.9167635999992854, 1.1166725999992195, 1.2998997999993662, 1.4829047999992326, 1.6825249999992593, 1.8659553999996206, 2.082269799999267, 2.2825201999994533, 2.465801699999247, 2.6489787999998953, 2.848957899999732, 3.0321024999993824, 3.2318834999996398, 3.4315718999996534, 3.5983355999997, 3.8480804999999236, 4.03117359999942, 4.231274799999483]"	21	"[0.18093260000023292, 0.38064920000033453, 0.5639209000000847, 0.7307521000002453, 0.9140255000002071, 1.113948199999868, 1.2971598000003723, 1.4801624000001539, 1.679783600000519, 1.8632123000006686, 2.0795262999999977, 2.279784800000016, 2.4630565000006754, 2.6462390000006053, 2.846233000000211, 3.0293685000006008, 3.2291430000004766, 3.4288407000003644, 3.5956325000006473, 3.845350600000529, 4.028437599999961]"	"[0.2639383000005182, 0.4471487000000707, 0.6303382000005513, 0.8303677000003518, 1.013446400000248, 1.196788000000197, 1.3798916000005192, 1.5630836999998792, 1.7630120000003444, 1.9638316999999006, 2.162734200000159, 2.362790099999984, 2.5625042000001486, 2.762351600000329, 2.9457030000003215, 3.128867200000059, 3.3120748999999705, 3.4952352999998766, 3.7118740000005346, 3.9284441999998307, 4.128353000000061]"	199.3283604	199.3409886	200.8238723	200.8400383	NA	NA	NA	NA	NA	NA	NA	"02"	"03"	"2023-12-14_13h49.07.130"	"BART_exp"	"2023.2.2"	59.9926089107209	"2023-12-14 13h49.24.572247 +0100"	NA
"balloon.png"	44	0	29	29	10	200.8400383	NA	NA	NA	NA	NA	NA	NA	NA	NA	NA	NA	NA	200.8241203	200.8400383	200.8400383	200.8400383	200.8400383	200.8400383	0.0117826000005152	0.0117826000005152	0.0117826000005152	200.8400383	204.8402359	19	0.95	FALSE	"[0.021666666666666667, 0.021666666666666667, 0.021666666666666667, 0.021666666666666667, 0.021666666666666667, 0.021666666666666667, 0.021666666666666667, 0.021666666666666667, 0.021666666666666667, 0.021666666666666667, 0.021666666666666667, 0.021666666666666667, 0.021666666666666667, 0.021666666666666667, 0.021666666666666667, 0.021666666666666667, 0.021666666666666667, 0.021666666666666667, 0.021666666666666667, 0.08833333333333333]"	"[-0.39416666666666667, -0.39416666666666667, -0.39416666666666667, -0.39416666666666667, -0.39416666666666667, -0.39416666666666667, -0.39416666666666667, -0.39416666666666667, -0.39416666666666667, -0.39416666666666667, -0.39416666666666667, -0.39416666666666667, -0.39416666666666667, -0.39416666666666667, -0.39416666666666667, -0.39416666666666667, -0.39416666666666667, -0.39416666666666667, -0.39416666666666667, -0.11666666666666667]"	"[1, 1, 1, 1, 1, 1, 1, 1, 1, 1, 1, 1, 1, 1, 1, 1, 1, 1, 1, 0]"	"[0, 0, 0, 0, 0, 0, 0, 0, 0, 0, 0, 0, 0, 0, 0, 0, 0, 0, 0, 0]"	"[0, 0, 0, 0, 0, 0, 0, 0, 0, 0, 0, 0, 0, 0, 0, 0, 0, 0, 0, 1]"	"[0.3003465000001597, 0.4669973999998547, 0.6666479999994408, 0.8334944999996878, 1.0332939999998416, 1.2332310000001598, 1.4328474999992977, 1.6660860000001776, 1.8333457999997336, 2.0160338999994565, 2.1825675000000047, 2.365900099999635, 2.5487992999997005, 2.715456699999777, 2.915150299999368, 3.098377499999515, 3.2818579999993744, 3.448521299999811, 3.6149429999995846, 4.0147845999999845]"	19	"[0.2976597999995647, 0.46431529999972554, 0.6639671000002636, 0.8308070000002772, 1.0306081999997332, 1.2305595999996513, 1.4301736999996137, 1.6634088000000702, 1.830671199999415, 2.0133516999994754, 2.1798852000001716, 2.363222400000268, 2.546115099999952, 2.712778199999775, 2.9124654999995983, 3.0956995999995343, 3.279173400000218, 3.445850799999789, 3.6122612999997727]"	"[0.38070479999987583, 0.5638694999997824, 0.7470517000001564, 0.9302603999994972, 1.1300869999995484, 1.3466828999999052, 1.5298952000002828, 1.7297246999996787, 1.9297354999998788, 2.0962782999995397, 2.2959475999996357, 2.4460274000002755, 2.6292131000000154, 2.8123761999995622, 2.995647199999439, 3.1788454999996247, 3.362006599999404, 3.5454196000000593, 3.8785195000000385]"	204.8414792	204.85411	206.3529485	NA	NA	NA	NA	NA	NA	NA	NA	"02"	"03"	"2023-12-14_13h49.07.130"	"BART_exp"	"2023.2.2"	59.9926089107209	"2023-12-14 13h49.24.572247 +0100"	NA
NA	NA	NA	NA	NA	NA	NA	NA	NA	NA	NA	NA	NA	NA	NA	NA	NA	NA	NA	NA	NA	NA	NA	NA	NA	NA	NA	NA	NA	NA	NA	NA	NA	NA	NA	NA	NA	NA	NA	NA	NA	NA	NA	NA	NA	NA	206.352999700001	206.3695981	206.3695981	210.6177577	"space"	4.2390347999999	"None"	"02"	"03"	"2023-12-14_13h49.07.130"	"BART_exp"	"2023.2.2"	59.9926089107209	"2023-12-14 13h49.24.572247 +0100"	NA
