diceImage	d_number	dice_loop.thisRepN	dice_loop.thisTrialN	dice_loop.thisN	dice_loop.thisIndex	thisRow.t	notes	Start.started	text_start.started	continue_start.started	mouse_start.started	Start.stopped	mouse_start.x	mouse_start.y	mouse_start.leftButton	mouse_start.midButton	mouse_start.rightButton	mouse_start.time	trial.started	box_dice.started	text_dice_header.started	text_gain.started	value_gain.started	text_bank.started	value_bank.started	img_dice_1.started	img_dice_2.started	img_dice_3.started	img_dice_4.started	img_dice_5.started	img_dice_6.started	img_dice_1_2.started	img_dice_3_4.started	img_dice_5_6.started	img_dice_1_2_3.started	img_dice_4_5_6.started	img_dice_1_2_3_4.started	img_dice_2_3_4_5.started	img_dice_3_4_5_6.started	text_value_header.started	text_value_1000.started	text_value_500.started	text_value_200.started	text_value_100.started	mouse_task.started	gain_sound.started	img_dice_throw_trials.started	gain_sound.stopped	img_dice_throw_trials.stopped	trial.stopped	mouse_task.x	mouse_task.y	mouse_task.leftButton	mouse_task.midButton	mouse_task.rightButton	mouse_task.time	choice	gain	loss_sound.started	End.started	text_end.started	key_end.started	End.stopped	key_end.keys	key_end.rt	key_end.duration	participant	session	date	expName	psychopyVersion	frameRate	expStart	
								0.04141950000121142	0.05103080000117188	0.05103080000117188	0.04177750000053493	14.36914120000074	[0.662962962962963]	[-0.4111111111111111]	[1]	[0]	[0]	[14.326786399999037]																																																	16	02	2024-02-08_11h45.54.571	GDT_exp	2023.2.3	120.0121452281441	2024-02-08 11h46.29.957759 +0100	
dice_5.png	5	0	0	0	4	14.452075799999875													14.373920699999871	14.452075799999875	14.452075799999875	14.452075799999875	14.452075799999875	14.452075799999875	14.452075799999875	14.452075799999875	14.452075799999875	14.452075799999875	14.452075799999875	14.452075799999875	14.452075799999875	14.452075799999875	14.452075799999875	14.452075799999875	14.452075799999875	14.452075799999875	14.452075799999875	14.452075799999875	14.452075799999875	14.452075799999875	14.452075799999875	14.452075799999875	14.452075799999875	14.452075799999875	0.022315899999739486	2.5580140000001848	16.99387139999999	4.083167200000389	18.560649700000795	18.521661300001142	"[-0.2796296296296296, -0.2796296296296296]"	"[-0.36574074074074076, -0.36574074074074076]"	"[1, 0]"	"[0, 0]"	"[0, 1]"	"[1.7712821000004624, 2.50443660000019]"	4	100									16	02	2024-02-08_11h45.54.571	GDT_exp	2023.2.3	120.0121452281441	2024-02-08 11h46.29.957759 +0100	
dice_2.png	2	0	1	1	1	18.560649700000795													18.522460400001364	18.560649700000795	18.560649700000795	18.560649700000795	18.560649700000795	18.560649700000795	18.560649700000795	18.560649700000795	18.560649700000795	18.560649700000795	18.560649700000795	18.560649700000795	18.560649700000795	18.560649700000795	18.560649700000795	18.560649700000795	18.560649700000795	18.560649700000795	18.560649700000795	18.560649700000795	18.560649700000795	18.560649700000795	18.560649700000795	18.560649700000795	18.560649700000795	18.560649700000795	0.01459430000068096	3.9886094000012235	22.57760059999964	5.522115600000689	24.1528586000004	24.10493250000036	"[-0.2796296296296296, -0.2796296296296296]"	"[-0.3648148148148148, -0.3648148148148148]"	"[1, 0]"	"[0, 0]"	"[0, 1]"	"[3.4739530999995623, 3.9737759999989066]"	4	100									16	02	2024-02-08_11h45.54.571	GDT_exp	2023.2.3	120.0121452281441	2024-02-08 11h46.29.957759 +0100	
dice_3.png	3	0	2	2	2	24.1528586000004													24.105513800001063	24.1528586000004	24.1528586000004	24.1528586000004	24.1528586000004	24.1528586000004	24.1528586000004	24.1528586000004	24.1528586000004	24.1528586000004	24.1528586000004	24.1528586000004	24.1528586000004	24.1528586000004	24.1528586000004	24.1528586000004	24.1528586000004	24.1528586000004	24.1528586000004	24.1528586000004	24.1528586000004	24.1528586000004	24.1528586000004	24.1528586000004	24.1528586000004	24.1528586000004	0.017629800000577234	2.122493700000632	26.294535000000906	3.6309940999999526	27.844636300000275	27.80034710000109	"[0.05648148148148148, 0.05648148148148148]"	"[-0.36203703703703705, -0.36203703703703705]"	"[1, 0]"	"[0, 0]"	"[0, 1]"	"[1.346246200000678, 2.1046287000008306]"	4	100									16	02	2024-02-08_11h45.54.571	GDT_exp	2023.2.3	120.0121452281441	2024-02-08 11h46.29.957759 +0100	
dice_4.png	4	0	3	3	3	27.844636300000275													27.800897799999802	27.844636300000275	27.844636300000275	27.844636300000275	27.844636300000275	27.844636300000275	27.844636300000275	27.844636300000275	27.844636300000275	27.844636300000275	27.844636300000275	27.844636300000275	27.844636300000275	27.844636300000275	27.844636300000275	27.844636300000275	27.844636300000275	27.844636300000275	27.844636300000275	27.844636300000275	27.844636300000275	27.844636300000275	27.844636300000275	27.844636300000275	27.844636300000275	27.844636300000275	0.01755120000052557	3.427490100000796	31.29488070000116	4.927633400000559	32.845010099999854	32.797605900001145	"[-0.05555555555555555, -0.05555555555555555]"	"[-0.26296296296296295, -0.26296296296296295]"	"[1, 0]"	"[0, 0]"	"[0, 1]"	"[3.0262339999990218, 3.4096131999995123]"	3	200									16	02	2024-02-08_11h45.54.571	GDT_exp	2023.2.3	120.0121452281441	2024-02-08 11h46.29.957759 +0100	
dice_1.png	1	0	4	4	0	32.845010099999854													32.798183799999606	32.845010099999854	32.845010099999854	32.845010099999854	32.845010099999854	32.845010099999854	32.845010099999854	32.845010099999854	32.845010099999854	32.845010099999854	32.845010099999854	32.845010099999854	32.845010099999854	32.845010099999854	32.845010099999854	32.845010099999854	32.845010099999854	32.845010099999854	32.845010099999854	32.845010099999854	32.845010099999854	32.845010099999854	32.845010099999854	32.845010099999854	32.845010099999854	32.845010099999854	0.017716199999995297	3.1638444000000163	36.045212099999844	4.663993000000119	37.61213620000126	37.564170900001045	"[-0.38055555555555554, -0.38055555555555554]"	"[-0.25555555555555554, -0.25555555555555554]"	"[1, 0]"	"[0, 0]"	"[0, 1]"	"[2.7457400000002963, 3.1456779000000097]"	3	200									16	02	2024-02-08_11h45.54.571	GDT_exp	2023.2.3	120.0121452281441	2024-02-08 11h46.29.957759 +0100	
dice_6.png	6	0	5	5	5	37.61213620000126													37.564728999999716	37.61213620000126	37.61213620000126	37.61213620000126	37.61213620000126	37.61213620000126	37.61213620000126	37.61213620000126	37.61213620000126	37.61213620000126	37.61213620000126	37.61213620000126	37.61213620000126	37.61213620000126	37.61213620000126	37.61213620000126	37.61213620000126	37.61213620000126	37.61213620000126	37.61213620000126	37.61213620000126	37.61213620000126	37.61213620000126	37.61213620000126	37.61213620000126	37.61213620000126	0.0174736999997549	2.5059175999995205	40.13720260000082	4.006199499999639	41.72062370000094	41.67307609999989	"[-0.13703703703703704, -0.13240740740740742]"	"[-0.25833333333333336, -0.25833333333333336]"	"[1, 0]"	"[0, 0]"	"[0, 1]"	"[2.254918300001009, 2.4882239000016853]"	3	200									16	02	2024-02-08_11h45.54.571	GDT_exp	2023.2.3	120.0121452281441	2024-02-08 11h46.29.957759 +0100	
dice_1.png	1	1	0	6	0	41.72062370000094													41.673662799999875	41.72062370000094	41.72062370000094	41.72062370000094	41.72062370000094	41.72062370000094	41.72062370000094	41.72062370000094	41.72062370000094	41.72062370000094	41.72062370000094	41.72062370000094	41.72062370000094	41.72062370000094	41.72062370000094	41.72062370000094	41.72062370000094	41.72062370000094	41.72062370000094	41.72062370000094	41.72062370000094	41.72062370000094	41.72062370000094	41.72062370000094	41.72062370000094	41.72062370000094	0.0175122000000556	1.880595100001301	43.629234899999574	3.4058420000001206	45.17919120000079	45.139745100001164	"[-0.42407407407407405, -0.42407407407407405]"	"[-0.24722222222222223, -0.24722222222222223]"	"[1, 0]"	"[0, 0]"	"[0, 1]"	"[1.4212637999989965, 1.8629248999986885]"	3	200									16	02	2024-02-08_11h45.54.571	GDT_exp	2023.2.3	120.0121452281441	2024-02-08 11h46.29.957759 +0100	
dice_2.png	2	1	1	7	1	45.17919120000079													45.14032370000132	45.17919120000079	45.17919120000079	45.17919120000079	45.17919120000079	45.17919120000079	45.17919120000079	45.17919120000079	45.17919120000079	45.17919120000079	45.17919120000079	45.17919120000079	45.17919120000079	45.17919120000079	45.17919120000079	45.17919120000079	45.17919120000079	45.17919120000079	45.17919120000079	45.17919120000079	45.17919120000079	45.17919120000079	45.17919120000079	45.17919120000079	45.17919120000079	45.17919120000079	0.014514099999360042	3.147586600000068	48.36275560000104	4.6644085999996605	49.92131680000057	49.87342180000087	"[-0.5879629629629629, -0.5879629629629629]"	"[-0.1361111111111111, -0.1361111111111111]"	"[1, 0]"	"[0, 0]"	"[0, 1]"	"[2.8245890000016516, 3.1330145000010816]"	2	500									16	02	2024-02-08_11h45.54.571	GDT_exp	2023.2.3	120.0121452281441	2024-02-08 11h46.29.957759 +0100	
dice_6.png	6	1	2	8	5	49.92131680000057													49.87395800000013	49.92131680000057	49.92131680000057	49.92131680000057	49.92131680000057	49.92131680000057	49.92131680000057	49.92131680000057	49.92131680000057	49.92131680000057	49.92131680000057	49.92131680000057	49.92131680000057	49.92131680000057	49.92131680000057	49.92131680000057	49.92131680000057	49.92131680000057	49.92131680000057	49.92131680000057	49.92131680000057	49.92131680000057	49.92131680000057	49.92131680000057	49.92131680000057	49.92131680000057	0.021040999999968335		53.30476460000136		54.84654580000097	54.80733330000112	"[-0.23703703703703705, -0.23703703703703705]"	"[-0.16203703703703703, -0.16203703703703703]"	"[1, 0]"	"[0, 0]"	"[0, 1]"	"[2.668160400000488, 3.334715700000743]"	2	-500	3.35595739999917								16	02	2024-02-08_11h45.54.571	GDT_exp	2023.2.3	120.0121452281441	2024-02-08 11h46.29.957759 +0100	
dice_3.png	3	1	3	9	2	54.84654580000097													54.80789240000013	54.84654580000097	54.84654580000097	54.84654580000097	54.84654580000097	54.84654580000097	54.84654580000097	54.84654580000097	54.84654580000097	54.84654580000097	54.84654580000097	54.84654580000097	54.84654580000097	54.84654580000097	54.84654580000097	54.84654580000097	54.84654580000097	54.84654580000097	54.84654580000097	54.84654580000097	54.84654580000097	54.84654580000097	54.84654580000097	54.84654580000097	54.84654580000097	54.84654580000097	0.014875499999106978		57.846770500000275		59.388557899999796	59.349668900000324	"[-0.1527777777777778, -0.1527777777777778]"	"[-0.2564814814814815, -0.2564814814814815]"	"[1, 0]"	"[0, 0]"	"[0, 1]"	"[2.3408493000006274, 2.949077799999941]"	3	-200	2.964032899999438								16	02	2024-02-08_11h45.54.571	GDT_exp	2023.2.3	120.0121452281441	2024-02-08 11h46.29.957759 +0100	
dice_4.png	4	1	4	10	3	59.388557899999796													59.3502593000012	59.388557899999796	59.388557899999796	59.388557899999796	59.388557899999796	59.388557899999796	59.388557899999796	59.388557899999796	59.388557899999796	59.388557899999796	59.388557899999796	59.388557899999796	59.388557899999796	59.388557899999796	59.388557899999796	59.388557899999796	59.388557899999796	59.388557899999796	59.388557899999796	59.388557899999796	59.388557899999796	59.388557899999796	59.388557899999796	59.388557899999796	59.388557899999796	59.388557899999796	0.015030000000479049	0.880157199999303	60.29693820000102	2.3970078000002104	61.847194100000706	61.80790630000047	"[-0.2537037037037037, -0.25]"	"[-0.34629629629629627, -0.3453703703703704]"	"[1, 0]"	"[0, 0]"	"[0, 1]"	"[0.5065210000011575, 0.8648482999997213]"	4	100									16	02	2024-02-08_11h45.54.571	GDT_exp	2023.2.3	120.0121452281441	2024-02-08 11h46.29.957759 +0100	
dice_5.png	5	1	5	11	4	61.847194100000706													61.80848900000092	61.847194100000706	61.847194100000706	61.847194100000706	61.847194100000706	61.847194100000706	61.847194100000706	61.847194100000706	61.847194100000706	61.847194100000706	61.847194100000706	61.847194100000706	61.847194100000706	61.847194100000706	61.847194100000706	61.847194100000706	61.847194100000706	61.847194100000706	61.847194100000706	61.847194100000706	61.847194100000706	61.847194100000706	61.847194100000706	61.847194100000706	61.847194100000706	61.847194100000706	0.01456789999974717		64.42224019999958		65.97234670000034	65.92529570000079	"[-0.25092592592592594, -0.44907407407407407, -0.44907407407407407]"	"[-0.3453703703703704, -0.2564814814814815, -0.2564814814814815]"	"[1, 1, 0]"	"[0, 0, 0]"	"[0, 0, 1]"	"[0.4574529999990773, 1.9156819999989239, 2.532531900000322]"	3	-200	2.54720400000042								16	02	2024-02-08_11h45.54.571	GDT_exp	2023.2.3	120.0121452281441	2024-02-08 11h46.29.957759 +0100	
dice_2.png	2	2	0	12	1	65.97234670000034													65.92588090000027	65.97234670000034	65.97234670000034	65.97234670000034	65.97234670000034	65.97234670000034	65.97234670000034	65.97234670000034	65.97234670000034	65.97234670000034	65.97234670000034	65.97234670000034	65.97234670000034	65.97234670000034	65.97234670000034	65.97234670000034	65.97234670000034	65.97234670000034	65.97234670000034	65.97234670000034	65.97234670000034	65.97234670000034	65.97234670000034	65.97234670000034	65.97234670000034	65.97234670000034	0.018387400001302012	2.755291600000419	68.74751860000106	4.255274099999951	70.31431950000115	70.27496910000082	"[-0.2574074074074074, -0.2574074074074074]"	"[-0.32592592592592595, -0.32592592592592595]"	"[1, 0]"	"[0, 0]"	"[0, 1]"	"[2.2115601999994396, 2.7367831000010483]"	4	100									16	02	2024-02-08_11h45.54.571	GDT_exp	2023.2.3	120.0121452281441	2024-02-08 11h46.29.957759 +0100	
dice_4.png	4	2	1	13	3	70.31431950000115													70.27550510000037	70.31431950000115	70.31431950000115	70.31431950000115	70.31431950000115	70.31431950000115	70.31431950000115	70.31431950000115	70.31431950000115	70.31431950000115	70.31431950000115	70.31431950000115	70.31431950000115	70.31431950000115	70.31431950000115	70.31431950000115	70.31431950000115	70.31431950000115	70.31431950000115	70.31431950000115	70.31431950000115	70.31431950000115	70.31431950000115	70.31431950000115	70.31431950000115	70.31431950000115	0.014749899999515037	1.1140070999990712	71.45623200000045	2.639181299999109	73.02285160000065	72.98360270000012	"[-0.14074074074074075, -0.12314814814814815]"	"[-0.2796296296296296, -0.25925925925925924]"	"[1, 0]"	"[0, 0]"	"[0, 1]"	"[0.6659184000000096, 1.0990406999990228]"	3	200									16	02	2024-02-08_11h45.54.571	GDT_exp	2023.2.3	120.0121452281441	2024-02-08 11h46.29.957759 +0100	
dice_6.png	6	2	2	14	5	73.02285160000065													72.98415770000065	73.02285160000065	73.02285160000065	73.02285160000065	73.02285160000065	73.02285160000065	73.02285160000065	73.02285160000065	73.02285160000065	73.02285160000065	73.02285160000065	73.02285160000065	73.02285160000065	73.02285160000065	73.02285160000065	73.02285160000065	73.02285160000065	73.02285160000065	73.02285160000065	73.02285160000065	73.02285160000065	73.02285160000065	73.02285160000065	73.02285160000065	73.02285160000065	73.02285160000065	0.014692200000354205	3.2223608999993303	76.27307780000046	4.739220100000239	77.83151550000002	77.79220569999961	"[-0.12314814814814815, -0.12314814814814815]"	"[-0.2611111111111111, -0.2611111111111111]"	"[1, 0]"	"[0, 0]"	"[0, 1]"	"[2.6241242999985843, 3.2074415999995836]"	3	200									16	02	2024-02-08_11h45.54.571	GDT_exp	2023.2.3	120.0121452281441	2024-02-08 11h46.29.957759 +0100	
dice_1.png	1	2	3	15	0	77.83151550000002													77.79277900000125	77.83151550000002	77.83151550000002	77.83151550000002	77.83151550000002	77.83151550000002	77.83151550000002	77.83151550000002	77.83151550000002	77.83151550000002	77.83151550000002	77.83151550000002	77.83151550000002	77.83151550000002	77.83151550000002	77.83151550000002	77.83151550000002	77.83151550000002	77.83151550000002	77.83151550000002	77.83151550000002	77.83151550000002	77.83151550000002	77.83151550000002	77.83151550000002	77.83151550000002	0.015594000000419328		81.2567424000008		82.83184679999977	82.79260609999983	"[-0.001851851851851852, -0.001851851851851852]"	"[-0.35185185185185186, -0.35185185185185186]"	"[1, 0]"	"[0, 0]"	"[0, 1]"	"[2.964842800000042, 3.3731690000004164]"	4	-100	3.389098899999226								16	02	2024-02-08_11h45.54.571	GDT_exp	2023.2.3	120.0121452281441	2024-02-08 11h46.29.957759 +0100	
dice_3.png	3	2	4	16	2	82.83184679999977													82.79313710000133	82.83184679999977	82.83184679999977	82.83184679999977	82.83184679999977	82.83184679999977	82.83184679999977	82.83184679999977	82.83184679999977	82.83184679999977	82.83184679999977	82.83184679999977	82.83184679999977	82.83184679999977	82.83184679999977	82.83184679999977	82.83184679999977	82.83184679999977	82.83184679999977	82.83184679999977	82.83184679999977	82.83184679999977	82.83184679999977	82.83184679999977	82.83184679999977	82.83184679999977	0.014653700000053504	0.9222441000001709	83.79024390000086	2.4473950999999943	85.34048939999957	85.30106280000109	"[-0.001851851851851852, -0.001851851851851852]"	"[-0.35185185185185186, -0.35185185185185186]"	"[1, 0]"	"[0, 0]"	"[0, 1]"	"[0.40732079999907, 0.9073466999998345]"	4	100									16	02	2024-02-08_11h45.54.571	GDT_exp	2023.2.3	120.0121452281441	2024-02-08 11h46.29.957759 +0100	
dice_5.png	5	2	5	17	4	85.34048939999957													85.30159690000073	85.34048939999957	85.34048939999957	85.34048939999957	85.34048939999957	85.34048939999957	85.34048939999957	85.34048939999957	85.34048939999957	85.34048939999957	85.34048939999957	85.34048939999957	85.34048939999957	85.34048939999957	85.34048939999957	85.34048939999957	85.34048939999957	85.34048939999957	85.34048939999957	85.34048939999957	85.34048939999957	85.34048939999957	85.34048939999957	85.34048939999957	85.34048939999957	85.34048939999957	0.014460700000199722	1.630742100000134	86.99893499999962	3.1558230000009644	88.53226370000084	88.51822560000073	"[-0.001851851851851852, -0.001851851851851852]"	"[-0.35185185185185186, -0.35185185185185186]"	"[1, 0]"	"[0, 0]"	"[0, 1]"	"[0.6491175999999541, 1.6159029999998893]"	4	100									16	02	2024-02-08_11h45.54.571	GDT_exp	2023.2.3	120.0121452281441	2024-02-08 11h46.29.957759 +0100	
																																																												88.51871850000134	88.53226370000084	88.53226370000084	99.73354330000075	space	11.196110300001237	None	16	02	2024-02-08_11h45.54.571	GDT_exp	2023.2.3	120.0121452281441	2024-02-08 11h46.29.957759 +0100	
