image	max_pumps	pump_loop.thisRepN	pump_loop.thisTrialN	pump_loop.thisN	pump_loop.thisIndex	thisRow.t	notes	Start.started	text_start.started	continue_start.started	mouse_start.started	Start.stopped	mouse_start.x	mouse_start.y	mouse_start.leftButton	mouse_start.midButton	mouse_start.rightButton	mouse_start.time	trials.started	stim_balloon.started	stim_balloon_burst.started	stim_balloon_burst.stopped	text_ballon_value.started	text_bank.started	mouse.started	sound_bang.started	sound_bang.stopped	button_balloon.started	trials.stopped	n_pumps	earnings	popped	mouse.x	mouse.y	mouse.leftButton	mouse.midButton	mouse.rightButton	mouse.time	button_balloon.numClicks	button_balloon.timesOn	button_balloon.timesOff	Feedback.started	text_feedback.started	Feedback.stopped	text_feedback.stopped	End.started	text_end.started	key_end.started	End.stopped	key_end.keys	key_end.rt	key_end.duration	participant	session	date	expName	psychopyVersion	frameRate	expStart	
								0.03616169991437346	0.041684099938720465	0.041684099938720465	0.03648560005240142	113.06691149994731	[0.725]	[-0.3888888888888889]	[1]	[0]	[0]	[113.02983170002699]																																			20	01	2024-02-14_11h12.17.319	BART_exp	2023.2.3	119.97096702837109	2024-02-14 11h12.33.341559 +0100	
balloon.png	31	0	0	0	7	113.15795869997237													113.09179919993039	113.15795869997237	113.15795869997237	113.15795869997237	113.15795869997237	113.15795869997237	0.026478299987502396	0.026478299987502396	0.026478299987502396	113.15795869997237	119.343403799925	3	0.15	False	"[0.049074074074074076, 0.049074074074074076, 0.049074074074074076, 0.05]"	"[-0.37777777777777777, -0.37777777777777777, -0.37777777777777777, -0.37777777777777777]"	"[1, 1, 1, 0]"	"[0, 0, 0, 0]"	"[0, 0, 0, 1]"	"[3.61707039992325, 4.400469499989413, 5.192178099998273, 6.250659799901769]"	4	"[3.5626401000190526, 4.346031100023538, 5.137735600001179, 6.196159600047395]"	"[3.7125371999572963, 4.4625144000165164, 5.262699999962933, 6.196163999964483]"	119.34443569998257	119.35841179999989	120.85020589991473									20	01	2024-02-14_11h12.17.319	BART_exp	2023.2.3	119.97096702837109	2024-02-14 11h12.33.341559 +0100	
balloon.png	71	0	1	1	16	120.86684299993794													120.8503813999705	120.86684299993794	120.86684299993794	120.86684299993794	120.86684299993794	120.86684299993794	0.007175000035203993	0.007175000035203993	0.007175000035203993	120.86684299993794	127.63566579995677	6	0.30	False	"[0.03333333333333333, 0.03333333333333333, 0.03333333333333333, 0.03333333333333333, 0.03333333333333333, 0.03333333333333333, 0.03333333333333333]"	"[-0.38425925925925924, -0.38425925925925924, -0.38425925925925924, -0.38425925925925924, -0.38425925925925924, -0.38425925925925924, -0.38425925925925924]"	"[1, 1, 1, 1, 1, 1, 0]"	"[0, 0, 0, 0, 0, 0, 0]"	"[0, 0, 0, 0, 0, 0, 1]"	"[3.7175004000309855, 4.0674273000331596, 4.367712000035681, 4.6424442999996245, 4.875788000063039, 5.801041500060819, 6.784396100090817]"	7	"[3.7117077000439167, 4.061629100004211, 4.361917600035667, 4.636639400036074, 4.869987600017339, 5.795245800050907, 6.778533400036395]"	"[3.861480899970047, 4.178162100026384, 4.4782131999963894, 4.7198721000459045, 4.961517699994147, 5.928236400010064, 6.7785376000683755]"	127.63637650001328	127.64230659999885	129.13426879991312	129.15908699994907								20	01	2024-02-14_11h12.17.319	BART_exp	2023.2.3	119.97096702837109	2024-02-14 11h12.33.341559 +0100	
balloon.png	57	0	2	2	13	129.15908699994907													129.1344444999704	129.15908699994907	129.15908699994907	129.15908699994907	129.15908699994907	129.15908699994907	-0.0006827999604865909	-0.0006827999604865909	-0.0006827999604865909	129.15908699994907	132.31083600001875	3	0.15	False	"[0.032407407407407406, 0.032407407407407406, 0.032407407407407406, 0.032407407407407406]"	"[-0.38055555555555554, -0.38055555555555554, -0.38055555555555554, -0.38055555555555554]"	"[1, 1, 1, 0]"	"[0, 0, 0, 0]"	"[0, 0, 0, 1]"	"[1.9507914000423625, 2.3338131000055, 2.6008158000186086, 3.1754973999923095]"	4	"[1.9388218999374658, 2.321817599935457, 2.588831300032325, 3.163433099980466]"	"[2.0799838999519125, 2.430000399937853, 2.713413199991919, 3.1634374000132084]"	132.3114180000266	132.31763199996203	133.80959770001937	133.82607439998537								20	01	2024-02-14_11h12.17.319	BART_exp	2023.2.3	119.97096702837109	2024-02-14 11h12.33.341559 +0100	
balloon.png	127	0	3	3	29	133.82607439998537													133.80977529997472	133.82607439998537	133.82607439998537	133.82607439998537	133.82607439998537	133.82607439998537	-0.0004205000586807728	-0.0004205000586807728	-0.0004205000586807728	133.82607439998537	136.13609329995234	5	0.25	False	"[0.032407407407407406, 0.032407407407407406, 0.032407407407407406, 0.032407407407407406, 0.032407407407407406, 0.032407407407407406]"	"[-0.3787037037037037, -0.3787037037037037, -0.3787037037037037, -0.3787037037037037, -0.3787037037037037, -0.3787037037037037]"	"[1, 1, 1, 1, 1, 0]"	"[0, 0, 0, 0, 0, 0]"	"[0, 0, 0, 0, 0, 1]"	"[0.6337175000226125, 0.8587512000231072, 1.1003657000837848, 1.31706180004403, 1.5088874000357464, 2.325429500080645]"	6	"[0.6273725000210106, 0.852405000012368, 1.0940111000090837, 1.3107131000142545, 1.5025388000067323, 2.319017400033772]"	"[0.743833800079301, 0.9605295000365004, 1.1771916000870988, 1.3772645000135526, 1.5605760000180453, 2.3190217000665143]"	136.13677240000106	136.14291319996119	137.63485679996666	137.65967750002164								20	01	2024-02-14_11h12.17.319	BART_exp	2023.2.3	119.97096702837109	2024-02-14 11h12.33.341559 +0100	
balloon.png	92	0	4	4	21	137.65967750002164													137.63503629993647	137.65967750002164	137.65967750002164	137.65967750002164	137.65967750002164	137.65967750002164	-0.0004906000103801489	-0.0004906000103801489	-0.0004906000103801489	137.65967750002164	141.75333749991842	8	0.40	False	"[0.03148148148148148, 0.03148148148148148, 0.03148148148148148, 0.03148148148148148, 0.03148148148148148, 0.03148148148148148, 0.03148148148148148, 0.03148148148148148, 0.03148148148148148]"	"[-0.37592592592592594, -0.37592592592592594, -0.37592592592592594, -0.37592592592592594, -0.37592592592592594, -0.37592592592592594, -0.375, -0.37407407407407406, -0.37407407407407406]"	"[1, 1, 1, 1, 1, 1, 1, 1, 0]"	"[0, 0, 0, 0, 0, 0, 0, 0, 0]"	"[0, 0, 0, 0, 0, 0, 0, 0, 1]"	"[1.4172493999358267, 1.6254146000137553, 1.8171200000215322, 2.0172238999512047, 2.1589312999276444, 2.325615099980496, 2.5256538999965414, 3.3838755999458954, 4.117394599947147]"	9	"[1.405835899990052, 1.6139931000070646, 1.805706899962388, 2.0058057999704033, 2.1475148999597877, 2.314193299971521, 2.5142352000111714, 3.3724621000001207, 4.105914999963716]"	"[1.5221899000462145, 1.7138878999976441, 1.8972060000523925, 2.063885100069456, 2.2236406999872997, 2.4306873000459746, 2.5805696999887004, 3.4972914999816567, 4.1059191999956965]"	141.7540427999338	141.7599632999627	143.2519181999378	143.2684089000104								20	01	2024-02-14_11h12.17.319	BART_exp	2023.2.3	119.97096702837109	2024-02-14 11h12.33.341559 +0100	
balloon.png	75	0	5	5	17	143.2684089000104													143.25210009992588	143.2684089000104	143.2684089000104	143.2684089000104	143.2684089000104	143.2684089000104	-0.0006863001035526395	-0.0006863001035526395	-0.0006863001035526395	143.2684089000104	148.5288458999712	10	0.50	False	"[0.026851851851851852, 0.026851851851851852, 0.026851851851851852, 0.026851851851851852, 0.026851851851851852, 0.026851851851851852, 0.026851851851851852, 0.026851851851851852, 0.026851851851851852, 0.026851851851851852, 0.026851851851851852]"	"[-0.38796296296296295, -0.38796296296296295, -0.38796296296296295, -0.38796296296296295, -0.38796296296296295, -0.38796296296296295, -0.38796296296296295, -0.38796296296296295, -0.38796296296296295, -0.38796296296296295, -0.38425925925925924]"	"[1, 1, 1, 1, 1, 1, 1, 1, 1, 1, 0]"	"[0, 0, 0, 0, 0, 0, 0, 0, 0, 0, 0]"	"[0, 0, 0, 0, 0, 0, 0, 0, 0, 0, 1]"	"[1.417066799942404, 1.658926700009033, 1.8838899999391288, 2.083909000037238, 2.2757234999444336, 2.4673726999899372, 2.7008602999849245, 2.9089769000420347, 3.242216599988751, 3.992369099985808, 5.275814099935815]"	11	"[1.4128254000097513, 1.6546644000336528, 1.8796305999858305, 2.079642300028354, 2.2714657000033185, 2.463110400014557, 2.696599500020966, 2.9047093000262976, 3.2379613000666723, 3.988105900003575, 5.271487300051376]"	"[1.5210938999662176, 1.771030900068581, 1.962706599966623, 2.1460166999604553, 2.3544434000505134, 2.546056400053203, 2.779401500010863, 3.012738100020215, 3.346152100013569, 4.046155499992892, 5.27149139996618]"	148.52972779993434	148.5354419000214	150.02746499993373	150.05222239997238								20	01	2024-02-14_11h12.17.319	BART_exp	2023.2.3	119.97096702837109	2024-02-14 11h12.33.341559 +0100	
balloon.png	23	0	6	6	5	150.05222239997238													150.0276515999576	150.05222239997238	150.05222239997238	150.05222239997238	150.05222239997238	150.05222239997238	-0.0007492000004276633	-0.0007492000004276633	-0.0007492000004276633	150.05222239997238	152.57912739994936	4	0.20	False	"[0.018518518518518517, 0.018518518518518517, 0.018518518518518517, 0.018518518518518517, 0.018518518518518517]"	"[-0.37407407407407406, -0.37407407407407406, -0.37407407407407406, -0.37407407407407406, -0.37407407407407406]"	"[1, 1, 1, 1, 0]"	"[0, 0, 0, 0, 0]"	"[0, 0, 0, 0, 1]"	"[0.7836720999330282, 1.033639800036326, 1.3004897999344394, 1.8753697000211105, 2.5505373999476433]"	5	"[0.7750148000195622, 1.0249777999706566, 1.291832400020212, 1.8667103999760002, 2.5418156000087038]"	"[0.8914828000124544, 1.1414913999615237, 1.4347187000093982, 1.983223699964583, 2.5418200000422075]"	152.57978659996297	152.58572630002163	154.07768430002034	154.10249790002126								20	01	2024-02-14_11h12.17.319	BART_exp	2023.2.3	119.97096702837109	2024-02-14 11h12.33.341559 +0100	
balloon.png	44	0	7	7	10	154.10249790002126													154.07785679993685	154.10249790002126	154.10249790002126	154.10249790002126	154.10249790002126	154.10249790002126	-0.000678099924698472	-0.000678099924698472	-0.000678099924698472	154.10249790002126	158.0877963999519	12	0.60	False	"[0.018518518518518517, 0.018518518518518517, 0.018518518518518517, 0.018518518518518517, 0.018518518518518517, 0.018518518518518517, 0.018518518518518517, 0.018518518518518517, 0.018518518518518517, 0.018518518518518517, 0.018518518518518517, 0.018518518518518517, 0.018518518518518517]"	"[-0.37407407407407406, -0.37407407407407406, -0.37407407407407406, -0.37407407407407406, -0.37407407407407406, -0.37407407407407406, -0.37407407407407406, -0.37407407407407406, -0.37407407407407406, -0.37407407407407406, -0.37407407407407406, -0.37407407407407406, -0.37407407407407406]"	"[1, 1, 1, 1, 1, 1, 1, 1, 1, 1, 1, 1, 0]"	"[0, 0, 0, 0, 0, 0, 0, 0, 0, 0, 0, 0, 0]"	"[0, 0, 0, 0, 0, 0, 0, 0, 0, 0, 0, 0, 1]"	"[0.9005289999768138, 1.1339133000001311, 1.358764800010249, 1.583749599987641, 1.8088759999955073, 2.0506242000265047, 2.2589723999844864, 2.4589565999340266, 2.675658499938436, 2.875778599991463, 3.092335999943316, 3.2757357000373304, 4.009026199928485]"	13	"[0.8919199999654666, 1.1252997999545187, 1.3501483999425545, 1.5751314000226557, 1.800263199955225, 2.0420186000410467, 2.250361099955626, 2.4503408999880776, 2.6670429999940097, 2.86716919997707, 3.083723900024779, 3.2671303999377415, 4.000348199973814]"	"[1.0332860000198707, 1.2416497999802232, 1.4666345999576151, 1.6917693000286818, 1.933333499939181, 2.1584865000331774, 2.358364599989727, 2.566708100028336, 2.750117399962619, 2.966782800038345, 3.175114499987103, 3.391760600032285, 4.000352300005034]"	158.08855959994253	158.09445029997732	159.5864460999146	159.60288799996488								20	01	2024-02-14_11h12.17.319	BART_exp	2023.2.3	119.97096702837109	2024-02-14 11h12.33.341559 +0100	
balloon.png	53	0	8	8	12	159.60288799996488													159.58662850002293	159.60288799996488	159.60288799996488	159.60288799996488	159.60288799996488	159.60288799996488	-0.0006876999977976084	-0.0006876999977976084	-0.0006876999977976084	159.60288799996488	162.88823009992484	8	0.40	False	"[0.017592592592592594, 0.017592592592592594, 0.017592592592592594, 0.017592592592592594, 0.017592592592592594, 0.017592592592592594, 0.017592592592592594, 0.017592592592592594, 0.017592592592592594]"	"[-0.37407407407407406, -0.37407407407407406, -0.37407407407407406, -0.37407407407407406, -0.37407407407407406, -0.37407407407407406, -0.37407407407407406, -0.37407407407407406, -0.37407407407407406]"	"[1, 1, 1, 1, 1, 1, 1, 1, 0]"	"[0, 0, 0, 0, 0, 0, 0, 0, 0]"	"[0, 0, 0, 0, 0, 0, 0, 0, 1]"	"[1.1588641999987885, 1.3588492999551818, 1.575516799930483, 1.7672174000181258, 1.9839301999891177, 2.2337522000307217, 2.500580199994147, 2.7340270000277087, 3.3006456999573857]"	9	"[1.1488471999764442, 1.3488359999610111, 1.5655035000527278, 1.7571987999835983, 1.9739113999530673, 2.2237427999498323, 2.4905647999839857, 2.724012600025162, 3.2905636000214145]"	"[1.2651870000408962, 1.4485638999613002, 1.648534500040114, 1.8652188000269234, 2.073610099963844, 2.3235804999712855, 2.5985982000129297, 2.840334099950269, 3.2905678000533953]"	162.88892990001477	162.89480070001446	164.3867481999332	164.4032194999745								20	01	2024-02-14_11h12.17.319	BART_exp	2023.2.3	119.97096702837109	2024-02-14 11h12.33.341559 +0100	
balloon.png	18	0	9	9	4	164.4032194999745													164.38692449999508	164.4032194999745	164.4032194999745	164.4032194999745	164.4032194999745	164.4032194999745	-0.0007534000324085355	-0.0007534000324085355	-0.0007534000324085355	164.4032194999745	169.67201179999392	14	0.70	False	"[0.018518518518518517, 0.018518518518518517, 0.018518518518518517, 0.018518518518518517, 0.018518518518518517, 0.018518518518518517, 0.018518518518518517, 0.018518518518518517, 0.018518518518518517, 0.018518518518518517, 0.018518518518518517, 0.018518518518518517, 0.018518518518518517, 0.018518518518518517, 0.018518518518518517]"	"[-0.37407407407407406, -0.37407407407407406, -0.37407407407407406, -0.37407407407407406, -0.37407407407407406, -0.37407407407407406, -0.37407407407407406, -0.37407407407407406, -0.37407407407407406, -0.37407407407407406, -0.37407407407407406, -0.37407407407407406, -0.37407407407407406, -0.37407407407407406, -0.37407407407407406]"	"[1, 1, 1, 1, 1, 1, 1, 1, 1, 1, 1, 1, 1, 1, 0]"	"[0, 0, 0, 0, 0, 0, 0, 0, 0, 0, 0, 0, 0, 0, 0]"	"[0, 0, 0, 0, 0, 0, 0, 0, 0, 0, 0, 0, 0, 0, 1]"	"[0.8504024000139907, 1.1255262999329716, 1.3838845000136644, 1.6754049999872223, 1.9089231999823824, 2.1839420999167487, 2.4504788999911398, 2.6838254999602214, 2.917384099913761, 3.1590050999075174, 3.3840392999118194, 3.6588912999723107, 4.4257916999049485, 4.692266199970618, 5.284158299909905]"	15	"[0.8408482000231743, 1.115976299974136, 1.3743275000015274, 1.665849299984984, 1.899364999961108, 2.1743859000271186, 2.440921499975957, 2.67426889995113, 2.9078239999944344, 3.1494469000026584, 3.3744795999955386, 3.649336599977687, 4.416243399959058, 4.682702600024641, 5.274542800034396]"	"[0.9990065000019968, 1.24065699998755, 1.5003873000387102, 1.7657041000202298, 2.015702800010331, 2.274059099960141, 2.5407503000460565, 2.782430800027214, 3.007448500022292, 3.249149000039324, 3.49082870001439, 3.7658275000285357, 4.590870999963954, 4.857688399963081, 5.274546999949962]"	169.6727988999337	169.6786163999932	171.17057169997133	171.18704789993353								20	01	2024-02-14_11h12.17.319	BART_exp	2023.2.3	119.97096702837109	2024-02-14 11h12.33.341559 +0100	
balloon.png	114	0	10	10	26	171.18704789993353													171.17074749991298	171.18704789993353	171.18704789993353	171.18704789993353	171.18704789993353	171.18704789993353	-0.0007584000704810023	-0.0007584000704810023	-0.0007584000704810023	171.18704789993353	174.38062019995414	7	0.35	False	"[0.018518518518518517, 0.018518518518518517, 0.018518518518518517, 0.018518518518518517, 0.018518518518518517, 0.018518518518518517, 0.018518518518518517, 0.018518518518518517]"	"[-0.37407407407407406, -0.37407407407407406, -0.37407407407407406, -0.37407407407407406, -0.37407407407407406, -0.37407407407407406, -0.37407407407407406, -0.37407407407407406]"	"[1, 1, 1, 1, 1, 1, 1, 0]"	"[0, 0, 0, 0, 0, 0, 0, 0]"	"[0, 0, 0, 0, 0, 0, 0, 1]"	"[1.0503187000285834, 1.2669991999864578, 1.4920185999944806, 1.725588500034064, 1.94218999997247, 2.208745999960229, 2.4587844000197947, 3.2089289999566972]"	8	"[1.0446919000241905, 1.2613697000779212, 1.4863904000958428, 1.7199669000692666, 1.9365620000753552, 2.2031210000859573, 2.4531588000245392, 3.203239200054668]"	"[1.1529019000008702, 1.3612314000492916, 1.5863186001079157, 1.828010700060986, 2.0696492000715807, 2.319625800009817, 2.5779808000661433, 3.2032434000866488]"	174.38135279994458	174.3872591999825	175.87927819998004	175.8956946999533								20	01	2024-02-14_11h12.17.319	BART_exp	2023.2.3	119.97096702837109	2024-02-14 11h12.33.341559 +0100	
balloon.png	118	0	11	11	27	175.8956946999533													175.87947379995603	175.8956946999533	175.8956946999533	175.8956946999533	175.8956946999533	175.8956946999533	-0.0006013999227434397	-0.0006013999227434397	-0.0006013999227434397	175.8956946999533	181.57282300002407	18	0.90	False	"[0.018518518518518517, 0.018518518518518517, 0.018518518518518517, 0.018518518518518517, 0.018518518518518517, 0.018518518518518517, 0.018518518518518517, 0.018518518518518517, 0.018518518518518517, 0.018518518518518517, 0.018518518518518517, 0.018518518518518517, 0.018518518518518517, 0.019444444444444445, 0.019444444444444445, 0.019444444444444445, 0.019444444444444445, 0.019444444444444445, 0.020370370370370372]"	"[-0.37407407407407406, -0.37407407407407406, -0.37407407407407406, -0.37407407407407406, -0.37407407407407406, -0.37407407407407406, -0.37407407407407406, -0.37407407407407406, -0.37407407407407406, -0.37407407407407406, -0.37407407407407406, -0.37407407407407406, -0.37407407407407406, -0.37407407407407406, -0.375, -0.375, -0.375, -0.375, -0.375]"	"[1, 1, 1, 1, 1, 1, 1, 1, 1, 1, 1, 1, 1, 1, 1, 1, 1, 1, 0]"	"[0, 0, 0, 0, 0, 0, 0, 0, 0, 0, 0, 0, 0, 0, 0, 0, 0, 0, 0]"	"[0, 0, 0, 0, 0, 0, 0, 0, 0, 0, 0, 0, 0, 0, 0, 0, 0, 0, 1]"	"[0.45872459991369396, 0.6671042999951169, 0.9253517999313772, 1.1837897999212146, 1.442135699908249, 1.6754717999137938, 1.9253254999639466, 2.175341699970886, 2.4257674999535084, 2.6755618999013677, 3.458938099909574, 3.7006735999602824, 3.908887599944137, 4.1088648999575526, 4.317265399964526, 4.517184399999678, 4.708886599983089, 4.925553599954583, 5.692422099993564]"	19	"[0.45189709996338934, 0.660267399973236, 0.9185188000556082, 1.176961399964057, 1.43530719995033, 1.6686365000205114, 1.9184934999793768, 2.168504999950528, 2.418949699960649, 2.6687304000370204, 3.4521039000246674, 3.6938395999604836, 3.902062200009823, 4.102032599970698, 4.310433799983002, 4.510354400030337, 4.702054199995473, 4.91871690005064, 5.685523999971338]"	"[0.5599812000291422, 0.7849912999663502, 1.0271994000067934, 1.2934683000203222, 1.5517786999698728, 1.768366500036791, 2.018323600059375, 2.2684442000463605, 2.5351896999636665, 2.7767296000383794, 3.6017951000249013, 3.8101644000271335, 4.0102060000645, 4.21855340001639, 4.410221799975261, 4.618574399966747, 4.810267900000326, 5.018561600008979, 5.68552830000408]"	181.5737133999355	181.57943089993205	183.0713986000046	183.08790219994262								20	01	2024-02-14_11h12.17.319	BART_exp	2023.2.3	119.97096702837109	2024-02-14 11h12.33.341559 +0100	
balloon.png	10	0	12	12	2	183.08790219994262													183.0715752999531	183.08790219994262	183.08790219994262	183.08790219994262	183.08790219994262	183.08790219994262	-0.0008558999979868531	-0.0008558999979868531	-0.0008558999979868531	183.08790219994262	187.28153529996052	7	0.35	False	"[0.020370370370370372, 0.020370370370370372, 0.020370370370370372, 0.020370370370370372, 0.020370370370370372, 0.020370370370370372, 0.020370370370370372, 0.020370370370370372]"	"[-0.375, -0.375, -0.375, -0.375, -0.375, -0.375, -0.375, -0.375]"	"[1, 1, 1, 1, 1, 1, 1, 0]"	"[0, 0, 0, 0, 0, 0, 0, 0]"	"[0, 0, 0, 0, 0, 0, 0, 1]"	"[1.842243899940513, 2.09223019995261, 2.3254322999855503, 2.600590099929832, 2.8423016999149695, 3.125492199906148, 3.42567569995299, 4.209035299951211]"	8	"[1.837508299970068, 2.0874990000156686, 2.3206913999747485, 2.5958506000461057, 2.8375660000601783, 3.1207582000643015, 3.4209449000190943, 4.204234500066377]"	"[1.970528700039722, 2.1955762000288814, 2.420537800062448, 2.712339299963787, 2.962263199966401, 3.253990800003521, 3.5789533000206575, 4.204238799982704]"	187.2822646999266	187.2881677999394	188.78015030000824	188.79661039996427								20	01	2024-02-14_11h12.17.319	BART_exp	2023.2.3	119.97096702837109	2024-02-14 11h12.33.341559 +0100	
balloon.png	40	0	13	13	9	188.79661039996427													188.7803322999971	188.79661039996427	188.79661039996427	188.79661039996427	188.79661039996427	188.79661039996427	-0.0006585000082850456	-0.0006585000082850456	-0.0006585000082850456	188.79661039996427	195.57363859994803	20	1.00	False	"[0.020370370370370372, 0.020370370370370372, 0.020370370370370372, 0.020370370370370372, 0.023148148148148147, 0.024074074074074074, 0.024074074074074074, 0.024074074074074074, 0.024074074074074074, 0.024074074074074074, 0.024074074074074074, 0.024074074074074074, 0.024074074074074074, 0.024074074074074074, 0.024074074074074074, 0.024074074074074074, 0.024074074074074074, 0.024074074074074074, 0.024074074074074074, 0.024074074074074074, 0.024074074074074074]"	"[-0.3731481481481482, -0.3731481481481482, -0.3731481481481482, -0.3731481481481482, -0.375, -0.375, -0.375, -0.375, -0.375, -0.375, -0.37407407407407406, -0.37407407407407406, -0.37407407407407406, -0.37407407407407406, -0.37407407407407406, -0.37407407407407406, -0.37407407407407406, -0.37407407407407406, -0.37407407407407406, -0.37407407407407406, -0.37407407407407406]"	"[1, 1, 1, 1, 1, 1, 1, 1, 1, 1, 1, 1, 1, 1, 1, 1, 1, 1, 1, 1, 0]"	"[0, 0, 0, 0, 0, 0, 0, 0, 0, 0, 0, 0, 0, 0, 0, 0, 0, 0, 0, 0, 0]"	"[0, 0, 0, 0, 0, 0, 0, 0, 0, 0, 0, 0, 0, 0, 0, 0, 0, 0, 0, 0, 1]"	"[1.2671681999927387, 1.492201799992472, 1.7171898999949917, 1.9172509000636637, 2.1174389000516385, 2.333944800077006, 2.550587300094776, 2.7837915000272915, 3.0171301000518724, 3.2588011000771075, 3.5006863001035526, 3.7755105000687763, 4.0673434000927955, 4.350736299995333, 4.633933300036006, 4.892422400065698, 5.17562039999757, 5.459066600073129, 5.759134200052358, 6.084270899998955, 6.7923707000445575]"	21	"[1.260841100011021, 1.4858806999400258, 1.7108632000163198, 1.9109212999464944, 2.111111699952744, 2.3276148999575526, 2.544259399990551, 2.777465600054711, 3.010801799944602, 3.2524752999888733, 3.494359500007704, 3.7691832999698818, 4.061020200024359, 4.344411900034174, 4.627602800028399, 4.8860994999995455, 5.16929320001509, 5.452735999948345, 5.752808199962601, 6.077945200027898, 6.785978100029752]"	"[1.377245599986054, 1.6023487000493333, 1.8188979000551626, 2.035617999965325, 2.218911699950695, 2.4273083000443876, 2.652362299966626, 2.877444599987939, 3.1106540999608114, 3.360649900045246, 3.6023432000074536, 3.8856983999721706, 4.169245400000364, 4.45244060002733, 4.735758299939334, 5.00248130003456, 5.2858410000335425, 5.594162499997765, 5.894175000023097, 6.252735499991104, 6.785982399946079]"	195.57463819999248	195.58043779991567	197.07239669992123	197.0888530999655								20	01	2024-02-14_11h12.17.319	BART_exp	2023.2.3	119.97096702837109	2024-02-14 11h12.33.341559 +0100	
balloon.png	66	0	14	14	15	197.0888530999655													197.07258219993673	197.0888530999655	197.0888530999655	197.0888530999655	197.0888530999655	197.0888530999655	-0.0007956000044941902	-0.0007956000044941902	-0.0007956000044941902	197.0888530999655	207.92479660001118	28	1.40	False	"[0.014814814814814815, 0.014814814814814815, 0.01574074074074074, 0.01574074074074074, 0.01574074074074074, 0.016666666666666666, 0.017592592592592594, 0.019444444444444445, 0.020370370370370372, 0.022222222222222223, 0.022222222222222223, 0.024074074074074074, 0.025, 0.026851851851851852, 0.026851851851851852, 0.026851851851851852, 0.026851851851851852, 0.026851851851851852, 0.026851851851851852, 0.026851851851851852, 0.026851851851851852, 0.026851851851851852, 0.026851851851851852, 0.026851851851851852, 0.026851851851851852, 0.026851851851851852, 0.026851851851851852, 0.026851851851851852, 0.026851851851851852]"	"[-0.36666666666666664, -0.36666666666666664, -0.36666666666666664, -0.36666666666666664, -0.36666666666666664, -0.3685185185185185, -0.36944444444444446, -0.37407407407407406, -0.375, -0.3768518518518518, -0.3768518518518518, -0.375, -0.375, -0.37407407407407406, -0.37407407407407406, -0.37407407407407406, -0.37407407407407406, -0.37407407407407406, -0.37407407407407406, -0.37407407407407406, -0.37407407407407406, -0.37407407407407406, -0.37407407407407406, -0.37407407407407406, -0.375, -0.375, -0.375, -0.375, -0.375]"	"[1, 1, 1, 1, 1, 1, 1, 1, 1, 1, 1, 1, 1, 1, 1, 1, 1, 1, 1, 1, 1, 1, 1, 1, 1, 1, 1, 1, 0]"	"[0, 0, 0, 0, 0, 0, 0, 0, 0, 0, 0, 0, 0, 0, 0, 0, 0, 0, 0, 0, 0, 0, 0, 0, 0, 0, 0, 0, 0]"	"[0, 0, 0, 0, 0, 0, 0, 0, 0, 0, 0, 0, 0, 0, 0, 0, 0, 0, 0, 0, 0, 0, 0, 0, 0, 0, 0, 0, 1]"	"[3.5841385000385344, 3.8506869000848383, 4.067280900082551, 4.283926600008272, 4.492306400090456, 4.708934099995531, 4.908968400093727, 5.13422070001252, 5.342315800022334, 5.542631900054403, 5.767494700034149, 5.984167900052853, 6.23430070001632, 6.517399100004695, 6.90075400006026, 7.125815200037323, 7.300784500082955, 7.492449200013652, 7.6674738000147045, 7.859295700094663, 8.05102330003865, 8.517549699987285, 8.709218600066379, 8.909226200077683, 9.092574800015427, 9.268891900079325, 9.45111010002438, 9.96778850001283, 10.851280100061558]"	29	"[3.5805397999938577, 3.84707359992899, 4.063668999937363, 4.2803186000091955, 4.488699799985625, 4.705329199903645, 4.90536069998052, 5.130614499910735, 5.338711299933493, 5.539026399957947, 5.763887699926272, 5.980559599935077, 6.230690700002015, 6.513787099975161, 6.897140499902889, 7.122206799918786, 7.297171399928629, 7.488848799956031, 7.663863499998115, 7.855686099966988, 8.04744059999939, 8.51393489993643, 8.705608499934897, 8.905612999922596, 9.088962499983609, 9.26537759997882, 9.447501899907365, 9.964176999987103, 10.847607099916786]"	"[3.721751799923368, 3.9384526999201626, 4.1634805999929085, 4.363507299916819, 4.55515699996613, 4.788505899952725, 5.005181699991226, 5.221872099908069, 5.438541500014253, 5.630217799916863, 5.855417500017211, 6.097082699998282, 6.338714099954814, 6.655302300001495, 7.005330399959348, 7.206751299905591, 7.3984306999482214, 7.580395599943586, 7.763738399953581, 7.96376529999543, 8.155411000014283, 8.613809800008312, 8.813828199985437, 8.997136399964802, 9.1888093999587, 9.363838799996302, 9.53885279991664, 10.089177899993956, 10.847611399949528]"	207.9261514999671	207.93133619998116	209.42324979999103	209.43139049992897								20	01	2024-02-14_11h12.17.319	BART_exp	2023.2.3	119.97096702837109	2024-02-14 11h12.33.341559 +0100	
balloon.png	123	0	15	15	28	209.43139049992897													209.42342619993724	209.43139049992897	209.43139049992897	209.43139049992897	209.43139049992897	209.43139049992897	0.00530259998049587	0.00530259998049587	0.00530259998049587	209.43139049992897	220.0421912999591	40	2.00	False	"[0.028703703703703703, 0.028703703703703703, 0.028703703703703703, 0.028703703703703703, 0.028703703703703703, 0.028703703703703703, 0.028703703703703703, 0.02962962962962963, 0.02962962962962963, 0.02962962962962963, 0.02962962962962963, 0.02962962962962963, 0.02962962962962963, 0.02962962962962963, 0.02962962962962963, 0.02962962962962963, 0.02962962962962963, 0.02962962962962963, 0.02962962962962963, 0.02962962962962963, 0.02962962962962963, 0.02962962962962963, 0.02962962962962963, 0.02962962962962963, 0.02962962962962963, 0.02962962962962963, 0.02962962962962963, 0.02962962962962963, 0.02962962962962963, 0.02962962962962963, 0.02962962962962963, 0.02962962962962963, 0.02962962962962963, 0.02962962962962963, 0.02962962962962963, 0.02962962962962963, 0.02962962962962963, 0.030555555555555555, 0.030555555555555555, 0.030555555555555555, 0.030555555555555555]"	"[-0.3861111111111111, -0.3861111111111111, -0.3861111111111111, -0.3861111111111111, -0.3861111111111111, -0.3861111111111111, -0.3861111111111111, -0.3861111111111111, -0.3861111111111111, -0.3861111111111111, -0.3861111111111111, -0.3861111111111111, -0.3861111111111111, -0.3861111111111111, -0.3861111111111111, -0.3861111111111111, -0.3861111111111111, -0.3861111111111111, -0.3861111111111111, -0.3861111111111111, -0.3861111111111111, -0.3861111111111111, -0.3861111111111111, -0.3861111111111111, -0.3861111111111111, -0.3861111111111111, -0.3861111111111111, -0.3861111111111111, -0.3861111111111111, -0.3861111111111111, -0.3861111111111111, -0.3861111111111111, -0.3861111111111111, -0.3861111111111111, -0.3861111111111111, -0.3861111111111111, -0.3861111111111111, -0.3861111111111111, -0.387037037037037, -0.387037037037037, -0.387037037037037]"	"[1, 1, 1, 1, 1, 1, 1, 1, 1, 1, 1, 1, 1, 1, 1, 1, 1, 1, 1, 1, 1, 1, 1, 1, 1, 1, 1, 1, 1, 1, 1, 1, 1, 1, 1, 1, 1, 1, 1, 1, 0]"	"[0, 0, 0, 0, 0, 0, 0, 0, 0, 0, 0, 0, 0, 0, 0, 0, 0, 0, 0, 0, 0, 0, 0, 0, 0, 0, 0, 0, 0, 0, 0, 0, 0, 0, 0, 0, 0, 0, 0, 0, 0]"	"[0, 0, 0, 0, 0, 0, 0, 0, 0, 0, 0, 0, 0, 0, 0, 0, 0, 0, 0, 0, 0, 0, 0, 0, 0, 0, 0, 0, 0, 0, 0, 0, 0, 0, 0, 0, 0, 0, 0, 0, 1]"	"[1.5754063000204042, 1.7754010000498965, 1.9840087000047788, 2.209153600037098, 2.4173701000399888, 2.608935600030236, 2.8173101999564096, 3.00896849995479, 3.242355399997905, 3.492339999997057, 3.717278999974951, 3.950558300013654, 4.15890199993737, 4.333915999974124, 4.509015999967232, 4.684110900037922, 4.85913110000547, 5.042457400006242, 5.2258491000393406, 5.4175312999868765, 5.600824499968439, 5.85917149996385, 6.017534299986437, 6.1841948999790475, 6.350720699992962, 6.534090099972673, 6.717454400029965, 6.8924492000369355, 7.092460299958475, 7.275963300024159, 7.467669300036505, 7.6676424000179395, 7.87599189998582, 8.084181600017473, 8.309192499960773, 8.500885499990545, 8.692597500048578, 8.884291999973357, 9.434445700026117, 9.842841999954544, 10.617845700006]"	41	"[1.5735719000222161, 1.7735632000258192, 1.9821719999890774, 2.2073204000480473, 2.4155363000463694, 2.6070935999741778, 2.815475399955176, 3.0071297000395134, 3.2405146999517456, 3.4905061000026762, 3.715435200021602, 3.948720999993384, 4.157059699995443, 4.332072000019252, 4.507173600024544, 4.6822945000603795, 4.857293899985962, 5.040619699982926, 5.2240109000122175, 5.415695099974982, 5.598987100063823, 5.857332200044766, 6.0156941000605, 6.182361599989235, 6.3488794000586495, 6.532248400035314, 6.71561539999675, 6.890612000017427, 7.09062160004396, 7.274122599978, 7.465835400042124, 7.665801299968734, 7.874155199970119, 8.082345600007102, 8.307353100040928, 8.499050799990073, 8.690755899995565, 8.882450000033714, 9.432612200034782, 9.841002200031653, 10.615941200056113]"	"[1.6817688000155613, 1.8818475999869406, 2.0984336000401527, 2.323465000023134, 2.52347929996904, 2.7152143999701366, 2.9318231999641284, 3.1152248999569565, 3.33186629996635, 3.5818539999891073, 3.8152217000024393, 4.0402443000348285, 4.231908499961719, 4.415295399958268, 4.5903710999991745, 4.782178899971768, 4.96533899998758, 5.132215699995868, 5.331988099962473, 5.5153910999652, 5.682030600029975, 5.948717599967495, 6.115423299954273, 6.273754599969834, 6.4570765000535175, 6.640519700013101, 6.815496399998665, 7.007153499987908, 7.198795399977826, 7.382146100047976, 7.565624300041236, 7.765513199963607, 7.98219460004475, 8.207246899954043, 8.415587199968286, 8.607215299969539, 8.790606800001115, 8.99058480001986, 9.557323400047608, 9.982321799965575, 10.615945399971679]"	220.04345300002024	220.04880109999795	221.54076899995562	221.54891649994534								20	01	2024-02-14_11h12.17.319	BART_exp	2023.2.3	119.97096702837109	2024-02-14 11h12.33.341559 +0100	
balloon.png	101	0	16	16	23	221.54891649994534													221.5409521999536	221.54891649994534	221.54891649994534	221.54891649994534	221.54891649994534	221.54891649994534	0.005528499954380095	0.005528499954380095	0.005528499954380095	221.54891649994534	227.3926662999438	18	0.90	False	"[0.030555555555555555, 0.030555555555555555, 0.030555555555555555, 0.030555555555555555, 0.030555555555555555, 0.030555555555555555, 0.030555555555555555, 0.030555555555555555, 0.032407407407407406, 0.032407407407407406, 0.032407407407407406, 0.032407407407407406, 0.032407407407407406, 0.032407407407407406, 0.032407407407407406, 0.032407407407407406, 0.032407407407407406, 0.032407407407407406, 0.032407407407407406]"	"[-0.387037037037037, -0.387037037037037, -0.387037037037037, -0.387037037037037, -0.387037037037037, -0.387037037037037, -0.3888888888888889, -0.3907407407407407, -0.38981481481481484, -0.3888888888888889, -0.38981481481481484, -0.38981481481481484, -0.39166666666666666, -0.39166666666666666, -0.39166666666666666, -0.3925925925925926, -0.3925925925925926, -0.3925925925925926, -0.3925925925925926]"	"[1, 1, 1, 1, 1, 1, 1, 1, 1, 1, 1, 1, 1, 1, 1, 1, 1, 1, 0]"	"[0, 0, 0, 0, 0, 0, 0, 0, 0, 0, 0, 0, 0, 0, 0, 0, 0, 0, 0]"	"[0, 0, 0, 0, 0, 0, 0, 0, 0, 0, 0, 0, 0, 0, 0, 0, 0, 0, 1]"	"[0.8170427000150084, 1.0337022000458091, 1.250493000028655, 1.4588603000156581, 1.6755649000406265, 1.8839101999765262, 2.1006684999447316, 2.3339276999467984, 2.5671860999427736, 2.767154600005597, 2.9756063000531867, 3.192182800034061, 3.4338501000311226, 3.667493400047533, 3.917402300052345, 4.242448500008322, 4.742433000006713, 5.109117700019851, 5.850808899966069]"	19	"[0.8151865999680012, 1.031848800019361, 1.2486400000052527, 1.4570569000206888, 1.6737098000012338, 1.88205899996683, 2.098816000041552, 2.332070200005546, 2.565332100028172, 2.7652979999547824, 2.973755400045775, 3.1903283999999985, 3.4319978000130504, 3.6656664999900386, 3.9155553999589756, 4.240609799977392, 4.7405824000015855, 5.10726960003376, 5.848891000030562]"	"[0.9316558999707922, 1.1317002000287175, 1.3498471999773756, 1.5569200000027195, 1.7902620000531897, 1.990089699975215, 2.2150935999816284, 2.4402121000457555, 2.648460700060241, 2.86513529997319, 3.0818103000056, 3.3151804000372067, 3.540184500045143, 3.7735319000203162, 4.0318965000333264, 4.381932100048289, 4.848615200025961, 5.232021100004204, 5.848895200062543]"	227.3935265999753	227.3993176999502	228.89127469994128	228.90776440000627								20	01	2024-02-14_11h12.17.319	BART_exp	2023.2.3	119.97096702837109	2024-02-14 11h12.33.341559 +0100	
balloon.png	36	0	17	17	8	228.90776440000627													228.89145100000314	228.90776440000627	228.90776440000627	228.90776440000627	228.90776440000627	228.90776440000627	-0.0008172999368980527	-0.0008172999368980527	-0.0008172999368980527	228.90776440000627	241.66067539993674	37	1.80	True	"[0.032407407407407406, 0.032407407407407406, 0.032407407407407406, 0.032407407407407406, 0.032407407407407406, 0.032407407407407406, 0.03333333333333333, 0.03333333333333333, 0.03333333333333333, 0.03333333333333333, 0.03333333333333333, 0.03333333333333333, 0.03333333333333333, 0.03333333333333333, 0.03333333333333333, 0.03333333333333333, 0.03333333333333333, 0.03333333333333333, 0.03333333333333333, 0.03333333333333333, 0.03333333333333333, 0.03333333333333333, 0.03333333333333333, 0.03333333333333333, 0.03333333333333333, 0.03333333333333333, 0.03333333333333333, 0.03333333333333333, 0.03333333333333333, 0.03333333333333333, 0.03333333333333333, 0.03333333333333333, 0.03333333333333333, 0.03333333333333333, 0.03333333333333333, 0.03333333333333333, 0.03333333333333333]"	"[-0.38981481481481484, -0.38981481481481484, -0.38981481481481484, -0.38981481481481484, -0.38981481481481484, -0.3888888888888889, -0.38796296296296295, -0.3888888888888889, -0.3888888888888889, -0.38981481481481484, -0.38981481481481484, -0.3907407407407407, -0.39166666666666666, -0.39166666666666666, -0.3925925925925926, -0.39351851851851855, -0.39444444444444443, -0.39444444444444443, -0.39444444444444443, -0.39444444444444443, -0.39444444444444443, -0.39444444444444443, -0.39444444444444443, -0.39444444444444443, -0.39444444444444443, -0.39444444444444443, -0.39444444444444443, -0.39444444444444443, -0.39444444444444443, -0.39444444444444443, -0.39444444444444443, -0.39444444444444443, -0.39444444444444443, -0.39444444444444443, -0.39444444444444443, -0.39444444444444443, -0.39444444444444443]"	"[1, 1, 1, 1, 1, 1, 1, 1, 1, 1, 1, 1, 1, 1, 1, 1, 1, 1, 1, 1, 1, 1, 1, 1, 1, 1, 1, 1, 1, 1, 1, 1, 1, 1, 1, 1, 1]"	"[0, 0, 0, 0, 0, 0, 0, 0, 0, 0, 0, 0, 0, 0, 0, 0, 0, 0, 0, 0, 0, 0, 0, 0, 0, 0, 0, 0, 0, 0, 0, 0, 0, 0, 0, 0, 0]"	"[0, 0, 0, 0, 0, 0, 0, 0, 0, 0, 0, 0, 0, 0, 0, 0, 0, 0, 0, 0, 0, 0, 0, 0, 0, 0, 0, 0, 0, 0, 0, 0, 0, 0, 0, 0, 0]"	"[0.833730100071989, 1.1004954000236467, 1.3338695000857115, 1.550560800009407, 1.7589411000953987, 1.9839590000919998, 2.2171556000830606, 2.4254716000286862, 2.6505047000246122, 2.875662900041789, 3.109166400041431, 3.3341088000452146, 3.5673767999978736, 3.7757223000517115, 3.9840837999945506, 4.208949099993333, 4.51761360000819, 4.9091186000732705, 5.200667500030249, 5.517522200010717, 5.859079000074416, 6.300901100039482, 6.559260500012897, 6.942616000073031, 7.292621600092389, 7.6675046000164, 7.92611310002394, 8.275891200057231, 8.684384800028056, 8.926090700086206, 9.284503900096752, 9.668071200023405, 10.576203000033274, 11.009424300049432, 11.376262000063434, 11.792808300000615, 12.65133100003004]"	37	"[0.8287076000124216, 1.0954655999084935, 1.3288385999621823, 1.5455589999910444, 1.753911199979484, 1.9789289999753237, 2.2121251999633387, 2.4204394000116736, 2.645475599914789, 2.8706336999312043, 3.1041353999171406, 3.3290758999064565, 3.562343699974008, 3.770691999932751, 3.979073299909942, 4.203916899976321, 4.5125897999387234, 4.904087199945934, 5.195642199949361, 5.512488699983805, 5.854045899934135, 6.29587069991976, 6.554257499985397, 6.937579399906099, 7.287592499982566, 7.662467599962838, 7.921083599911071, 8.270862599951215, 8.679355299915187, 8.92106339999009, 9.279475099989213, 9.663057599915192, 10.571172599913552, 11.004389500012621, 11.371237099985592, 11.787776899989694, 12.64630269992631]"	"[0.9785287999548018, 1.2035260999109596, 1.4285464999265969, 1.6536416999297217, 1.8619444000069052, 2.0786005000118166, 2.3035980999702588, 2.520300899981521, 2.7369764999020845, 2.9870182999875396, 3.2120140999322757, 3.445358099997975, 3.6703592999838293, 3.8620526999002323, 4.0787766999565065, 4.320416799979284, 4.637131799943745, 5.020492499927059, 5.29552619997412, 5.645541899953969, 6.02056510001421, 6.420623799902387, 6.66223519993946, 7.070663999998942, 7.428953499998897, 7.7956497999839485, 8.062358299968764, 8.395692299935035, 8.787426399998367, 9.05414609995205, 9.387438799953088, 9.787915900000371, 10.712565999943763, 11.137800899916328, 11.495913699967787, 11.91265359998215, 12.754342400003225]"	241.6619381000055	241.67532679997385	243.1671922999667									20	01	2024-02-14_11h12.17.319	BART_exp	2023.2.3	119.97096702837109	2024-02-14 11h12.33.341559 +0100	
balloon.png	62	0	18	18	14	243.18382379994728													243.16738929995336	243.18382379994728	243.18382379994728	243.18382379994728	243.18382379994728	243.18382379994728	0.006806300021708012	0.006806300021708012	0.006806300021708012	243.18382379994728	248.99421129992697	18	0.90	False	"[0.04259259259259259, 0.04259259259259259, 0.04259259259259259, 0.04259259259259259, 0.04259259259259259, 0.04259259259259259, 0.04259259259259259, 0.04259259259259259, 0.04259259259259259, 0.04259259259259259, 0.04259259259259259, 0.04259259259259259, 0.04259259259259259, 0.04259259259259259, 0.04259259259259259, 0.04259259259259259, 0.04259259259259259, 0.04259259259259259, 0.04259259259259259]"	"[-0.37592592592592594, -0.37592592592592594, -0.37592592592592594, -0.37592592592592594, -0.37592592592592594, -0.37592592592592594, -0.37592592592592594, -0.37592592592592594, -0.37592592592592594, -0.37592592592592594, -0.37592592592592594, -0.3768518518518518, -0.3768518518518518, -0.3768518518518518, -0.3768518518518518, -0.3768518518518518, -0.3768518518518518, -0.3768518518518518, -0.3768518518518518]"	"[1, 1, 1, 1, 1, 1, 1, 1, 1, 1, 1, 1, 1, 1, 1, 1, 1, 1, 0]"	"[0, 0, 0, 0, 0, 0, 0, 0, 0, 0, 0, 0, 0, 0, 0, 0, 0, 0, 0]"	"[0, 0, 0, 0, 0, 0, 0, 0, 0, 0, 0, 0, 0, 0, 0, 0, 0, 0, 1]"	"[0.9337223999900743, 1.1837385999970138, 1.4173437000717968, 1.6422748999902979, 1.875634300056845, 2.1005218999926, 2.3422016000840813, 2.5772173000732437, 2.8006837000139058, 3.0173870000289753, 3.2257520999992266, 3.4424016000702977, 3.6258247999940068, 3.834085499984212, 4.034185299999081, 4.392449700040743, 4.725659199990332, 5.15902600006666, 5.825873500085436]"	19	"[0.9246592000126839, 1.17467829992529, 1.4082831999985501, 1.6332059999695048, 1.8665678999386728, 2.0914573000045493, 2.3331453999271616, 2.568310000002384, 2.791622999939136, 3.0083313999930397, 3.216686600004323, 3.433342200005427, 3.6167659999337047, 3.825017499970272, 4.025125499931164, 4.38338599994313, 4.716596700018272, 5.149970699916594, 5.816744199953973]"	"[1.0495290999533609, 1.2745378999970853, 1.5078808999387547, 1.732894100015983, 1.9579123000148684, 2.1912703999551013, 2.4260378999169916, 2.6579570999601856, 2.8829991000238806, 3.0996694000205025, 3.3163522999966517, 3.524680099915713, 3.716369599918835, 3.91640180000104, 4.099802299984731, 4.499783099978231, 4.833277800003998, 5.258159999968484, 5.816748299985193]"	248.9951519999886	249.00084439991042	250.49280929996166	250.50931009999476								20	01	2024-02-14_11h12.17.319	BART_exp	2023.2.3	119.97096702837109	2024-02-14 11h12.33.341559 +0100	
balloon.png	97	0	19	19	22	250.50931009999476													250.49299509997945	250.50931009999476	250.50931009999476	250.50931009999476	250.50931009999476	250.50931009999476	-0.0009091999381780624	-0.0009091999381780624	-0.0009091999381780624	250.50931009999476	256.4862538999878	24	1.20	False	"[0.04259259259259259, 0.04259259259259259, 0.04259259259259259, 0.04259259259259259, 0.04259259259259259, 0.04259259259259259, 0.041666666666666664, 0.03981481481481482, 0.03888888888888889, 0.037037037037037035, 0.037037037037037035, 0.03611111111111111, 0.03611111111111111, 0.03611111111111111, 0.03611111111111111, 0.037037037037037035, 0.037037037037037035, 0.037037037037037035, 0.037037037037037035, 0.037037037037037035, 0.037037037037037035, 0.037037037037037035, 0.037037037037037035, 0.037037037037037035, 0.037037037037037035]"	"[-0.3768518518518518, -0.3768518518518518, -0.3768518518518518, -0.3768518518518518, -0.37777777777777777, -0.3787037037037037, -0.37962962962962965, -0.3824074074074074, -0.38425925925925924, -0.3861111111111111, -0.3861111111111111, -0.387037037037037, -0.387037037037037, -0.3861111111111111, -0.3861111111111111, -0.38425925925925924, -0.3851851851851852, -0.3851851851851852, -0.3851851851851852, -0.3851851851851852, -0.3851851851851852, -0.3851851851851852, -0.3851851851851852, -0.3851851851851852, -0.3851851851851852]"	"[1, 1, 1, 1, 1, 1, 1, 1, 1, 1, 1, 1, 1, 1, 1, 1, 1, 1, 1, 1, 1, 1, 1, 1, 0]"	"[0, 0, 0, 0, 0, 0, 0, 0, 0, 0, 0, 0, 0, 0, 0, 0, 0, 0, 0, 0, 0, 0, 0, 0, 0]"	"[0, 0, 0, 0, 0, 0, 0, 0, 0, 0, 0, 0, 0, 0, 0, 0, 0, 0, 0, 0, 0, 0, 0, 0, 1]"	"[0.6169979999540374, 0.8170322999358177, 1.0170799000188708, 1.2337085000472143, 1.4421074000420049, 1.6337596999946982, 1.8340846999781206, 2.050500800018199, 2.2422474999912083, 2.4421380000421777, 2.633837900008075, 2.8421677999431267, 3.033843299956061, 3.2421892000129446, 3.450661599985324, 3.6674198999535292, 3.9341141999466345, 4.150688700028695, 4.3341222000308335, 4.517448000027798, 4.700782099971548, 4.934191899956204, 5.1091477000154555, 5.284161599935032, 5.992383899982087]"	25	"[0.6134705999866128, 0.8135024999501184, 1.013552499935031, 1.2301773999352008, 1.4385807999642566, 1.6302358999382704, 1.830580999958329, 2.0469723999267444, 2.2387254999484867, 2.438611299963668, 2.630317799979821, 2.8386393999680877, 3.0303182000061497, 3.238661199924536, 3.447134400019422, 3.663890599971637, 3.9305927999084815, 4.147166299982928, 4.330596499959938, 4.513925699982792, 4.697258199914359, 4.930671899928711, 5.105625699972734, 5.280633999966085, 5.988794200005941]"	"[0.7133905999362469, 0.9135069999611005, 1.1133799999952316, 1.3133683999767527, 1.5217278000200167, 1.713472899980843, 1.9232522000093013, 2.1218647999921814, 2.3301063999533653, 2.5135054999263957, 2.713581799995154, 2.921833199914545, 3.1302132999990135, 3.3301848999690264, 3.5385353999445215, 3.7552262999815866, 4.0386149999685585, 4.247157200006768, 4.422100699972361, 4.605265100020915, 4.846961600007489, 5.030333200003952, 5.2136934999143705, 5.413665600004606, 5.988798399921507]"	256.4872987999115	256.4930291000055	257.9850064999191	258.0097961999709								20	01	2024-02-14_11h12.17.319	BART_exp	2023.2.3	119.97096702837109	2024-02-14 11h12.33.341559 +0100	
balloon.png	79	0	20	20	18	258.0097961999709													257.98518570000306	258.0097961999709	258.0097961999709	258.0097961999709	258.0097961999709	258.0097961999709	-0.0008420000085607171	-0.0008420000085607171	-0.0008420000085607171	258.0097961999709	261.4616128000198	13	0.65	False	"[0.025925925925925925, 0.025925925925925925, 0.025925925925925925, 0.026851851851851852, 0.02962962962962963, 0.03148148148148148, 0.032407407407407406, 0.032407407407407406, 0.032407407407407406, 0.03333333333333333, 0.03425925925925926, 0.03425925925925926, 0.03518518518518519, 0.03518518518518519]"	"[-0.37777777777777777, -0.37777777777777777, -0.37777777777777777, -0.37962962962962965, -0.37777777777777777, -0.37777777777777777, -0.37777777777777777, -0.3787037037037037, -0.38055555555555554, -0.37962962962962965, -0.37962962962962965, -0.3787037037037037, -0.3787037037037037, -0.3787037037037037]"	"[1, 1, 1, 1, 1, 1, 1, 1, 1, 1, 1, 1, 1, 0]"	"[0, 0, 0, 0, 0, 0, 0, 0, 0, 0, 0, 0, 0, 0]"	"[0, 0, 0, 0, 0, 0, 0, 0, 0, 0, 0, 0, 0, 1]"	"[0.5839776999782771, 0.7504913000157103, 0.942034799954854, 1.1421309999423102, 1.3589183000149205, 1.5671756999799982, 1.75054379994981, 1.9674056000076234, 2.167419199948199, 2.3839260999811813, 2.5756061000283808, 2.7756152999354526, 2.976074400008656, 3.4754958000266925]"	14	"[0.5730029999976978, 0.7395108999917284, 0.9310563000617549, 1.1311577999731526, 1.3479459000518546, 1.556192300049588, 1.7395698999753222, 1.9564324000384659, 2.156453900039196, 2.372946099960245, 2.5646258000051603, 2.764639899949543, 2.9652746999636292, 3.4644509999779984]"	"[0.6558694000123069, 0.8392389999935403, 1.047531699994579, 1.2308906000107527, 1.4392712999833748, 1.647864400059916, 1.8476316999876872, 2.055978700052947, 2.264318700064905, 2.464308200054802, 2.6643498999765143, 2.8643162000225857, 3.0643912999657914, 3.4644552000099793]"	261.4623679999495	261.4683812999865	262.96037129999604	262.9768214999931								20	01	2024-02-14_11h12.17.319	BART_exp	2023.2.3	119.97096702837109	2024-02-14 11h12.33.341559 +0100	
balloon.png	88	0	21	21	20	262.9768214999931													262.9605516999727	262.9768214999931	262.9768214999931	262.9768214999931	262.9768214999931	262.9768214999931	-0.0005512000061571598	-0.0005512000061571598	-0.0005512000061571598	262.9768214999931	268.03715480002575	20	1.00	False	"[0.03518518518518519, 0.03518518518518519, 0.037037037037037035, 0.037037037037037035, 0.037037037037037035, 0.037037037037037035, 0.037037037037037035, 0.037037037037037035, 0.037037037037037035, 0.037037037037037035, 0.037037037037037035, 0.037037037037037035, 0.037037037037037035, 0.037037037037037035, 0.037037037037037035, 0.037037037037037035, 0.037037037037037035, 0.037037037037037035, 0.037037037037037035, 0.037037037037037035, 0.037037037037037035]"	"[-0.3787037037037037, -0.3787037037037037, -0.3787037037037037, -0.3787037037037037, -0.3787037037037037, -0.3787037037037037, -0.3787037037037037, -0.3787037037037037, -0.37592592592592594, -0.37592592592592594, -0.37592592592592594, -0.37592592592592594, -0.37777777777777777, -0.37962962962962965, -0.38333333333333336, -0.3824074074074074, -0.3824074074074074, -0.3824074074074074, -0.3824074074074074, -0.3824074074074074, -0.3824074074074074]"	"[1, 1, 1, 1, 1, 1, 1, 1, 1, 1, 1, 1, 1, 1, 1, 1, 1, 1, 1, 1, 0]"	"[0, 0, 0, 0, 0, 0, 0, 0, 0, 0, 0, 0, 0, 0, 0, 0, 0, 0, 0, 0, 0]"	"[0, 0, 0, 0, 0, 0, 0, 0, 0, 0, 0, 0, 0, 0, 0, 0, 0, 0, 0, 0, 1]"	"[0.45877399994060397, 0.683799899998121, 0.8753553000278771, 1.0836682999506593, 1.3003681000554934, 1.508704400039278, 1.7086991999531165, 1.9003928999882191, 2.12544049997814, 2.34207230003085, 2.517091999994591, 2.725467500044033, 2.9337937999516726, 3.117163800052367, 3.3088567999657243, 3.5088282000506297, 3.7172038999851793, 3.9507129000267014, 4.158858899958432, 4.342222000006586, 5.07567549997475]"	21	"[0.45315620000474155, 0.6781842999625951, 0.8697401999961585, 1.0780589999631047, 1.294755500042811, 1.50308519997634, 1.703077399986796, 1.8947819999884814, 2.119827499962412, 2.3364563999930397, 2.5114760999567807, 2.71985210001003, 2.928174200002104, 3.1115507000358775, 3.3032385000260547, 3.503209699993022, 3.711589299957268, 3.945095799979754, 4.153242400032468, 4.336602800060064, 5.069995500030927]"	"[0.5528576000360772, 0.7695630999514833, 0.9780519000487402, 1.1862607999937609, 1.402915499988012, 1.6195840999716893, 1.802966000046581, 1.9947237999876961, 2.227957100025378, 2.4364095999626443, 2.6198042000178248, 2.828029299969785, 3.0363530999748036, 3.2280209000455216, 3.419713499955833, 3.611401000060141, 3.836410599993542, 4.053126399987377, 4.269810499972664, 4.444861500058323, 5.069999900064431]"	268.0382497999817	268.04384129995015	269.53580760001205	269.5439927999396								20	01	2024-02-14_11h12.17.319	BART_exp	2023.2.3	119.97096702837109	2024-02-14 11h12.33.341559 +0100	
balloon.png	27	0	22	22	6	269.5439927999396													269.53599030000623	269.5439927999396	269.5439927999396	269.5439927999396	269.5439927999396	269.5439927999396	0.005807599984109402	0.005807599984109402	0.005807599984109402	269.5439927999396	275.64596160000656	26	1.30	False	"[0.037037037037037035, 0.037037037037037035, 0.037037037037037035, 0.037037037037037035, 0.037037037037037035, 0.037037037037037035, 0.037037037037037035, 0.037037037037037035, 0.037037037037037035, 0.037037037037037035, 0.037037037037037035, 0.037037037037037035, 0.037037037037037035, 0.037037037037037035, 0.037037037037037035, 0.037037037037037035, 0.037037037037037035, 0.037037037037037035, 0.037037037037037035, 0.037037037037037035, 0.037037037037037035, 0.037037037037037035, 0.037037037037037035, 0.037037037037037035, 0.037037037037037035, 0.037037037037037035, 0.037037037037037035]"	"[-0.3824074074074074, -0.3824074074074074, -0.3824074074074074, -0.3824074074074074, -0.3824074074074074, -0.3824074074074074, -0.3824074074074074, -0.3824074074074074, -0.3824074074074074, -0.3824074074074074, -0.3824074074074074, -0.3824074074074074, -0.3824074074074074, -0.3824074074074074, -0.3824074074074074, -0.3824074074074074, -0.3824074074074074, -0.3824074074074074, -0.3824074074074074, -0.3824074074074074, -0.3824074074074074, -0.3824074074074074, -0.3824074074074074, -0.3824074074074074, -0.3824074074074074, -0.3824074074074074, -0.3824074074074074]"	"[1, 1, 1, 1, 1, 1, 1, 1, 1, 1, 1, 1, 1, 1, 1, 1, 1, 1, 1, 1, 1, 1, 1, 1, 1, 1, 0]"	"[0, 0, 0, 0, 0, 0, 0, 0, 0, 0, 0, 0, 0, 0, 0, 0, 0, 0, 0, 0, 0, 0, 0, 0, 0, 0, 0]"	"[0, 0, 0, 0, 0, 0, 0, 0, 0, 0, 0, 0, 0, 0, 0, 0, 0, 0, 0, 0, 0, 0, 0, 0, 0, 0, 1]"	"[0.40054439997766167, 0.5921921000117436, 0.8005658999318257, 1.0255421999609098, 1.2423475999385118, 1.4422261000145227, 1.6505660999100655, 1.8672569999471307, 2.0506369000067934, 2.2339426999678835, 2.417517800000496, 2.6090799999656156, 2.7840448999777436, 2.975722900009714, 3.183993099955842, 3.375698999967426, 3.592345100012608, 3.792409499990754, 3.9673970999429002, 4.158939799992368, 4.360252199927345, 4.558942099916749, 4.758974600001238, 4.9589759999653324, 5.159182199975476, 5.375916299992241, 6.109054400003515]"	26	"[0.39866259996779263, 0.5903105000033975, 0.7986863000551239, 1.0236591000575572, 1.240477400016971, 1.4403485000366345, 1.6486825000029057, 1.8653734000399709, 2.0487571000121534, 2.232058500056155, 2.4156423000385985, 2.607203599996865, 2.7821724000386894, 2.973846000037156, 3.182121600024402, 3.3738161999499425, 3.590460199979134, 3.7905368000501767, 3.9655140000395477, 4.157054599956609, 4.358528499957174, 4.757091799983755, 4.957091100048274, 5.15730479999911, 5.374040100025013, 6.10710789996665]"	"[0.5066435999469832, 0.7066459000343457, 0.9150001000380144, 1.1400212000589818, 1.3567108999704942, 1.54837580001913, 1.7651985000120476, 1.9734957000473514, 2.1567373999860138, 2.3484819000586867, 2.5319512999849394, 2.7151224999688566, 2.898541499977, 3.0901620000367984, 3.2984980000182986, 3.5068366000195965, 3.723575299954973, 3.89854219998233, 4.081880499958061, 4.2652977999532595, 4.656935699982569, 4.865318199968897, 5.075044700060971, 5.273740199976601, 5.473666499950923, 6.107112400000915]"	275.6470270999707	275.65270889992826	277.1447521999944	277.16948599996977								20	01	2024-02-14_11h12.17.319	BART_exp	2023.2.3	119.97096702837109	2024-02-14 11h12.33.341559 +0100	
balloon.png	14	0	23	23	3	277.16948599996977													277.14492819993757	277.16948599996977	277.16948599996977	277.16948599996977	277.16948599996977	277.16948599996977	-0.0008493999484926462	-0.0008493999484926462	-0.0008493999484926462	277.16948599996977	280.15502089995425	15	0.70	True	"[0.037037037037037035, 0.037037037037037035, 0.037037037037037035, 0.037037037037037035, 0.037037037037037035, 0.037037037037037035, 0.037037037037037035, 0.037037037037037035, 0.037037037037037035, 0.037037037037037035, 0.037037037037037035, 0.037037037037037035, 0.037037037037037035, 0.037037037037037035, 0.037037037037037035]"	"[-0.3824074074074074, -0.38425925925925924, -0.38425925925925924, -0.38425925925925924, -0.38425925925925924, -0.38425925925925924, -0.38425925925925924, -0.38425925925925924, -0.38425925925925924, -0.38425925925925924, -0.38425925925925924, -0.38425925925925924, -0.38425925925925924, -0.38425925925925924, -0.38425925925925924]"	"[1, 1, 1, 1, 1, 1, 1, 1, 1, 1, 1, 1, 1, 1, 1]"	"[0, 0, 0, 0, 0, 0, 0, 0, 0, 0, 0, 0, 0, 0, 0]"	"[0, 0, 0, 0, 0, 0, 0, 0, 0, 0, 0, 0, 0, 0, 0]"	"[0.2506514999549836, 0.5087190999183804, 0.70864589989651, 0.8921356999780983, 1.0754919999744743, 1.250448599923402, 1.4171816000016406, 1.5921608000062406, 1.7838557999348268, 1.9589812000049278, 2.1421391000039876, 2.325472499942407, 2.5171055999817327, 2.700419999891892, 2.892100099939853]"	15	"[0.23938329995144159, 0.49744469998404384, 0.6973680999362841, 0.8808594999136403, 1.0642210999503732, 1.2391738999867812, 1.4059080999577418, 1.580888899974525, 1.7725796999875456, 1.9477098999777809, 2.1308679999783635, 2.31419529998675, 2.5058335999492556, 2.6891470999689773, 2.880820499965921]"	"[0.37216579995583743, 0.5888416999951005, 0.7888911999762058, 0.9723988999612629, 1.1555333998985589, 1.3305817999644205, 1.5070773999905214, 1.6889219000004232, 1.8723007999360561, 2.055673999944702, 2.2389859999530017, 2.4140402999473736, 2.605650599929504, 2.780649699969217, 2.989004399976693]"	280.15587699995376	280.16139589995146	281.6533486000262	281.66146610002033								20	01	2024-02-14_11h12.17.319	BART_exp	2023.2.3	119.97096702837109	2024-02-14 11h12.33.341559 +0100	
balloon.png	110	0	24	24	25	281.66146610002033													281.6535356999375	281.66146610002033	281.66146610002033	281.66146610002033	281.66146610002033	281.66146610002033	0.005650600069202483			281.66146610002033	288.5221503999783	29	1.45	False	"[0.037037037037037035, 0.037037037037037035, 0.037037037037037035, 0.037037037037037035, 0.037037037037037035, 0.037037037037037035, 0.037037037037037035, 0.037037037037037035, 0.037037037037037035, 0.037037037037037035, 0.037037037037037035, 0.037037037037037035, 0.037037037037037035, 0.037037037037037035, 0.037037037037037035, 0.037037037037037035, 0.037037037037037035, 0.037037037037037035, 0.037037037037037035, 0.037037037037037035, 0.037037037037037035, 0.037037037037037035, 0.037037037037037035, 0.03611111111111111, 0.03611111111111111, 0.03611111111111111, 0.03611111111111111, 0.03611111111111111, 0.03611111111111111, 0.03611111111111111]"	"[-0.38425925925925924, -0.38425925925925924, -0.38425925925925924, -0.38425925925925924, -0.38425925925925924, -0.38425925925925924, -0.38425925925925924, -0.38425925925925924, -0.38425925925925924, -0.38425925925925924, -0.38425925925925924, -0.38425925925925924, -0.3851851851851852, -0.3851851851851852, -0.3861111111111111, -0.3861111111111111, -0.3861111111111111, -0.3861111111111111, -0.3861111111111111, -0.3861111111111111, -0.3861111111111111, -0.387037037037037, -0.3888888888888889, -0.3888888888888889, -0.38981481481481484, -0.3907407407407407, -0.3907407407407407, -0.3907407407407407, -0.39166666666666666, -0.39166666666666666]"	"[1, 1, 1, 1, 1, 1, 1, 1, 1, 1, 1, 1, 1, 1, 1, 1, 1, 1, 1, 1, 1, 1, 1, 1, 1, 1, 1, 1, 1, 0]"	"[0, 0, 0, 0, 0, 0, 0, 0, 0, 0, 0, 0, 0, 0, 0, 0, 0, 0, 0, 0, 0, 0, 0, 0, 0, 0, 0, 0, 0, 0]"	"[0, 0, 0, 0, 0, 0, 0, 0, 0, 0, 0, 0, 0, 0, 0, 0, 0, 0, 0, 0, 0, 0, 0, 0, 0, 0, 0, 0, 0, 1]"	"[0.566972800064832, 0.7836367000127211, 1.0004513000603765, 1.2337266000686213, 1.4420601000310853, 1.6506837999913841, 1.867234000004828, 2.0589476000750437, 2.242086000042036, 2.433880400029011, 2.63401340006385, 2.8339164000935853, 3.0338224000297487, 3.2256273000966758, 3.4255134999984875, 3.6255063000135124, 3.8088587999809533, 3.992229000083171, 4.184006400057115, 4.375586500042118, 4.575611800071783, 4.783972700010054, 4.98394210007973, 5.2006784999975935, 5.4007858000695705, 5.600661400007084, 5.8090037000365555, 6.000672199996188, 6.192474800045602, 6.867711500031874]"	29	"[0.5650701000122353, 0.7817338000750169, 0.9985432999674231, 1.2318191999802366, 1.440153400064446, 1.648782900068909, 1.8653302000602707, 2.0570490000536665, 2.2401839999947697, 2.4319728000555187, 2.6321196999633685, 2.832012700033374, 3.031921899993904, 3.223723900038749, 3.4236071000341326, 3.806951000005938, 3.9903261000290513, 4.182099199970253, 4.373683399986476, 4.573709900025278, 4.782066300045699, 4.982034799992107, 5.198778899968602, 5.398881700006314, 5.59876369999256, 5.807101199985482, 5.998767800047062, 6.190567800076678, 6.865742100053467]"	"[0.6566098000621423, 0.8733249000506476, 1.0984003000194207, 1.3150127000408247, 1.5316606999840587, 1.740012599970214, 1.9483718000119552, 2.156775200041011, 2.3402132000774145, 2.5233944000210613, 2.7318056999938563, 2.931760000064969, 3.123453599982895, 3.315128599992022, 3.706958799972199, 3.898471000022255, 4.081838999991305, 4.281855000066571, 4.481902400031686, 4.673535000067204, 4.881882400019094, 5.098570900037885, 5.315245200064965, 5.515268300077878, 5.715346100041643, 5.9069448000518605, 6.10696490004193, 6.298669600044377, 6.865746199968271]"	288.52330719993915	288.5286234000232	290.020631399937	290.03706339991186								20	01	2024-02-14_11h12.17.319	BART_exp	2023.2.3	119.97096702837109	2024-02-14 11h12.33.341559 +0100	
balloon.png	84	0	25	25	19	290.03706339991186													290.02082239999436	290.03706339991186	290.03706339991186	290.03706339991186	290.03706339991186	290.03706339991186	0.013824899913743138	0.013824899913743138	0.013824899913743138	290.03706339991186	292.60549220000394	7	0.35	False	"[0.03611111111111111, 0.03611111111111111, 0.03611111111111111, 0.03611111111111111, 0.03611111111111111, 0.03611111111111111, 0.037037037037037035, 0.037037037037037035]"	"[-0.39166666666666666, -0.39166666666666666, -0.39166666666666666, -0.3907407407407407, -0.38981481481481484, -0.38796296296296295, -0.3861111111111111, -0.3861111111111111]"	"[1, 1, 1, 1, 1, 1, 1, 0]"	"[0, 0, 0, 0, 0, 0, 0, 0]"	"[0, 0, 0, 0, 0, 0, 0, 1]"	"[0.3087182000745088, 0.5005485001020133, 0.7004249000456184, 0.9171699000289664, 1.1171346000628546, 1.333825800102204, 2.067151300027035, 2.583733200095594]"	8	"[0.30673990002833307, 0.4985649000154808, 0.6984437999781221, 0.9151893999660388, 1.1151539999991655, 1.331846100045368, 2.065165700041689, 2.581691100029275]"	"[0.4064430999569595, 0.6064523999812081, 0.8065135000506416, 1.0148311000084504, 1.2231584000401199, 1.431542000034824, 2.164893400040455, 2.581695400062017]"	292.6062239999883	292.6122344000032	294.10419099999126	294.12067989993375								20	01	2024-02-14_11h12.17.319	BART_exp	2023.2.3	119.97096702837109	2024-02-14 11h12.33.341559 +0100	
balloon.png	105	0	26	26	24	294.12067989993375													294.1043724999763	294.12067989993375	294.12067989993375	294.12067989993375	294.12067989993375	294.12067989993375	-0.000624299980700016	-0.000624299980700016	-0.000624299980700016	294.12067989993375	299.7809813999338	20	1.00	False	"[0.03796296296296296, 0.03796296296296296, 0.03796296296296296, 0.03796296296296296, 0.03796296296296296, 0.03796296296296296, 0.03796296296296296, 0.03796296296296296, 0.03796296296296296, 0.03888888888888889, 0.03888888888888889, 0.03888888888888889, 0.03888888888888889, 0.03888888888888889, 0.03888888888888889, 0.03888888888888889, 0.03888888888888889, 0.03888888888888889, 0.03888888888888889, 0.03888888888888889, 0.03888888888888889]"	"[-0.38425925925925924, -0.38425925925925924, -0.38425925925925924, -0.38425925925925924, -0.38425925925925924, -0.38425925925925924, -0.38425925925925924, -0.38425925925925924, -0.387037037037037, -0.387037037037037, -0.3861111111111111, -0.38796296296296295, -0.38796296296296295, -0.38796296296296295, -0.38796296296296295, -0.38796296296296295, -0.38796296296296295, -0.38796296296296295, -0.38796296296296295, -0.38796296296296295, -0.387037037037037]"	"[1, 1, 1, 1, 1, 1, 1, 1, 1, 1, 1, 1, 1, 1, 1, 1, 1, 1, 1, 1, 0]"	"[0, 0, 0, 0, 0, 0, 0, 0, 0, 0, 0, 0, 0, 0, 0, 0, 0, 0, 0, 0, 0]"	"[0, 0, 0, 0, 0, 0, 0, 0, 0, 0, 0, 0, 0, 0, 0, 0, 0, 0, 0, 0, 1]"	"[0.3670142999617383, 0.5587989999912679, 0.767165599972941, 0.9921811000676826, 1.2088997999671847, 1.425660700071603, 1.6422516000457108, 1.842328600003384, 2.050630500074476, 2.259001399972476, 2.4673391999676824, 2.6672428000019863, 2.8838636999716982, 3.0922243000240996, 3.308881100034341, 3.508947200025432, 4.200835300027393, 4.4174626000458375, 4.875869999988936, 5.0840414999984205, 5.675714700017124]"	21	"[0.36456130002625287, 0.5563516000984237, 0.7647152000572532, 0.9897273000096902, 1.2064475000370294, 1.4232177000958472, 1.639799900003709, 1.8398827000055462, 2.0481791000347584, 2.256550900056027, 2.46489400009159, 2.6647982000140473, 2.8814108000369743, 3.0897803000407293, 3.306426100083627, 3.506501100026071, 4.198388600023463, 4.415014300029725, 4.873424599994905, 5.081592900096439, 5.673201800091192]"	"[0.47275770001579076, 0.664521099999547, 0.8728337000356987, 1.0978012999985367, 1.31449000001885, 1.531251100008376, 1.7395349000580609, 1.9478858000366017, 2.156278100097552, 2.3562619000440463, 2.57290330005344, 2.764605800039135, 2.9729401000076905, 3.1896368000889197, 3.414627099991776, 3.622966399998404, 4.331338100018911, 4.531418400001712, 4.981582100037485, 5.198111200006679, 5.673206200008281]"	299.7819070999976	299.78774129995145	301.2796972999349	301.2961773999268								20	01	2024-02-14_11h12.17.319	BART_exp	2023.2.3	119.97096702837109	2024-02-14 11h12.33.341559 +0100	
balloon.png	49	0	27	27	11	301.2961773999268													301.2798765000189	301.2961773999268	301.2961773999268	301.2961773999268	301.2961773999268	301.2961773999268	-0.0007369000231847167	-0.0007369000231847167	-0.0007369000231847167	301.2961773999268	305.8230942999944	12	0.60	False	"[0.03981481481481482, 0.03981481481481482, 0.03981481481481482, 0.03981481481481482, 0.03981481481481482, 0.03981481481481482, 0.03981481481481482, 0.03981481481481482, 0.03981481481481482, 0.03981481481481482, 0.040740740740740744, 0.041666666666666664, 0.041666666666666664]"	"[-0.3861111111111111, -0.3861111111111111, -0.3861111111111111, -0.3861111111111111, -0.3851851851851852, -0.3851851851851852, -0.3861111111111111, -0.3861111111111111, -0.3861111111111111, -0.3851851851851852, -0.38425925925925924, -0.3824074074074074, -0.3814814814814815]"	"[1, 1, 1, 1, 1, 1, 1, 1, 1, 1, 1, 1, 0]"	"[0, 0, 0, 0, 0, 0, 0, 0, 0, 0, 0, 0, 0]"	"[0, 0, 0, 0, 0, 0, 0, 0, 0, 0, 0, 0, 1]"	"[0.7838153999764472, 1.0338679000269622, 1.2505324999801815, 1.492123799980618, 1.733722300035879, 1.9839694000547752, 2.225633000023663, 2.450584499980323, 2.6589451000327244, 2.86734850006178, 3.083835400058888, 3.3006264000432566, 4.54226550005842]"	13	"[0.7772378999507055, 1.0272942000301555, 1.2439511000411585, 1.4855418000370264, 1.7271425999933854, 1.977384899975732, 2.219052299973555, 2.4440031000413, 2.6523612999590114, 2.860775399953127, 3.0772538000019267, 3.294050500029698, 4.535622900002636]"	"[0.9103516000322998, 1.110323300003074, 1.352037400007248, 1.585320399957709, 1.8270950999576598, 2.093690700014122, 2.318765699979849, 2.543752899975516, 2.7437263999599963, 2.9605096000013873, 3.177109200041741, 3.3854448000201955, 4.535627200035378]"	305.82396089995746	305.8298396000173	307.3218019999331	307.3382884999737								20	01	2024-02-14_11h12.17.319	BART_exp	2023.2.3	119.97096702837109	2024-02-14 11h12.33.341559 +0100	
balloon.png	1	0	28	28	0	307.3382884999737													307.32197779999115	307.3382884999737	307.3382884999737	307.3382884999737	307.3382884999737	307.3382884999737	-0.000740199931897223	-0.000740199931897223	-0.000740199931897223	307.3382884999737	308.1486894999398	2	0.05	True	"[0.041666666666666664, 0.041666666666666664]"	"[-0.38055555555555554, -0.38055555555555554]"	"[1, 1]"	"[0, 0]"	"[0, 0]"	"[0.5338224999140948, 0.7254727999679744]"	2	"[0.5290533000370488, 0.7207041999790817]"	"[0.6301778999622911, 0.8122418000129983]"	308.14925409993157	308.1550385999726	309.64699959999416	309.6634319999721								20	01	2024-02-14_11h12.17.319	BART_exp	2023.2.3	119.97096702837109	2024-02-14 11h12.33.341559 +0100	
balloon.png	5	0	29	29	1	309.6634319999721													309.64718510000966	309.6634319999721	309.6634319999721	309.6634319999721	309.6634319999721	309.6634319999721	-0.000786700053140521	-0.000786700053140521	-0.000786700053140521	309.6634319999721	312.0822907999391	6	0.25	True	"[0.041666666666666664, 0.041666666666666664, 0.041666666666666664, 0.041666666666666664, 0.041666666666666664, 0.041666666666666664]"	"[-0.38055555555555554, -0.38055555555555554, -0.38055555555555554, -0.38055555555555554, -0.38055555555555554, -0.38055555555555554]"	"[1, 1, 1, 1, 1, 1]"	"[0, 0, 0, 0, 0, 0]"	"[0, 0, 0, 0, 0, 0]"	"[1.2672363000456244, 1.4921703999862075, 1.7170588000444695, 1.925367100047879, 2.1337398999603465, 2.33374020003248]"	6	"[1.257694000029005, 1.482628200086765, 1.707510899985209, 1.9158194999909028, 2.1242003000807017, 2.324191900086589]"	"[1.365652900072746, 1.582449599984102, 1.7823392000282183, 1.9990315000759438, 2.207391200005077, 2.4157481000293046]"	312.0829159999266	312.08861029997934	313.58056929998565	313.5887143999571								20	01	2024-02-14_11h12.17.319	BART_exp	2023.2.3	119.97096702837109	2024-02-14 11h12.33.341559 +0100	
																																														313.5806038000155	313.5887143999571	313.5887143999571	330.32376379997004	space	16.730962500092573	None	20	01	2024-02-14_11h12.17.319	BART_exp	2023.2.3	119.97096702837109	2024-02-14 11h12.33.341559 +0100	
