diceImage	d_number	dice_loop.thisRepN	dice_loop.thisTrialN	dice_loop.thisN	dice_loop.thisIndex	thisRow.t	notes	Start.started	text_start.started	continue_start.started	mouse_start.started	Start.stopped	mouse_start.x	mouse_start.y	mouse_start.leftButton	mouse_start.midButton	mouse_start.rightButton	mouse_start.time	trial.started	box_dice.started	text_dice_header.started	text_gain.started	value_gain.started	text_bank.started	value_bank.started	img_dice_1.started	img_dice_2.started	img_dice_3.started	img_dice_4.started	img_dice_5.started	img_dice_6.started	img_dice_1_2.started	img_dice_3_4.started	img_dice_5_6.started	img_dice_1_2_3.started	img_dice_4_5_6.started	img_dice_1_2_3_4.started	img_dice_2_3_4_5.started	img_dice_3_4_5_6.started	text_value_header.started	text_value_1000.started	text_value_500.started	text_value_200.started	text_value_100.started	mouse_task.started	loss_sound.started	img_dice_throw_trials.started	img_dice_throw_trials.stopped	trial.stopped	mouse_task.x	mouse_task.y	mouse_task.leftButton	mouse_task.midButton	mouse_task.rightButton	mouse_task.time	choice	gain	gain_sound.started	gain_sound.stopped	End.started	text_end.started	key_end.started	End.stopped	key_end.keys	key_end.rt	key_end.duration	participant	session	date	expName	psychopyVersion	frameRate	expStart	
								0.03892750001978129	0.04641770001035184	0.04641770001035184	0.03926440002396703	32.71607079997193	[0.6768518518518518]	[-0.37777777777777777]	[1]	[0]	[0]	[32.676242299959995]																																																	20	02	2024-02-14_11h46.04.274	GDT_exp	2023.2.3	119.98651346906641	2024-02-14 11h46.14.056542 +0100	
dice_1.png	1	0	0	0	0	32.79880939994473													32.72096089995466	32.79880939994473	32.79880939994473	32.79880939994473	32.79880939994473	32.79880939994473	32.79880939994473	32.79880939994473	32.79880939994473	32.79880939994473	32.79880939994473	32.79880939994473	32.79880939994473	32.79880939994473	32.79880939994473	32.79880939994473	32.79880939994473	32.79880939994473	32.79880939994473	32.79880939994473	32.79880939994473	32.79880939994473	32.79880939994473	32.79880939994473	32.79880939994473	32.79880939994473	0.022826600004918873	1.89114600000903	34.67393719998654	36.24073179997504	36.19343719992321	"[-0.09537037037037037, -0.09537037037037037, -0.09537037037037037, -0.09537037037037037]"	"[-0.23055555555555557, -0.23055555555555557, -0.23055555555555557, -0.23055555555555557]"	"[1, 0, 1, 1]"	"[0, 0, 0, 0]"	"[0, 1, 0, 0]"	"[1.3033632999286056, 1.8366947999456897, 2.778535999939777, 3.3300362000009045]"	3	-200										20	02	2024-02-14_11h46.04.274	GDT_exp	2023.2.3	119.98651346906641	2024-02-14 11h46.14.056542 +0100	
dice_3.png	3	0	1	1	2	36.24073179997504													36.19427029998042	36.24073179997504	36.24073179997504	36.24073179997504	36.24073179997504	36.24073179997504	36.24073179997504	36.24073179997504	36.24073179997504	36.24073179997504	36.24073179997504	36.24073179997504	36.24073179997504	36.24073179997504	36.24073179997504	36.24073179997504	36.24073179997504	36.24073179997504	36.24073179997504	36.24073179997504	36.24073179997504	36.24073179997504	36.24073179997504	36.24073179997504	36.24073179997504	36.24073179997504	0.018391599995084107	0.8466494999593124	37.107616499997675	38.65757239994127	38.61005849996582	"[-0.09537037037037037, -0.09537037037037037, -0.24351851851851852]"	"[-0.23055555555555557, -0.23055555555555557, -0.35555555555555557]"	"[1, 0, 1]"	"[0, 0, 0]"	"[0, 1, 0]"	"[0.3613306999905035, 0.8281397999962792, 1.7532232999801636]"	3	-200										20	02	2024-02-14_11h46.04.274	GDT_exp	2023.2.3	119.98651346906641	2024-02-14 11h46.14.056542 +0100	
dice_4.png	4	0	2	2	3	38.65757239994127													38.61060000001453	38.65757239994127	38.65757239994127	38.65757239994127	38.65757239994127	38.65757239994127	38.65757239994127	38.65757239994127	38.65757239994127	38.65757239994127	38.65757239994127	38.65757239994127	38.65757239994127	38.65757239994127	38.65757239994127	38.65757239994127	38.65757239994127	38.65757239994127	38.65757239994127	38.65757239994127	38.65757239994127	38.65757239994127	38.65757239994127	38.65757239994127	38.65757239994127	38.65757239994127	0.01821200002450496		39.27440130000468	40.8494028999703	40.801952600013465	"[-0.24351851851851852, -0.24351851851851852]"	"[-0.35555555555555557, -0.35555555555555557]"	"[1, 0]"	"[0, 0]"	"[0, 1]"	"[0.028911100002005696, 0.5703587000025436]"	4	100	0.5887958999956027	2.122311700019054								20	02	2024-02-14_11h46.04.274	GDT_exp	2023.2.3	119.98651346906641	2024-02-14 11h46.14.056542 +0100	
dice_5.png	5	0	3	3	4	40.8494028999703													40.80250829993747	40.8494028999703	40.8494028999703	40.8494028999703	40.8494028999703	40.8494028999703	40.8494028999703	40.8494028999703	40.8494028999703	40.8494028999703	40.8494028999703	40.8494028999703	40.8494028999703	40.8494028999703	40.8494028999703	40.8494028999703	40.8494028999703	40.8494028999703	40.8494028999703	40.8494028999703	40.8494028999703	40.8494028999703	40.8494028999703	40.8494028999703	40.8494028999703	40.8494028999703	0.017960199969820678		41.57444629992824	43.149670799961314	43.11010419996455	"[0.08611111111111111, 0.08333333333333333]"	"[-0.36574074074074076, -0.3611111111111111]"	"[1, 0]"	"[0, 0]"	"[0, 1]"	"[0.28715690004173666, 0.6790698000695556]"	4	100	0.6970919000450522	2.205550799961202								20	02	2024-02-14_11h46.04.274	GDT_exp	2023.2.3	119.98651346906641	2024-02-14 11h46.14.056542 +0100	
dice_2.png	2	0	4	4	1	43.149670799961314													43.11063619994093	43.149670799961314	43.149670799961314	43.149670799961314	43.149670799961314	43.149670799961314	43.149670799961314	43.149670799961314	43.149670799961314	43.149670799961314	43.149670799961314	43.149670799961314	43.149670799961314	43.149670799961314	43.149670799961314	43.149670799961314	43.149670799961314	43.149670799961314	43.149670799961314	43.149670799961314	43.149670799961314	43.149670799961314	43.149670799961314	43.149670799961314	43.149670799961314	43.149670799961314	0.014634400024078786		44.891250999993645	46.45811619993765	46.41036689991597	"[-0.5703703703703704, -0.5703703703703704]"	"[-0.34814814814814815, -0.34814814814814815]"	"[1, 0]"	"[0, 0]"	"[0, 1]"	"[1.1909799999557436, 1.699319600011222]"	4	100	1.7141716000624	3.2311343000037596								20	02	2024-02-14_11h46.04.274	GDT_exp	2023.2.3	119.98651346906641	2024-02-14 11h46.14.056542 +0100	
dice_6.png	6	0	5	5	5	46.45811619993765													46.41094550001435	46.45811619993765	46.45811619993765	46.45811619993765	46.45811619993765	46.45811619993765	46.45811619993765	46.45811619993765	46.45811619993765	46.45811619993765	46.45811619993765	46.45811619993765	46.45811619993765	46.45811619993765	46.45811619993765	46.45811619993765	46.45811619993765	46.45811619993765	46.45811619993765	46.45811619993765	46.45811619993765	46.45811619993765	46.45811619993765	46.45811619993765	46.45811619993765	46.45811619993765	0.01823529996909201	0.7557264999486506	47.24149889999535	48.808272199938074	48.76908779994119	"[-0.21574074074074073, -0.21574074074074073, -0.23333333333333334]"	"[-0.36018518518518516, -0.36018518518518516, -0.3574074074074074]"	"[1, 0, 1]"	"[0, 0, 0]"	"[0, 1, 0]"	"[0.23701600008644164, 0.7370829000137746, 2.0540926000103354]"	4	-100										20	02	2024-02-14_11h46.04.274	GDT_exp	2023.2.3	119.98651346906641	2024-02-14 11h46.14.056542 +0100	
dice_4.png	4	1	0	6	3	48.808272199938074													48.76962569996249	48.808272199938074	48.808272199938074	48.808272199938074	48.808272199938074	48.808272199938074	48.808272199938074	48.808272199938074	48.808272199938074	48.808272199938074	48.808272199938074	48.808272199938074	48.808272199938074	48.808272199938074	48.808272199938074	48.808272199938074	48.808272199938074	48.808272199938074	48.808272199938074	48.808272199938074	48.808272199938074	48.808272199938074	48.808272199938074	48.808272199938074	48.808272199938074	48.808272199938074	0.014793399954214692		50.10836690000724	51.65026219992433	51.611203699954785	"[-0.10185185185185185, -0.10185185185185185]"	"[-0.25092592592592594, -0.25092592592592594]"	"[1, 0]"	"[0, 0]"	"[0, 1]"	"[0.8324707000283524, 1.2573461000574753]"	3	200	1.2722216999391094	2.772356200031936								20	02	2024-02-14_11h46.04.274	GDT_exp	2023.2.3	119.98651346906641	2024-02-14 11h46.14.056542 +0100	
dice_1.png	1	1	1	7	0	51.65026219992433													51.61176389991306	51.65026219992433	51.65026219992433	51.65026219992433	51.65026219992433	51.65026219992433	51.65026219992433	51.65026219992433	51.65026219992433	51.65026219992433	51.65026219992433	51.65026219992433	51.65026219992433	51.65026219992433	51.65026219992433	51.65026219992433	51.65026219992433	51.65026219992433	51.65026219992433	51.65026219992433	51.65026219992433	51.65026219992433	51.65026219992433	51.65026219992433	51.65026219992433	51.65026219992433	0.014529500040225685	1.3470019000815228	53.025239199982025	54.60034409991931	54.561103499960154	"[0.03148148148148148, 0.03148148148148148, 0.05]"	"[-0.3416666666666667, -0.3416666666666667, -0.3416666666666667]"	"[1, 0, 1]"	"[0, 0, 0]"	"[0, 1, 0]"	"[0.8407178999623284, 1.3322999000083655, 2.8824021000182256]"	4	-100										20	02	2024-02-14_11h46.04.274	GDT_exp	2023.2.3	119.98651346906641	2024-02-14 11h46.14.056542 +0100	
dice_6.png	6	1	2	8	5	54.60034409991931													54.56165960000362	54.60034409991931	54.60034409991931	54.60034409991931	54.60034409991931	54.60034409991931	54.60034409991931	54.60034409991931	54.60034409991931	54.60034409991931	54.60034409991931	54.60034409991931	54.60034409991931	54.60034409991931	54.60034409991931	54.60034409991931	54.60034409991931	54.60034409991931	54.60034409991931	54.60034409991931	54.60034409991931	54.60034409991931	54.60034409991931	54.60034409991931	54.60034409991931	54.60034409991931	0.014885999960824847		55.125387999927625	56.69216500001494	56.65325969993137	[0.05]	[-0.3416666666666667]	[0]	[0]	[1]	[0.47384560003411025]	4	100	0.488872499903664	1.9890165999531746								20	02	2024-02-14_11h46.04.274	GDT_exp	2023.2.3	119.98651346906641	2024-02-14 11h46.14.056542 +0100	
dice_3.png	3	1	3	9	2	56.69216500001494													56.65382379991934	56.69216500001494	56.69216500001494	56.69216500001494	56.69216500001494	56.69216500001494	56.69216500001494	56.69216500001494	56.69216500001494	56.69216500001494	56.69216500001494	56.69216500001494	56.69216500001494	56.69216500001494	56.69216500001494	56.69216500001494	56.69216500001494	56.69216500001494	56.69216500001494	56.69216500001494	56.69216500001494	56.69216500001494	56.69216500001494	56.69216500001494	56.69216500001494	56.69216500001494	0.014986499911174178		57.73394609999377	59.30066970002372	59.26135629997589	"[-0.6231481481481481, -0.6166666666666667]"	"[-0.3592592592592593, -0.35555555555555557]"	"[1, 0]"	"[0, 0]"	"[0, 1]"	"[0.47325689997524023, 0.9983274999540299]"	4	100	1.0135686999419704	2.5387133999029174								20	02	2024-02-14_11h46.04.274	GDT_exp	2023.2.3	119.98651346906641	2024-02-14 11h46.14.056542 +0100	
dice_5.png	5	1	4	10	4	59.30066970002372													59.261940099997446	59.30066970002372	59.30066970002372	59.30066970002372	59.30066970002372	59.30066970002372	59.30066970002372	59.30066970002372	59.30066970002372	59.30066970002372	59.30066970002372	59.30066970002372	59.30066970002372	59.30066970002372	59.30066970002372	59.30066970002372	59.30066970002372	59.30066970002372	59.30066970002372	59.30066970002372	59.30066970002372	59.30066970002372	59.30066970002372	59.30066970002372	59.30066970002372	59.30066970002372	0.014455400058068335	0.5306920000584796	59.875731999985874	61.41749969997909	61.37846269994043	"[-0.3990740740740741, -0.3990740740740741]"	"[-0.25092592592592594, -0.25092592592592594]"	"[1, 0]"	"[0, 0]"	"[0, 1]"	"[0.12418699997942895, 0.5159949000226334]"	3	-200										20	02	2024-02-14_11h46.04.274	GDT_exp	2023.2.3	119.98651346906641	2024-02-14 11h46.14.056542 +0100	
dice_2.png	2	1	5	11	1	61.41749969997909													61.379044199944474	61.41749969997909	61.41749969997909	61.41749969997909	61.41749969997909	61.41749969997909	61.41749969997909	61.41749969997909	61.41749969997909	61.41749969997909	61.41749969997909	61.41749969997909	61.41749969997909	61.41749969997909	61.41749969997909	61.41749969997909	61.41749969997909	61.41749969997909	61.41749969997909	61.41749969997909	61.41749969997909	61.41749969997909	61.41749969997909	61.41749969997909	61.41749969997909	61.41749969997909	0.01499689999036491		62.13424819998909	63.70099039992783	63.665003199945204	"[-0.23333333333333334, -0.23333333333333334]"	"[-0.3527777777777778, -0.3527777777777778]"	"[1, 0]"	"[0, 0]"	"[0, 1]"	"[0.15670910000335425, 0.6734040000010282]"	4	100	0.6886497000232339	2.1889242000179365								20	02	2024-02-14_11h46.04.274	GDT_exp	2023.2.3	119.98651346906641	2024-02-14 11h46.14.056542 +0100	
dice_3.png	3	2	0	12	2	63.70099039992783													63.66554359998554	63.70099039992783	63.70099039992783	63.70099039992783	63.70099039992783	63.70099039992783	63.70099039992783	63.70099039992783	63.70099039992783	63.70099039992783	63.70099039992783	63.70099039992783	63.70099039992783	63.70099039992783	63.70099039992783	63.70099039992783	63.70099039992783	63.70099039992783	63.70099039992783	63.70099039992783	63.70099039992783	63.70099039992783	63.70099039992783	63.70099039992783	63.70099039992783	63.70099039992783	0.014339099987410009		64.70939219999127	66.25118000002112	66.2119617999997	"[-0.23333333333333334, -0.23333333333333334]"	"[-0.3527777777777778, -0.3527777777777778]"	"[1, 0]"	"[0, 0]"	"[0, 1]"	"[0.4378899000585079, 0.9544027999509126]"	4	100	0.9689994999207556	2.4774920999770984								20	02	2024-02-14_11h46.04.274	GDT_exp	2023.2.3	119.98651346906641	2024-02-14 11h46.14.056542 +0100	
dice_4.png	4	2	1	13	3	66.25118000002112													66.21250519994646	66.25118000002112	66.25118000002112	66.25118000002112	66.25118000002112	66.25118000002112	66.25118000002112	66.25118000002112	66.25118000002112	66.25118000002112	66.25118000002112	66.25118000002112	66.25118000002112	66.25118000002112	66.25118000002112	66.25118000002112	66.25118000002112	66.25118000002112	66.25118000002112	66.25118000002112	66.25118000002112	66.25118000002112	66.25118000002112	66.25118000002112	66.25118000002112	66.25118000002112	0.015427200007252395		67.70141589990817	69.26807649992406	69.22155629994813	"[-0.5546296296296296, -0.5546296296296296, 0.05555555555555555]"	"[-0.35462962962962963, -0.35462962962962963, -0.3453703703703704]"	"[1, 0, 1]"	"[0, 0, 0]"	"[0, 1, 0]"	"[1.1313357000472024, 1.4065111000090837, 2.981776100001298]"	4	100	1.4222411999944597	2.947513599996455								20	02	2024-02-14_11h46.04.274	GDT_exp	2023.2.3	119.98651346906641	2024-02-14 11h46.14.056542 +0100	
dice_5.png	5	2	2	14	4	69.26807649992406													69.22210030001588	69.26807649992406	69.26807649992406	69.26807649992406	69.26807649992406	69.26807649992406	69.26807649992406	69.26807649992406	69.26807649992406	69.26807649992406	69.26807649992406	69.26807649992406	69.26807649992406	69.26807649992406	69.26807649992406	69.26807649992406	69.26807649992406	69.26807649992406	69.26807649992406	69.26807649992406	69.26807649992406	69.26807649992406	69.26807649992406	69.26807649992406	69.26807649992406	69.26807649992406	0.018930800026282668		69.79308450000826	71.36821939994115	71.32079529995099	"[0.05555555555555555, 0.05555555555555555]"	"[-0.3453703703703704, -0.3453703703703704]"	"[0, 1]"	"[0, 0]"	"[1, 0]"	"[0.48522949998732656, 1.7772394999628887]"	4	100	0.5044476999901235	2.0296002000104636								20	02	2024-02-14_11h46.04.274	GDT_exp	2023.2.3	119.98651346906641	2024-02-14 11h46.14.056542 +0100	
dice_1.png	1	2	3	15	0	71.36821939994115													71.32136840000749	71.36821939994115	71.36821939994115	71.36821939994115	71.36821939994115	71.36821939994115	71.36821939994115	71.36821939994115	71.36821939994115	71.36821939994115	71.36821939994115	71.36821939994115	71.36821939994115	71.36821939994115	71.36821939994115	71.36821939994115	71.36821939994115	71.36821939994115	71.36821939994115	71.36821939994115	71.36821939994115	71.36821939994115	71.36821939994115	71.36821939994115	71.36821939994115	71.36821939994115	0.018595100031234324	0.680420899996534	72.08491049997974	73.6267812999431	73.59009650000371	"[0.05555555555555555, 0.05555555555555555, 0.05555555555555555]"	"[-0.3453703703703704, -0.3453703703703704, -0.3453703703703704]"	"[1, 0, 1]"	"[0, 0, 0]"	"[0, 1, 0]"	"[0.3197443000972271, 0.6616813000291586, 1.9285743000218645]"	4	-100										20	02	2024-02-14_11h46.04.274	GDT_exp	2023.2.3	119.98651346906641	2024-02-14 11h46.14.056542 +0100	
dice_6.png	6	2	4	16	5	73.6267812999431													73.59073429997079	73.6267812999431	73.6267812999431	73.6267812999431	73.6267812999431	73.6267812999431	73.6267812999431	73.6267812999431	73.6267812999431	73.6267812999431	73.6267812999431	73.6267812999431	73.6267812999431	73.6267812999431	73.6267812999431	73.6267812999431	73.6267812999431	73.6267812999431	73.6267812999431	73.6267812999431	73.6267812999431	73.6267812999431	73.6267812999431	73.6267812999431	73.6267812999431	73.6267812999431	0.0148385000647977		74.46846989996266	76.01023379992694	75.9708475000225	"[0.05555555555555555, 0.05555555555555555]"	"[-0.3453703703703704, -0.3453703703703704]"	"[1, 0]"	"[0, 0]"	"[0, 1]"	"[0.3627064999891445, 0.7960311999777332]"	4	100	0.8111919000511989	2.319807399995625								20	02	2024-02-14_11h46.04.274	GDT_exp	2023.2.3	119.98651346906641	2024-02-14 11h46.14.056542 +0100	
dice_2.png	2	2	5	17	1	76.01023379992694													75.97141879994888	76.01023379992694	76.01023379992694	76.01023379992694	76.01023379992694	76.01023379992694	76.01023379992694	76.01023379992694	76.01023379992694	76.01023379992694	76.01023379992694	76.01023379992694	76.01023379992694	76.01023379992694	76.01023379992694	76.01023379992694	76.01023379992694	76.01023379992694	76.01023379992694	76.01023379992694	76.01023379992694	76.01023379992694	76.01023379992694	76.01023379992694	76.01023379992694	76.01023379992694	0.014528000028803945		76.93527329992503	78.45202019996941	78.43781349994242	"[-0.3888888888888889, -0.3888888888888889]"	"[-0.22685185185185186, -0.22685185185185186]"	"[1, 0]"	"[0, 0]"	"[0, 1]"	"[0.3575531999813393, 0.8825194999808446]"	3	200	0.8973328999709338	2.405813799938187								20	02	2024-02-14_11h46.04.274	GDT_exp	2023.2.3	119.98651346906641	2024-02-14 11h46.14.056542 +0100	
																																																												78.43829820002429	78.45202019996941	78.45202019996941	86.85299049993046	space	8.397152599995025	None	20	02	2024-02-14_11h46.04.274	GDT_exp	2023.2.3	119.98651346906641	2024-02-14 11h46.14.056542 +0100	
