image	max_pumps	pump_loop.thisRepN	pump_loop.thisTrialN	pump_loop.thisN	pump_loop.thisIndex	thisRow.t	notes	Start.started	text_start.started	continue_start.started	mouse_start.started	Start.stopped	mouse_start.x	mouse_start.y	mouse_start.leftButton	mouse_start.midButton	mouse_start.rightButton	mouse_start.time	trials.started	stim_balloon.started	stim_balloon_burst.started	stim_balloon_burst.stopped	text_ballon_value.started	text_bank.started	mouse.started	sound_bang.started	sound_bang.stopped	button_balloon.started	trials.stopped	n_pumps	earnings	popped	mouse.x	mouse.y	mouse.leftButton	mouse.midButton	mouse.rightButton	mouse.time	button_balloon.numClicks	button_balloon.timesOn	button_balloon.timesOff	Feedback.started	text_feedback.started	Feedback.stopped	text_feedback.stopped	End.started	text_end.started	key_end.started	End.stopped	key_end.keys	key_end.rt	key_end.duration	participant	session	date	expName	psychopyVersion	frameRate	expStart	
								0.034910099930129945	0.0464778000023216	0.0464778000023216	0.0352638999465853	154.9330167999724	[0.7296296296296296]	[-0.4148148148148148]	[1]	[0]	[0]	[154.89714670006651]																																			23	01	2024-02-15_11h09.02.546	BART_exp	2023.2.3	119.95398569171819	2024-02-15 11h09.21.149993 +0100	
balloon.png	18	0	0	0	4	155.0240362000186													154.95700169994961	155.0240362000186	155.0240362000186	155.0240362000186	155.0240362000186	155.0240362000186	0.025926899979822338	0.025926899979822338	0.025926899979822338	155.0240362000186	174.26901289995294	19	0.90	True	"[-0.006481481481481481, -0.006481481481481481, -0.006481481481481481, -0.006481481481481481, -0.006481481481481481, -0.006481481481481481, -0.006481481481481481, -0.006481481481481481, -0.006481481481481481, -0.006481481481481481, -0.006481481481481481, -0.006481481481481481, -0.006481481481481481, -0.006481481481481481, -0.006481481481481481, -0.006481481481481481, -0.006481481481481481, -0.006481481481481481, -0.006481481481481481]"	"[-0.3851851851851852, -0.3851851851851852, -0.3851851851851852, -0.3851851851851852, -0.3851851851851852, -0.3851851851851852, -0.3851851851851852, -0.3851851851851852, -0.3851851851851852, -0.3851851851851852, -0.3851851851851852, -0.3851851851851852, -0.3851851851851852, -0.3851851851851852, -0.3851851851851852, -0.3851851851851852, -0.3851851851851852, -0.3851851851851852, -0.3851851851851852]"	"[1, 1, 1, 1, 1, 1, 1, 1, 1, 1, 1, 1, 1, 1, 1, 1, 1, 1, 1]"	"[0, 0, 0, 0, 0, 0, 0, 0, 0, 0, 0, 0, 0, 0, 0, 0, 0, 0, 0]"	"[0, 0, 0, 0, 0, 0, 0, 0, 0, 0, 0, 0, 0, 0, 0, 0, 0, 0, 0]"	"[2.3260195000329986, 3.3011397999944165, 4.2429824999999255, 4.976318500004709, 6.159759500063956, 7.494658200070262, 8.409960900084116, 9.30991090007592, 10.161434400011785, 11.09329460002482, 11.901712600025348, 13.35190730006434, 14.276879700017162, 15.077061500051059, 15.993788800085895, 17.310561200021766, 18.043765100068413, 18.493821099982597, 19.160660300054587]"	19	"[2.276210300042294, 3.251336900051683, 4.193176100030541, 4.926511500030756, 6.109963900060393, 7.445027200039476, 8.360158700030297, 9.260120099992491, 10.111800099955872, 11.04352970002219, 11.851909399963915, 13.302098899963312, 14.227072600042447, 15.027259800001048, 15.94398199999705, 17.260765100014396, 17.993962200009264, 18.44401310000103, 19.11085689999163]"	"[2.434442700003274, 3.4011612000176683, 4.359501400031149, 5.084550300030969, 6.267986900056712, 7.59309320000466, 8.484796500066295, 9.426657899981365, 10.276580500067212, 11.201676800032146, 11.976791699999012, 13.468484199955128, 14.34356549999211, 15.176923000020906, 16.11032860004343, 17.44377070001792, 18.09386170003563, 18.56883350003045, 19.252198999980465]"	174.2704175999388	174.28365619992837	175.77553509990685									23	01	2024-02-15_11h09.02.546	BART_exp	2023.2.3	119.95398569171819	2024-02-15 11h09.21.149993 +0100	
balloon.png	92	0	1	1	21	175.80049099994358													175.7757139999885	175.80049099994358	175.80049099994358	175.80049099994358	175.80049099994358	175.80049099994358	0.006706600077450275	0.006706600077450275	0.006706600077450275	175.80049099994358	187.71132359991316	13	0.65	False	"[-0.018518518518518517, -0.018518518518518517, -0.018518518518518517, -0.018518518518518517, -0.018518518518518517, -0.018518518518518517, -0.018518518518518517, -0.018518518518518517, -0.018518518518518517, -0.018518518518518517, -0.018518518518518517, -0.018518518518518517, -0.018518518518518517, -0.018518518518518517]"	"[-0.3861111111111111, -0.3861111111111111, -0.3861111111111111, -0.3861111111111111, -0.3861111111111111, -0.3861111111111111, -0.3861111111111111, -0.3861111111111111, -0.3861111111111111, -0.3861111111111111, -0.3861111111111111, -0.3861111111111111, -0.3861111111111111, -0.3861111111111111]"	"[1, 1, 1, 1, 1, 1, 1, 1, 1, 1, 1, 1, 1, 0]"	"[0, 0, 0, 0, 0, 0, 0, 0, 0, 0, 0, 0, 0, 0]"	"[0, 0, 0, 0, 0, 0, 0, 0, 0, 0, 0, 0, 0, 1]"	"[1.16738160001114, 1.7423903999151662, 2.4007377999369055, 3.2923058999003842, 4.700869099935517, 5.417508499929681, 6.109516299911775, 7.26760669995565, 8.067697299993597, 8.684490299900062, 9.4344226999674, 10.3097346998984, 11.017992499982938, 11.934714499977417]"	14	"[1.1558592999354005, 1.7308620000258088, 2.3892093000467867, 3.28077149996534, 4.689336100011133, 5.405982399941422, 6.097982399980538, 7.256072500022128, 8.056162999942899, 8.672955599962734, 9.422892799950205, 10.298198499949649, 11.00645640003495, 11.92312019993551]"	"[1.2805907999863848, 1.8722342000110075, 2.5222668999340385, 3.4139984999783337, 4.822408300009556, 5.522537300013937, 6.197523899958469, 7.380946799996309, 8.214294399949722, 8.814368000021204, 9.531067100004293, 10.447966799954884, 11.156209500040859, 11.92312429996673]"	187.71209229994565	187.72632459993474	189.21818620001432									23	01	2024-02-15_11h09.02.546	BART_exp	2023.2.3	119.95398569171819	2024-02-15 11h09.21.149993 +0100	
balloon.png	40	0	2	2	9	189.23477659991477													189.21836209995672	189.23477659991477	189.23477659991477	189.23477659991477	189.23477659991477	189.23477659991477	0.0075332000851631165	0.0075332000851631165	0.0075332000851631165	189.23477659991477	206.27933839999605	20	1.00	False	"[-0.03425925925925926, -0.03425925925925926, -0.03425925925925926, -0.03425925925925926, -0.03425925925925926, -0.03425925925925926, -0.03425925925925926, -0.03425925925925926, -0.03425925925925926, -0.03425925925925926, -0.03425925925925926, -0.03425925925925926, -0.03425925925925926, -0.03425925925925926, -0.03425925925925926, -0.03425925925925926, -0.03425925925925926, -0.03425925925925926, -0.03425925925925926, -0.03425925925925926, -0.03425925925925926]"	"[-0.387037037037037, -0.387037037037037, -0.387037037037037, -0.387037037037037, -0.387037037037037, -0.387037037037037, -0.387037037037037, -0.387037037037037, -0.387037037037037, -0.387037037037037, -0.387037037037037, -0.387037037037037, -0.387037037037037, -0.387037037037037, -0.387037037037037, -0.387037037037037, -0.387037037037037, -0.387037037037037, -0.387037037037037, -0.387037037037037, -0.387037037037037]"	"[1, 1, 1, 1, 1, 1, 1, 1, 1, 1, 1, 1, 1, 1, 1, 1, 1, 1, 1, 1, 0]"	"[0, 0, 0, 0, 0, 0, 0, 0, 0, 0, 0, 0, 0, 0, 0, 0, 0, 0, 0, 0, 0]"	"[0, 0, 0, 0, 0, 0, 0, 0, 0, 0, 0, 0, 0, 0, 0, 0, 0, 0, 0, 0, 1]"	"[1.4338923000032082, 2.4757223000051454, 3.0674511999823153, 3.8174300000537187, 4.534076599986292, 5.009064899990335, 5.9507923000492156, 6.4176292000338435, 6.809388300054707, 7.676084600039758, 8.3844505000161, 9.617913100053556, 10.534453900065273, 11.176251000026241, 12.493100599967875, 13.018079800065607, 14.293207400012761, 14.903049599961378, 15.876648999983445, 16.243375099962577, 17.060053399996832]"	20	"[2.466657300014049, 3.058384499978274, 3.8083571000024676, 4.52500909997616, 4.9999931999482214, 5.941718999994919, 6.408563599921763, 6.800319299916737, 7.667014800012112, 8.375385100021958, 9.608845299924724, 10.52538150001783, 11.167183300014585, 12.484035799978301, 13.009007000015117, 14.284141500014812, 14.89413099992089, 15.867582199978642, 16.234304899931885, 17.050921299960464]"	"[2.583035600022413, 3.174815799924545, 3.866478899959475, 4.6331732999533415, 5.158275699941441, 6.0832971999188885, 6.493060400011018, 6.9166474000085145, 7.791726999916136, 8.541783799999394, 9.725271599949338, 10.6585999999661, 11.291950699989684, 12.65043679997325, 13.125448799924925, 14.43384089996107, 15.017340300022624, 16.017287699971348, 16.36732979991939, 17.050925399991684]"	206.28024939994793	206.28595839999616	207.77794069994707	207.7944687999552								23	01	2024-02-15_11h09.02.546	BART_exp	2023.2.3	119.95398569171819	2024-02-15 11h09.21.149993 +0100	
balloon.png	1	0	3	3	0	207.7944687999552													207.7781163000036	207.7944687999552	207.7944687999552	207.7944687999552	207.7944687999552	207.7944687999552	-0.0008676999714225531	-0.0008676999714225531	-0.0008676999714225531	207.7944687999552	210.92982889991254	2	0.05	True	"[-0.03981481481481482, -0.03981481481481482]"	"[-0.38333333333333336, -0.38333333333333336]"	"[1, 1]"	"[0, 0]"	"[0, 0]"	"[2.3172882000217214, 3.00879679992795]"	2	"[2.308462699991651, 2.9999722000211477]"	"[2.441436200053431, 3.1331965000135824]"	210.93036799994297	210.93628439994063	212.42824009992182	212.44475899997633								23	01	2024-02-15_11h09.02.546	BART_exp	2023.2.3	119.95398569171819	2024-02-15 11h09.21.149993 +0100	
balloon.png	110	0	4	4	25	212.44475899997633													212.42841209995095	212.44475899997633	212.44475899997633	212.44475899997633	212.44475899997633	212.44475899997633	-0.0006339999381452799	-0.0006339999381452799	-0.0006339999381452799	212.44475899997633	225.85572919994593	16	0.80	False	"[-0.003703703703703704, -0.003703703703703704, -0.003703703703703704, -0.003703703703703704, -0.003703703703703704, -0.003703703703703704, -0.025, -0.025, -0.025, -0.025, -0.025, -0.025, -0.025, -0.025, -0.025, -0.025, -0.025]"	"[-0.38981481481481484, -0.38981481481481484, -0.38981481481481484, -0.38981481481481484, -0.38981481481481484, -0.38981481481481484, -0.38981481481481484, -0.38981481481481484, -0.38981481481481484, -0.38981481481481484, -0.38981481481481484, -0.38981481481481484, -0.38981481481481484, -0.38981481481481484, -0.38981481481481484, -0.38981481481481484, -0.38981481481481484]"	"[1, 1, 1, 1, 1, 1, 1, 1, 1, 1, 1, 1, 1, 1, 1, 1, 0]"	"[0, 0, 0, 0, 0, 0, 0, 0, 0, 0, 0, 0, 0, 0, 0, 0, 0]"	"[0, 0, 0, 0, 0, 0, 0, 0, 0, 0, 0, 0, 0, 0, 0, 0, 1]"	"[0.9337275999132544, 1.6255472999764606, 2.867318999953568, 3.6507807999150828, 4.3256098999409005, 4.900623900000937, 6.175737699959427, 6.700790499919094, 7.701014599995688, 8.576052599935792, 10.017903200001456, 10.534342699917033, 11.109479299979284, 11.559547299984843, 12.151200099964626, 12.609713800018653, 13.42638909991365]"	17	"[0.9252740999218076, 1.6171015999279916, 2.8588736999081448, 3.642327999928966, 4.317154799937271, 4.89216970000416, 6.167289400007576, 6.692339499946684, 7.6925679999403656, 8.567604299983941, 10.009454499930143, 10.525892599951476, 11.10102729999926, 11.551093999994919, 12.142750400002114, 12.601264899945818, 13.41787459992338]"	"[1.0336111999349669, 1.7335205000126734, 2.975273699965328, 3.783617499982938, 4.500319299986586, 5.017060099984519, 6.26025509997271, 6.850497299921699, 7.825681899907067, 8.73415179993026, 10.200786600005813, 10.692514499998651, 11.267459800001234, 11.692530800006352, 12.267691199900582, 12.750895399949513, 13.417878899956122]"	225.85684679995757	225.87068900000304	227.3624990999233									23	01	2024-02-15_11h09.02.546	BART_exp	2023.2.3	119.95398569171819	2024-02-15 11h09.21.149993 +0100	
balloon.png	57	0	5	5	13	227.3791116999928													227.3626787000103	227.3791116999928	227.3791116999928	227.3791116999928	227.3791116999928	227.3791116999928	0.007139599998481572	0.007139599998481572	0.007139599998481572	227.3791116999928	242.1150102999527	14	0.70	False	"[-0.08703703703703704, -0.08703703703703704, -0.08703703703703704, -0.08425925925925926, -0.08425925925925926, -0.08425925925925926, -0.08425925925925926, -0.08425925925925926, -0.08425925925925926, -0.08425925925925926, -0.08425925925925926, -0.08425925925925926, -0.08425925925925926, -0.08425925925925926, -0.08425925925925926]"	"[-0.3712962962962963, -0.3712962962962963, -0.3712962962962963, -0.37407407407407406, -0.37407407407407406, -0.37407407407407406, -0.37407407407407406, -0.37407407407407406, -0.37407407407407406, -0.37407407407407406, -0.37407407407407406, -0.37407407407407406, -0.37407407407407406, -0.37407407407407406, -0.37407407407407406]"	"[1, 1, 1, 1, 1, 1, 1, 1, 1, 1, 1, 1, 1, 1, 0]"	"[0, 0, 0, 0, 0, 0, 0, 0, 0, 0, 0, 0, 0, 0, 0]"	"[0, 0, 0, 0, 0, 0, 0, 0, 0, 0, 0, 0, 0, 0, 1]"	"[1.3838795999763533, 2.4757795999757946, 3.55069090006873, 4.775749900029041, 6.301001099986024, 7.451084800064564, 8.301257399958558, 9.201244199997745, 10.401460999972187, 10.826408599969, 11.959649299969897, 12.793120000045747, 13.318124999990687, 13.776421100017615, 14.75141959998291]"	15	"[1.3792572000529617, 2.4711544000310823, 3.546061799977906, 4.7711242999648675, 6.296375200035982, 7.4464540999615565, 8.296626499970444, 9.196624299976975, 10.396830199984834, 10.821777899982408, 11.95502240001224, 12.788488900056109, 13.313506199978292, 13.77179440006148, 14.746729900012724]"	"[1.5291213999735191, 2.6876128000440076, 3.762559900060296, 4.9961209000321105, 6.471109100035392, 7.704525399953127, 8.504556800005957, 9.379659299971536, 10.571383300004527, 10.98807379999198, 12.146514900028706, 12.988341300049797, 13.438289499958046, 13.938280000002123, 14.746734200045466]"	242.1158503999468	242.1218200000003	243.6138074999908	243.6302722999826								23	01	2024-02-15_11h09.02.546	BART_exp	2023.2.3	119.95398569171819	2024-02-15 11h09.21.149993 +0100	
balloon.png	71	0	6	6	16	243.6302722999826													243.61398179992102	243.6302722999826	243.6302722999826	243.6302722999826	243.6302722999826	243.6302722999826	-0.0005910999607294798	-0.0005910999607294798	-0.0005910999607294798	243.6302722999826	270.57550859998446	26	1.30	False	"[0.000925925925925926, 0.000925925925925926, 0.000925925925925926, 0.000925925925925926, 0.000925925925925926, 0.000925925925925926, 0.000925925925925926, 0.000925925925925926, -0.001851851851851852, -0.001851851851851852, -0.001851851851851852, -0.001851851851851852, -0.001851851851851852, -0.001851851851851852, -0.001851851851851852, -0.001851851851851852, -0.001851851851851852, -0.001851851851851852, -0.001851851851851852, -0.001851851851851852, -0.001851851851851852, -0.001851851851851852, -0.001851851851851852, -0.001851851851851852, -0.001851851851851852, -0.001851851851851852, -0.002777777777777778]"	"[-0.4064814814814815, -0.4064814814814815, -0.4064814814814815, -0.4064814814814815, -0.4064814814814815, -0.4064814814814815, -0.4064814814814815, -0.4064814814814815, -0.4, -0.4, -0.4, -0.4, -0.4, -0.4, -0.4, -0.4, -0.4, -0.4, -0.4, -0.4, -0.4, -0.4, -0.4, -0.4, -0.4, -0.4, -0.4]"	"[1, 1, 1, 1, 1, 1, 1, 1, 1, 1, 1, 1, 1, 1, 1, 1, 1, 1, 1, 1, 1, 1, 1, 1, 1, 1, 0]"	"[0, 0, 0, 0, 0, 0, 0, 0, 0, 0, 0, 0, 0, 0, 0, 0, 0, 0, 0, 0, 0, 0, 0, 0, 0, 0, 0]"	"[0, 0, 0, 0, 0, 0, 0, 0, 0, 0, 0, 0, 0, 0, 0, 0, 0, 0, 0, 0, 0, 0, 0, 0, 0, 0, 1]"	"[1.5755050000734627, 2.1505163999972865, 2.933889099978842, 3.7840493000112474, 4.567391599994153, 5.467294699978083, 6.042488700011745, 7.067460300051607, 9.234356399974786, 10.517674100003205, 12.676164200063795, 13.809784400044009, 14.801445099990815, 16.20156489999499, 16.668084500008263, 18.885028399992734, 19.343516499968246, 19.843301400076598, 20.476764800027013, 20.768512399983592, 21.618441200000234, 22.402171800029464, 23.010353000019677, 23.426900299964473, 24.035330899991095, 26.302283399971202, 26.96059749997221]"	27	"[1.5725878999801353, 2.1475978000089526, 2.9309733000118285, 3.7811343000503257, 4.56447860004846, 5.464377600001171, 6.039577499963343, 7.064539800048806, 9.231459200032987, 10.51476090005599, 12.67325550003443, 13.806868999963626, 14.798534600064158, 16.198646200005896, 16.665171700064093, 18.882116200053133, 19.34060060000047, 19.840386900003068, 20.47384980006609, 20.765603400068358, 21.6155239000218, 22.399261499987915, 23.00744620000478, 23.42398039996624, 24.03241280000657, 26.299366499995813, 26.95761849998962]"	"[1.772341400035657, 2.3140796000370756, 3.0973833000753075, 3.939114800072275, 4.722533900057897, 5.605939000030048, 6.189448600052856, 7.197703500045463, 9.381201500073075, 10.689592299982905, 12.83976750005968, 13.964826400042512, 14.964907599962316, 16.323566499981098, 16.773366100038402, 19.04017519997433, 19.506915600039065, 19.94024270004593, 20.598618800053373, 20.890324100037105, 21.77371119998861, 22.540652800002135, 23.173810000065714, 23.5571744000772, 24.165572499972768, 26.465738700004295, 26.95762250002008]"	270.57651089993306	270.58214549999684	272.07412909995764	272.0905882999068								23	01	2024-02-15_11h09.02.546	BART_exp	2023.2.3	119.95398569171819	2024-02-15 11h09.21.149993 +0100	
balloon.png	23	0	7	7	5	272.0905882999068													272.07430919993203	272.0905882999068	272.0905882999068	272.0905882999068	272.0905882999068	272.0905882999068	-0.0009011999936774373	-0.0009011999936774373	-0.0009011999936774373	272.0905882999068	294.34420629998203	24	1.15	True	"[-0.06018518518518518, -0.06018518518518518, -0.06018518518518518, -0.06018518518518518, -0.06018518518518518, -0.06018518518518518, -0.06018518518518518, -0.06018518518518518, -0.06018518518518518, -0.06018518518518518, -0.06018518518518518, -0.06018518518518518, -0.06018518518518518, -0.06018518518518518, -0.06018518518518518, -0.06018518518518518, -0.05925925925925926, -0.05925925925925926, -0.05925925925925926, -0.05925925925925926, -0.05925925925925926, -0.05925925925925926, -0.05925925925925926, -0.05925925925925926]"	"[-0.3972222222222222, -0.3972222222222222, -0.3972222222222222, -0.3972222222222222, -0.3972222222222222, -0.3972222222222222, -0.3972222222222222, -0.3972222222222222, -0.3972222222222222, -0.3972222222222222, -0.3972222222222222, -0.3972222222222222, -0.3972222222222222, -0.3972222222222222, -0.3972222222222222, -0.3972222222222222, -0.3972222222222222, -0.3972222222222222, -0.3972222222222222, -0.3972222222222222, -0.3972222222222222, -0.3972222222222222, -0.3972222222222222, -0.3972222222222222]"	"[1, 1, 1, 1, 1, 1, 1, 1, 1, 1, 1, 1, 1, 1, 1, 1, 1, 1, 1, 1, 1, 1, 1, 1]"	"[0, 0, 0, 0, 0, 0, 0, 0, 0, 0, 0, 0, 0, 0, 0, 0, 0, 0, 0, 0, 0, 0, 0, 0]"	"[0, 0, 0, 0, 0, 0, 0, 0, 0, 0, 0, 0, 0, 0, 0, 0, 0, 0, 0, 0, 0, 0, 0, 0]"	"[1.4672493999823928, 2.2672271999763325, 3.142294800025411, 3.950510299997404, 4.900768900057301, 6.1507426999742165, 6.917527699959464, 7.684381400002167, 8.909371600020677, 9.842721299966797, 10.784313300042413, 11.426170899998397, 12.059572999947704, 13.217846099985763, 13.884737799991854, 14.426516399951652, 16.209699200000614, 16.75151490001008, 17.826743299956433, 18.610086799948476, 19.31007370003499, 20.810183700057678, 21.62694750004448, 22.126784999971278]"	24	"[1.464222399983555, 2.2641943000489846, 3.1392676000250503, 3.9474736000411212, 4.897735100006685, 6.147710800054483, 6.914494600030594, 7.681351100094616, 8.906341099995188, 9.839696599985473, 10.781277400092222, 11.42313670006115, 12.056536499992944, 13.21481280005537, 13.88171870005317, 14.423485200037248, 16.20666250004433, 16.748478600056842, 17.8237114000367, 18.607054400024936, 19.307037600083277, 20.807150700013153, 21.62391040008515, 22.12374730000738]"	"[1.6305512000108138, 2.413899700040929, 3.3057580000022426, 4.130671799997799, 5.064315400086343, 6.405831900076009, 7.122592800064012, 7.847590500023216, 9.106013700016774, 10.022924000048079, 10.964506400050595, 11.606198000023142, 12.247903399984352, 13.439703300013207, 14.089687500032596, 14.606418700073846, 16.414881800068542, 16.93157080002129, 17.998336900025606, 18.773344699991867, 19.46514650003519, 20.97351670009084, 21.82357560005039, 22.257155600003898]"	294.3455259000184	294.3505034999689	295.84256099991035	295.8506509999279								23	01	2024-02-15_11h09.02.546	BART_exp	2023.2.3	119.95398569171819	2024-02-15 11h09.21.149993 +0100	
balloon.png	127	0	8	8	29	295.8506509999279													295.8427535999799	295.8506509999279	295.8506509999279	295.8506509999279	295.8506509999279	295.8506509999279	0.005203099921345711			295.8506509999279	306.1364744999446	15	0.75	False	"[-0.041666666666666664, -0.041666666666666664, -0.041666666666666664, -0.041666666666666664, -0.041666666666666664, -0.044444444444444446, -0.044444444444444446, -0.044444444444444446, -0.044444444444444446, -0.044444444444444446, -0.044444444444444446, -0.044444444444444446, -0.044444444444444446, -0.044444444444444446, -0.044444444444444446, -0.044444444444444446]"	"[-0.3972222222222222, -0.3972222222222222, -0.3972222222222222, -0.3972222222222222, -0.3972222222222222, -0.39814814814814814, -0.39814814814814814, -0.39814814814814814, -0.39814814814814814, -0.39814814814814814, -0.39814814814814814, -0.39814814814814814, -0.39814814814814814, -0.39814814814814814, -0.39814814814814814, -0.3990740740740741]"	"[1, 1, 1, 1, 1, 1, 1, 1, 1, 1, 1, 1, 1, 1, 1, 0]"	"[0, 0, 0, 0, 0, 0, 0, 0, 0, 0, 0, 0, 0, 0, 0, 0]"	"[0, 0, 0, 0, 0, 0, 0, 0, 0, 0, 0, 0, 0, 0, 0, 1]"	"[1.0085698999464512, 1.8587482000002638, 3.0422442000126466, 3.5920465999515727, 4.233885299996473, 4.959087900002487, 5.575550399953499, 5.9422164999414235, 6.617410299950279, 6.958962099975906, 7.342341699986719, 7.934078900027089, 8.517660400015302, 8.950996999978088, 9.459412100026384, 10.292793300002813]"	16	"[1.0066508000018075, 1.856832699966617, 3.040320700034499, 3.590148500050418, 4.23196799994912, 4.957185299950652, 5.573638299945742, 5.94029950001277, 6.615496000042185, 6.957044100039639, 7.340424999943934, 7.932159299962223, 8.515742099960335, 8.949076000018977, 9.45750959997531, 10.290813899948262]"	"[1.131504200049676, 1.9982096999883652, 3.2149653000524268, 3.7567762000253424, 4.423385599977337, 5.11552810005378, 5.690235699992627, 6.056931999977678, 6.78207710001152, 7.098593899980187, 7.490388000034727, 8.123688100022264, 8.673709199996665, 9.098763599991798, 9.657102899975143, 10.290818099980243]"	306.13727820001077	306.1429990999168	307.63501600001473	307.6597789999796								23	01	2024-02-15_11h09.02.546	BART_exp	2023.2.3	119.95398569171819	2024-02-15 11h09.21.149993 +0100	
balloon.png	88	0	9	9	20	307.6597789999796													307.63520349992905	307.6597789999796	307.6597789999796	307.6597789999796	307.6597789999796	307.6597789999796	-0.0006832999642938375	-0.0006832999642938375	-0.0006832999642938375	307.6597789999796	326.0209676999366	20	1.00	False	"[-0.1, -0.07407407407407407, -0.07407407407407407, -0.07407407407407407, -0.07407407407407407, -0.07407407407407407, -0.07407407407407407, -0.07407407407407407, -0.07407407407407407, -0.07407407407407407, -0.07407407407407407, -0.07407407407407407, -0.07407407407407407, -0.07407407407407407, -0.07407407407407407, -0.07407407407407407, -0.07407407407407407, -0.07407407407407407, -0.07407407407407407, -0.07407407407407407, -0.07407407407407407]"	"[-0.3888888888888889, -0.3972222222222222, -0.3972222222222222, -0.3972222222222222, -0.3972222222222222, -0.3972222222222222, -0.3972222222222222, -0.3972222222222222, -0.3972222222222222, -0.3972222222222222, -0.3972222222222222, -0.3972222222222222, -0.3972222222222222, -0.3972222222222222, -0.3972222222222222, -0.3972222222222222, -0.3972222222222222, -0.3972222222222222, -0.3972222222222222, -0.3972222222222222, -0.3972222222222222]"	"[1, 1, 1, 1, 1, 1, 1, 1, 1, 1, 1, 1, 1, 1, 1, 1, 1, 1, 1, 1, 0]"	"[0, 0, 0, 0, 0, 0, 0, 0, 0, 0, 0, 0, 0, 0, 0, 0, 0, 0, 0, 0, 0]"	"[0, 0, 0, 0, 0, 0, 0, 0, 0, 0, 0, 0, 0, 0, 0, 0, 0, 0, 0, 0, 1]"	"[1.0504141000565141, 1.9336835000431165, 2.5420408999780193, 3.1420781000051647, 4.6088163000531495, 5.450702500063926, 6.133927899994887, 7.025830200058408, 8.042598800035194, 8.842652300023474, 9.851021000067703, 12.192874500062317, 12.77616610005498, 14.251319400034845, 14.668019099975936, 15.051383499987423, 15.58472350006923, 16.268137900042348, 16.75985390006099, 17.218259799992666, 18.384823900065385]"	21	"[1.0380675999913365, 1.921333400066942, 2.5297021000878885, 3.129736899980344, 4.596469899988733, 5.438348700059578, 6.12157620000653, 7.0134829999879, 8.030251600081101, 8.830302100046538, 9.838668800075538, 12.180524400086142, 12.763819999992847, 14.238969400059432, 14.655673200031742, 15.039042100077495, 15.572374399984255, 16.255797100020573, 16.747506399988197, 17.205914200050756, 18.37241890002042]"	"[1.2044170000590384, 2.071161500061862, 2.6378476000390947, 3.2462311000563204, 4.754652200033888, 5.604748000041582, 6.30482189997565, 7.17993209999986, 8.188256600056775, 8.988318199990317, 9.996725299977697, 12.36360170005355, 12.931662800023332, 14.388800200074911, 14.830366000067443, 15.155413100030273, 15.738762799999677, 16.397144800052047, 16.86402189999353, 17.33906550006941, 18.372423300053924]"	326.0219129999168	326.0277437999612	327.51968379993923	327.53615970001556								23	01	2024-02-15_11h09.02.546	BART_exp	2023.2.3	119.95398569171819	2024-02-15 11h09.21.149993 +0100	
balloon.png	79	0	10	10	18	327.53615970001556													327.5198564999737	327.53615970001556	327.53615970001556	327.53615970001556	327.53615970001556	327.53615970001556	-0.0007723000599071383	-0.0007723000599071383	-0.0007723000599071383	327.53615970001556	346.9322535999818	23	1.15	False	"[-0.0787037037037037, -0.0787037037037037, -0.0787037037037037, -0.0787037037037037, -0.0787037037037037, -0.0787037037037037, -0.0787037037037037, -0.0787037037037037, -0.0787037037037037, -0.0787037037037037, -0.0787037037037037, -0.0787037037037037, -0.0787037037037037, -0.0787037037037037, -0.0787037037037037, -0.0787037037037037, -0.0787037037037037, -0.0787037037037037, -0.0787037037037037, -0.0787037037037037, -0.0787037037037037, -0.0787037037037037, -0.0787037037037037, -0.0787037037037037]"	"[-0.3851851851851852, -0.3851851851851852, -0.3851851851851852, -0.3851851851851852, -0.3851851851851852, -0.3851851851851852, -0.3851851851851852, -0.3851851851851852, -0.3851851851851852, -0.3851851851851852, -0.3851851851851852, -0.3851851851851852, -0.3851851851851852, -0.3851851851851852, -0.3851851851851852, -0.3851851851851852, -0.3851851851851852, -0.3851851851851852, -0.3851851851851852, -0.3851851851851852, -0.3851851851851852, -0.3851851851851852, -0.3851851851851852, -0.3851851851851852]"	"[1, 1, 1, 1, 1, 1, 1, 1, 1, 1, 1, 1, 1, 1, 1, 1, 1, 1, 1, 1, 1, 1, 1, 0]"	"[0, 0, 0, 0, 0, 0, 0, 0, 0, 0, 0, 0, 0, 0, 0, 0, 0, 0, 0, 0, 0, 0, 0, 0]"	"[0, 0, 0, 0, 0, 0, 0, 0, 0, 0, 0, 0, 0, 0, 0, 0, 0, 0, 0, 0, 0, 0, 0, 1]"	"[1.4920548999216408, 2.5006903000175953, 3.285725499968976, 4.534087399952114, 5.192524799960665, 6.3842277999501675, 7.042418699944392, 7.767671899986453, 8.467529400018975, 9.142738299909979, 9.751095599960536, 10.992708700010553, 11.609408599906601, 12.059583899914287, 13.176443599979393, 13.668030999950133, 14.476340599940158, 14.951469499967061, 15.42635219998192, 16.07653229997959, 17.54338699998334, 17.968411199981347, 18.368436999968253, 19.411290399963036]"	24	"[1.4843315000180155, 2.4929657999891788, 3.278156999964267, 4.526366000063717, 5.184797800029628, 6.376498500001617, 7.034691800014116, 7.759947300073691, 8.459807200008072, 9.135016300017014, 9.743371200049296, 10.984988200012594, 11.601685700006783, 12.051861000014469, 13.168725299998187, 13.660303100012243, 14.468617200036533, 14.943742600036785, 15.418624200043269, 16.068805400049314, 17.53566509997472, 17.960685300058685, 18.360716499970295, 19.403613300062716]"	"[1.7008784000063315, 2.742591300047934, 3.4677989999763668, 4.709480299963616, 5.351089300005697, 6.542896099970676, 7.192968599963933, 7.876514800009318, 8.6513416999951, 9.334759999997914, 9.93482900003437, 11.209840600029565, 11.727916500065476, 12.203020400018431, 13.368314199964516, 13.818363700062037, 14.62681489996612, 15.110211299965158, 15.560158899985254, 16.260367900016718, 17.710298900026828, 18.110377000062726, 18.527033500024118, 19.40361939999275]"	346.93323450000025	346.9458534999285	348.43768769991584									23	01	2024-02-15_11h09.02.546	BART_exp	2023.2.3	119.95398569171819	2024-02-15 11h09.21.149993 +0100	
balloon.png	31	0	11	11	7	348.4542890000157													348.4378672000021	348.4542890000157	348.4542890000157	348.4542890000157	348.4542890000157	348.4542890000157	0.005957299959845841	0.005957299959845841	0.005957299959845841	348.4542890000157	372.2327599999262	20	1.00	False	"[-0.09814814814814815, -0.09814814814814815, -0.09814814814814815, -0.09814814814814815, -0.09814814814814815, -0.09814814814814815, -0.09814814814814815, -0.09814814814814815, -0.09814814814814815, -0.09814814814814815, -0.09814814814814815, -0.09814814814814815, -0.09814814814814815, -0.09814814814814815, -0.09814814814814815, -0.09814814814814815, -0.09814814814814815, -0.09814814814814815, -0.09814814814814815, -0.09814814814814815, -0.09814814814814815]"	"[-0.38796296296296295, -0.38796296296296295, -0.38796296296296295, -0.38796296296296295, -0.38796296296296295, -0.38796296296296295, -0.38796296296296295, -0.38796296296296295, -0.38796296296296295, -0.38796296296296295, -0.38796296296296295, -0.38796296296296295, -0.38796296296296295, -0.38796296296296295, -0.38796296296296295, -0.38796296296296295, -0.38796296296296295, -0.38796296296296295, -0.38796296296296295, -0.38796296296296295, -0.38796296296296295]"	"[1, 1, 1, 1, 1, 1, 1, 1, 1, 1, 1, 1, 1, 1, 1, 1, 1, 1, 1, 1, 0]"	"[0, 0, 0, 0, 0, 0, 0, 0, 0, 0, 0, 0, 0, 0, 0, 0, 0, 0, 0, 0, 0]"	"[0, 0, 0, 0, 0, 0, 0, 0, 0, 0, 0, 0, 0, 0, 0, 0, 0, 0, 0, 0, 1]"	"[3.4008067999966443, 4.184234400046989, 5.500735400011763, 6.550973600009456, 7.259195000049658, 8.042591999983415, 8.925991800031625, 9.551164700067602, 10.801323399995454, 11.342945900047198, 12.20146980008576, 14.434719400014728, 15.468150400090963, 16.318362100049853, 17.410118700005114, 18.076651700073853, 18.618511000066064, 19.376881400006823, 19.92689900007099, 20.460121600073762, 23.793925800011493]"	21	"[3.3917772999266163, 4.175190599984489, 5.4916867999127135, 6.541927099926397, 7.250148399965838, 8.033549399930052, 8.916948499972932, 9.542117499979213, 10.792284799972549, 11.333902399986982, 12.192427999922074, 14.425674599944614, 15.45910679991357, 16.309322799905203, 17.40107459994033, 18.067612999933772, 18.609465899993666, 19.36783949995879, 19.91785249998793, 20.451075399992988, 23.78482369997073]"	"[3.608181399991736, 4.358181299990974, 5.674882999970578, 6.791694999905303, 7.358450899948366, 8.16675249999389, 9.116893599973992, 9.691844099899754, 10.967041199910454, 11.516992699936964, 12.350456699961796, 14.608892799937166, 15.625595899997279, 16.51731609995477, 17.609106999938376, 18.225959399947897, 18.767561699962243, 19.51761939993594, 20.10092070000246, 20.609278799965978, 23.78482780000195]"	372.233775199973	372.23935769998934	373.73134699999355	373.7477395000169								23	01	2024-02-15_11h09.02.546	BART_exp	2023.2.3	119.95398569171819	2024-02-15 11h09.21.149993 +0100	
balloon.png	49	0	12	12	11	373.7477395000169													373.73153150000144	373.7477395000169	373.7477395000169	373.7477395000169	373.7477395000169	373.7477395000169	-0.0009745999705046415	-0.0009745999705046415	-0.0009745999705046415	373.7477395000169	400.0763345999876	34	1.70	False	"[-0.09814814814814815, -0.09814814814814815, -0.09814814814814815, -0.09814814814814815, -0.09814814814814815, -0.09814814814814815, -0.09814814814814815, -0.09814814814814815, -0.09814814814814815, -0.09814814814814815, -0.09814814814814815, -0.09814814814814815, -0.09814814814814815, -0.09814814814814815, -0.09814814814814815, -0.09814814814814815, -0.09814814814814815, -0.09814814814814815, -0.09814814814814815, -0.09814814814814815, -0.09814814814814815, -0.09814814814814815, -0.09814814814814815, -0.09814814814814815, -0.09814814814814815, -0.09814814814814815, -0.09814814814814815, -0.09814814814814815, -0.09814814814814815, -0.09814814814814815, -0.09814814814814815, -0.09814814814814815, -0.09814814814814815, -0.09814814814814815, -0.09814814814814815]"	"[-0.38796296296296295, -0.38796296296296295, -0.38796296296296295, -0.38796296296296295, -0.38796296296296295, -0.38796296296296295, -0.38796296296296295, -0.38796296296296295, -0.38796296296296295, -0.38796296296296295, -0.38796296296296295, -0.38796296296296295, -0.38796296296296295, -0.38796296296296295, -0.38796296296296295, -0.38796296296296295, -0.38796296296296295, -0.38796296296296295, -0.38796296296296295, -0.38796296296296295, -0.38796296296296295, -0.38796296296296295, -0.38796296296296295, -0.38796296296296295, -0.38796296296296295, -0.38796296296296295, -0.38796296296296295, -0.38796296296296295, -0.38796296296296295, -0.38796296296296295, -0.387037037037037, -0.387037037037037, -0.387037037037037, -0.387037037037037, -0.387037037037037]"	"[1, 1, 1, 1, 1, 1, 1, 1, 1, 1, 1, 1, 1, 1, 1, 1, 1, 1, 1, 1, 1, 1, 1, 1, 1, 1, 1, 1, 1, 1, 1, 1, 1, 1, 0]"	"[0, 0, 0, 0, 0, 0, 0, 0, 0, 0, 0, 0, 0, 0, 0, 0, 0, 0, 0, 0, 0, 0, 0, 0, 0, 0, 0, 0, 0, 0, 0, 0, 0, 0, 0]"	"[0, 0, 0, 0, 0, 0, 0, 0, 0, 0, 0, 0, 0, 0, 0, 0, 0, 0, 0, 0, 0, 0, 0, 0, 0, 0, 0, 0, 0, 0, 0, 0, 0, 0, 1]"	"[0.6503781999927014, 1.4755416000261903, 2.6256463000318035, 3.5837531000142917, 4.517225100076757, 5.117201799992472, 5.809029900003225, 6.8758889000164345, 7.525703500024974, 8.234328699996695, 9.050979300052859, 10.059378699981607, 10.684415000025183, 11.392649400047958, 11.95934830000624, 12.667919100029394, 13.309452400077134, 14.009728700038977, 14.742879100027494, 15.351245200028643, 16.592997100087814, 17.426542000030167, 18.1016056999797, 18.859978000051342, 20.21842120005749, 20.726660800050013, 21.19350910000503, 21.643502400023863, 22.335062500089407, 22.710109499981627, 23.452056600013748, 23.82727850007359, 24.63550800003577, 24.919910600059666, 26.34385750000365]"	35	"[0.6445295000448823, 1.4696881000418216, 2.619798899977468, 3.577900700038299, 4.511370999971405, 5.111351300030947, 5.803178900037892, 6.870037200045772, 7.519853000063449, 8.228479200042784, 9.045130099984817, 10.053525600000285, 10.678566500078887, 11.386799899977632, 11.953493700013496, 12.662066700053401, 13.303601199993864, 14.003875700058416, 14.737028900068253, 15.345391300041229, 16.57884460000787, 17.420683300006203, 18.095756400027312, 18.85412280005403, 20.212564300047234, 20.720808800077066, 21.187659400049597, 21.637646800023504, 22.329212500015274, 22.70425539999269, 23.446211999980733, 23.82142360007856, 24.62965170003008, 24.914223000057973, 26.33794650004711]"	"[0.8192351000616327, 1.6359479000093415, 2.786074300063774, 3.7278034000191838, 4.636161600006744, 5.286543400026858, 5.986241500009783, 7.086358900065534, 7.703044799971394, 8.4197413000511, 9.236495300079696, 10.261588599998504, 10.844938699970953, 11.553348100045696, 12.170203200075775, 12.870247000013478, 13.461782600032166, 14.203673399984837, 14.928655700059608, 15.536971400026232, 16.770326900063083, 17.603806099970825, 18.295452899998054, 19.02885050000623, 20.387298300047405, 20.89563150005415, 21.34566430002451, 21.78735790005885, 22.479238100000657, 22.845767399994656, 23.62082620000001, 23.987531800055876, 24.77094020007644, 25.070935200084932, 26.33795060007833]"	400.0776123999385	400.0829928999301	401.5749355999287	401.5913862999296								23	01	2024-02-15_11h09.02.546	BART_exp	2023.2.3	119.95398569171819	2024-02-15 11h09.21.149993 +0100	
balloon.png	10	0	13	13	2	401.5913862999296													401.57511430000886	401.5913862999296	401.5913862999296	401.5913862999296	401.5913862999296	401.5913862999296	0.0138382000150159	0.0138382000150159	0.0138382000150159	401.5913862999296	411.6942317999201	11	0.50	True	"[-0.09722222222222222, -0.09722222222222222, -0.09722222222222222, -0.09722222222222222, -0.09722222222222222, -0.09722222222222222, -0.09722222222222222, -0.09722222222222222, -0.09722222222222222, -0.09722222222222222, -0.09722222222222222]"	"[-0.3972222222222222, -0.3972222222222222, -0.3972222222222222, -0.3972222222222222, -0.3972222222222222, -0.3972222222222222, -0.3972222222222222, -0.3972222222222222, -0.3972222222222222, -0.3972222222222222, -0.3972222222222222]"	"[1, 1, 1, 1, 1, 1, 1, 1, 1, 1, 1]"	"[0, 0, 0, 0, 0, 0, 0, 0, 0, 0, 0]"	"[0, 0, 0, 0, 0, 0, 0, 0, 0, 0, 0]"	"[1.200478299986571, 2.0503728999756277, 3.642166699981317, 4.417364799999632, 5.200758200022392, 6.159164400072768, 6.984236899996176, 7.64243050001096, 8.32608310005162, 9.134365700068884, 9.917858200031333]"	11	"[1.1984383000526577, 2.048328800010495, 3.640127000049688, 4.415325200068764, 5.1987195000983775, 6.157130100065842, 6.9821950000477955, 7.640392400091514, 8.324039000086486, 9.132335400092416, 9.91581820009742]"	"[1.339803200098686, 2.181553000002168, 3.78998840006534, 4.581830900046043, 5.365101900068112, 6.32359600008931, 7.156875600107014, 7.815280500100926, 8.506981500075199, 9.298813300090842, 10.098757000057958]"	411.6949680999387	411.7004303999711	413.19238689995836	413.20055179996416								23	01	2024-02-15_11h09.02.546	BART_exp	2023.2.3	119.95398569171819	2024-02-15 11h09.21.149993 +0100	
balloon.png	105	0	14	14	24	413.20055179996416													413.1925552999601	413.20055179996416	413.20055179996416	413.20055179996416	413.20055179996416	413.20055179996416	0.005648900056257844			413.20055179996416	424.46131769998465	16	0.80	False	"[-0.09259259259259259, -0.09259259259259259, -0.09259259259259259, -0.09259259259259259, -0.09259259259259259, -0.09259259259259259, -0.09259259259259259, -0.09259259259259259, -0.09259259259259259, -0.09259259259259259, -0.09259259259259259, -0.09259259259259259, -0.09259259259259259, -0.09259259259259259, -0.09259259259259259, -0.09259259259259259, -0.09259259259259259]"	"[-0.387037037037037, -0.387037037037037, -0.387037037037037, -0.387037037037037, -0.387037037037037, -0.387037037037037, -0.387037037037037, -0.387037037037037, -0.387037037037037, -0.387037037037037, -0.387037037037037, -0.387037037037037, -0.387037037037037, -0.387037037037037, -0.387037037037037, -0.387037037037037, -0.387037037037037]"	"[1, 1, 1, 1, 1, 1, 1, 1, 1, 1, 1, 1, 1, 1, 1, 1, 0]"	"[0, 0, 0, 0, 0, 0, 0, 0, 0, 0, 0, 0, 0, 0, 0, 0, 0]"	"[0, 0, 0, 0, 0, 0, 0, 0, 0, 0, 0, 0, 0, 0, 0, 0, 1]"	"[0.5506205999990925, 1.275373899959959, 2.058925799909048, 2.858882199972868, 3.409072899958119, 4.275794599903747, 5.092438399908133, 5.784042299957946, 6.400765199912712, 7.192483799997717, 7.742865999927744, 8.1426978999516, 9.117782499990426, 9.767804499948397, 10.326228799996898, 10.79273879993707, 11.267866399954073]"	17	"[0.5487082999898121, 1.273460700060241, 2.057009999989532, 2.856967599946074, 3.4071675000013784, 4.273892299970612, 5.090526800020598, 5.782131799962372, 6.398849399993196, 7.190573400002904, 7.740952500025742, 8.140794700011611, 9.115878200042062, 9.765886700013652, 10.324314399971627, 10.79082690004725, 11.265887600020505]"	"[0.6983342999592423, 1.3983563999645412, 2.223596299998462, 2.990208000061102, 3.5901902000186965, 4.465209300047718, 5.248595600016415, 5.932000000029802, 6.557058100006543, 7.37375729996711, 7.882090599974617, 8.307416400057264, 9.248957099975087, 9.923925700015388, 10.49910140002612, 10.9073161999695, 11.265891900053248]"	424.46233389992267	424.4679725000169	425.9599975999445	425.97641539992765								23	01	2024-02-15_11h09.02.546	BART_exp	2023.2.3	119.95398569171819	2024-02-15 11h09.21.149993 +0100	
balloon.png	123	0	15	15	28	425.97641539992765													425.9601777999196	425.97641539992765	425.97641539992765	425.97641539992765	425.97641539992765	425.97641539992765	-0.0007283000741153955	-0.0007283000741153955	-0.0007283000741153955	425.97641539992765	444.0210228000069	26	1.30	False	"[-0.09444444444444444, -0.09722222222222222, -0.09722222222222222, -0.09722222222222222, -0.09722222222222222, -0.09722222222222222, -0.09722222222222222, -0.09722222222222222, -0.09722222222222222, -0.09722222222222222, -0.09722222222222222, -0.09722222222222222, -0.09722222222222222, -0.09722222222222222, -0.09722222222222222, -0.09722222222222222, -0.09722222222222222, -0.09722222222222222, -0.09722222222222222, -0.09722222222222222, -0.09722222222222222, -0.09722222222222222, -0.09722222222222222, -0.09722222222222222, -0.09722222222222222, -0.09722222222222222, -0.09722222222222222]"	"[-0.38425925925925924, -0.38425925925925924, -0.38425925925925924, -0.38425925925925924, -0.38425925925925924, -0.38425925925925924, -0.38425925925925924, -0.38425925925925924, -0.38425925925925924, -0.38425925925925924, -0.38425925925925924, -0.38425925925925924, -0.38425925925925924, -0.38425925925925924, -0.38425925925925924, -0.38425925925925924, -0.38425925925925924, -0.38425925925925924, -0.38425925925925924, -0.38425925925925924, -0.38425925925925924, -0.38425925925925924, -0.38425925925925924, -0.38425925925925924, -0.38425925925925924, -0.38425925925925924, -0.38425925925925924]"	"[1, 1, 1, 1, 1, 1, 1, 1, 1, 1, 1, 1, 1, 1, 1, 1, 1, 1, 1, 1, 1, 1, 1, 1, 1, 1, 0]"	"[0, 0, 0, 0, 0, 0, 0, 0, 0, 0, 0, 0, 0, 0, 0, 0, 0, 0, 0, 0, 0, 0, 0, 0, 0, 0, 0]"	"[0, 0, 0, 0, 0, 0, 0, 0, 0, 0, 0, 0, 0, 0, 0, 0, 0, 0, 0, 0, 0, 0, 0, 0, 0, 0, 1]"	"[1.4086778999771923, 2.1670510000549257, 2.8002505999756977, 3.4921024000504985, 4.033665499999188, 4.708845800021663, 5.34240399999544, 6.617180300061591, 7.52576400001999, 8.01736240007449, 8.575812899973243, 9.434034000034444, 9.842460200074129, 10.684125300031155, 11.267501599970274, 11.734359599999152, 12.684447100036778, 13.334605399984866, 13.851041699992493, 14.301276199985296, 14.91027460002806, 15.442865599994548, 15.851307000033557, 16.326391200069338, 16.74307680001948, 17.201257499982603, 18.05977090005763]"	27	"[1.401638700044714, 2.160007099970244, 2.7932026999769732, 3.4850573000730947, 4.026630199979991, 4.701804400072433, 5.335365800070576, 6.6101357999723405, 7.518723400076851, 8.010322200017981, 8.568768099998124, 9.426994199980982, 9.835416799993254, 10.67708350007888, 11.2604571999982, 11.727316900040023, 12.677412400022149, 13.32756630005315, 13.843994399998337, 14.294231100007892, 14.903237399994396, 15.435823200037703, 15.844265000079758, 16.31934539997019, 16.73603120003827, 17.19421530002728, 18.052664800081402]"	"[1.5763130000559613, 2.326475700014271, 2.9597693000687286, 3.6766831000568345, 4.184815400047228, 4.868284499971196, 5.526596400071867, 6.8100291000446305, 7.660074600018561, 8.176806400064379, 8.735257600084879, 9.560322500066832, 9.993786800070666, 10.851981000043452, 11.443739800015464, 11.893872800050303, 12.927092700032517, 13.55223799997475, 14.002293199999258, 14.46888270007912, 15.277269000071101, 15.54402510006912, 16.010740900062956, 16.452388899982907, 16.902378499973565, 17.36074080003891, 18.052668999996968]"	444.02211859996896	444.02771980001125	445.51964289997704	445.5277900999645								23	01	2024-02-15_11h09.02.546	BART_exp	2023.2.3	119.95398569171819	2024-02-15 11h09.21.149993 +0100	
balloon.png	44	0	16	16	10	445.5277900999645													445.5198185999179	445.5277900999645	445.5277900999645	445.5277900999645	445.5277900999645	445.5277900999645	0.005731199984438717	0.005731199984438717	0.005731199984438717	445.5277900999645	456.2469710999867	18	0.90	False	"[-0.07407407407407407, -0.07407407407407407, -0.07407407407407407, -0.07407407407407407, -0.07407407407407407, -0.07407407407407407, -0.07407407407407407, -0.07407407407407407, -0.07407407407407407, -0.07407407407407407, -0.07407407407407407, -0.07407407407407407, -0.07407407407407407, -0.07407407407407407, -0.07407407407407407, -0.07407407407407407, -0.07407407407407407, -0.07407407407407407, -0.07407407407407407]"	"[-0.3888888888888889, -0.3888888888888889, -0.3888888888888889, -0.3888888888888889, -0.3888888888888889, -0.3888888888888889, -0.3888888888888889, -0.3888888888888889, -0.3888888888888889, -0.3888888888888889, -0.3888888888888889, -0.3888888888888889, -0.3888888888888889, -0.3888888888888889, -0.3888888888888889, -0.3888888888888889, -0.3888888888888889, -0.3888888888888889, -0.3888888888888889]"	"[1, 1, 1, 1, 1, 1, 1, 1, 1, 1, 1, 1, 1, 1, 1, 1, 1, 1, 0]"	"[0, 0, 0, 0, 0, 0, 0, 0, 0, 0, 0, 0, 0, 0, 0, 0, 0, 0, 0]"	"[0, 0, 0, 0, 0, 0, 0, 0, 0, 0, 0, 0, 0, 0, 0, 0, 0, 0, 1]"	"[2.2587707999628037, 2.9340879999799654, 3.617208300041966, 4.0505883999867365, 4.4839314999990165, 4.858965500025079, 5.125894199940376, 6.442407099995762, 6.742563699954189, 6.984261899953708, 7.175936199957505, 8.276087400037795, 8.551171900006011, 8.79272539995145, 9.001073900028132, 9.192787499981932, 9.484283600002527, 9.967820100020617, 10.72623809997458]"	19	"[2.2568851000396535, 2.9321972000179812, 3.61532049998641, 4.048699300037697, 4.482042800053023, 4.857078299974091, 5.124015899957158, 6.440516900038347, 6.740680900053121, 6.982370099984109, 7.1740487000206485, 8.274195799953304, 8.549287599977106, 8.790834999992512, 8.999182900064625, 9.19090339995455, 9.48240059998352, 9.965929700061679, 10.724286900018342]"	"[2.406809699954465, 3.1068010999588296, 3.731823700014502, 4.156904099974781, 4.657078200019896, 4.9820476999739185, 5.290436699986458, 6.548784299986437, 6.857073100050911, 7.09043710003607, 7.315461199963465, 8.423934299964458, 8.68232350004837, 8.890549000003375, 9.082232999964617, 9.348906200029887, 9.574170300038531, 10.07395880005788, 10.724291100050323]"	456.247873299988	456.26188339991495	457.75369649997447									23	01	2024-02-15_11h09.02.546	BART_exp	2023.2.3	119.95398569171819	2024-02-15 11h09.21.149993 +0100	
balloon.png	14	0	17	17	3	457.77035259990953													457.7538673999952	457.77035259990953	457.77035259990953	457.77035259990953	457.77035259990953	457.77035259990953	0.007228899979963899	0.007228899979963899	0.007228899979963899	457.77035259990953	466.3478185000131	15	0.70	True	"[-0.07314814814814814, -0.07314814814814814, -0.07314814814814814, -0.07314814814814814, -0.07314814814814814, -0.07314814814814814, -0.07314814814814814, -0.07314814814814814, -0.07314814814814814, -0.07314814814814814, -0.07314814814814814, -0.07314814814814814, -0.07314814814814814, -0.07314814814814814, -0.07314814814814814]"	"[-0.3888888888888889, -0.3888888888888889, -0.3888888888888889, -0.3888888888888889, -0.3888888888888889, -0.3888888888888889, -0.3888888888888889, -0.3888888888888889, -0.3888888888888889, -0.3888888888888889, -0.3888888888888889, -0.3888888888888889, -0.3888888888888889, -0.3888888888888889, -0.3888888888888889]"	"[1, 1, 1, 1, 1, 1, 1, 1, 1, 1, 1, 1, 1, 1, 1]"	"[0, 0, 0, 0, 0, 0, 0, 0, 0, 0, 0, 0, 0, 0, 0]"	"[0, 0, 0, 0, 0, 0, 0, 0, 0, 0, 0, 0, 0, 0, 0]"	"[1.6423562000272796, 2.24242449994199, 2.8257225999841467, 3.225681999931112, 3.6008004000177607, 4.13422280002851, 4.725925699924119, 5.15095849998761, 5.4927254000213, 5.926013499964029, 6.392744099954143, 6.792665299959481, 7.2427633999614045, 7.8594638999784365, 8.417782999924384]"	15	"[1.6388781000860035, 2.238938400056213, 2.8222313000587747, 3.2221919000148773, 3.5973075000802055, 4.130732499994338, 4.722437200020067, 5.147467900067568, 5.489241200033575, 5.922551600029692, 6.389264199999161, 6.7891826999839395, 7.239275300060399, 7.855973800062202, 8.414292400004342]"	"[1.8303689000895247, 2.3969860000070184, 2.9970457000890747, 3.363702700007707, 3.7554007000289857, 4.247097500017844, 4.788803400006145, 5.255541300051846, 5.613872900023125, 6.039022000040859, 6.497493300004862, 6.922349200001918, 7.397368500009179, 8.030711300089024, 8.580898000043817]"	466.3486039999407	466.35428600001615	467.8462489999365	467.87103329994716								23	01	2024-02-15_11h09.02.546	BART_exp	2023.2.3	119.95398569171819	2024-02-15 11h09.21.149993 +0100	
balloon.png	114	0	18	18	26	467.87103329994716													467.84643079992384	467.87103329994716	467.87103329994716	467.87103329994716	467.87103329994716	467.87103329994716	-0.0007959000067785382	-0.0007959000067785382	-0.0007959000067785382	467.87103329994716	477.1652011999395	14	0.70	False	"[-0.05925925925925926, -0.05925925925925926, -0.05925925925925926, -0.05925925925925926, -0.05925925925925926, -0.05925925925925926, -0.05925925925925926, -0.05925925925925926, -0.05925925925925926, -0.05925925925925926, -0.05925925925925926, -0.05925925925925926, -0.05925925925925926, -0.05925925925925926, -0.05925925925925926]"	"[-0.39537037037037037, -0.39537037037037037, -0.39537037037037037, -0.39537037037037037, -0.39537037037037037, -0.39537037037037037, -0.39537037037037037, -0.39537037037037037, -0.39537037037037037, -0.39537037037037037, -0.39537037037037037, -0.39537037037037037, -0.39537037037037037, -0.39537037037037037, -0.39537037037037037]"	"[1, 1, 1, 1, 1, 1, 1, 1, 1, 1, 1, 1, 1, 1, 0]"	"[0, 0, 0, 0, 0, 0, 0, 0, 0, 0, 0, 0, 0, 0, 0]"	"[0, 0, 0, 0, 0, 0, 0, 0, 0, 0, 0, 0, 0, 0, 1]"	"[0.7340395000064746, 1.3505054999841377, 1.950658499961719, 2.9757225000066683, 3.5088804999832064, 3.9923516999697313, 4.550716299912892, 5.60079689999111, 6.00927049992606, 6.759416899993084, 7.184233099920675, 7.700788200017996, 8.2093858999433, 8.842696100007743, 9.317861899966374]"	15	"[0.7232126999879256, 1.3396589000476524, 1.939816200057976, 2.964882200001739, 3.4980450000148267, 3.9815099000697955, 4.539875000016764, 5.589954799972475, 5.998430600040592, 6.748572300071828, 7.173386799986474, 7.689945199992508, 8.198542800033465, 8.831868899986148, 9.306955600040965]"	"[0.8893820999655873, 1.464564700028859, 2.0977890000212938, 3.1228140000021085, 3.6229040999896824, 4.131227100035176, 4.656349000055343, 5.722988300025463, 6.139876400004141, 6.889821400051005, 7.314778400002979, 7.839986799983308, 8.364850100013427, 8.956564599997364, 9.306960000074469]"	477.16611019999254	477.17172300000675	478.6636780999834	478.68014609999955								23	01	2024-02-15_11h09.02.546	BART_exp	2023.2.3	119.95398569171819	2024-02-15 11h09.21.149993 +0100	
balloon.png	62	0	19	19	14	478.68014609999955													478.66386309999507	478.68014609999955	478.68014609999955	478.68014609999955	478.68014609999955	478.68014609999955	-0.0009902999736368656	-0.0009902999736368656	-0.0009902999736368656	478.68014609999955	492.37451629992574	20	1.00	False	"[-0.06481481481481481, -0.06481481481481481, -0.06481481481481481, -0.06481481481481481, -0.06481481481481481, -0.06481481481481481, -0.06481481481481481, -0.06481481481481481, -0.06481481481481481, -0.06481481481481481, -0.06481481481481481, -0.06481481481481481, -0.06481481481481481, -0.06481481481481481, -0.06481481481481481, -0.06481481481481481, -0.06481481481481481, -0.06481481481481481, -0.06481481481481481, -0.06481481481481481, -0.06481481481481481]"	"[-0.3972222222222222, -0.3972222222222222, -0.3972222222222222, -0.3972222222222222, -0.3972222222222222, -0.3972222222222222, -0.3972222222222222, -0.3972222222222222, -0.3972222222222222, -0.3972222222222222, -0.3972222222222222, -0.3972222222222222, -0.3972222222222222, -0.3972222222222222, -0.3972222222222222, -0.3972222222222222, -0.3972222222222222, -0.3972222222222222, -0.3972222222222222, -0.3972222222222222, -0.3972222222222222]"	"[1, 1, 1, 1, 1, 1, 1, 1, 1, 1, 1, 1, 1, 1, 1, 1, 1, 1, 1, 1, 0]"	"[0, 0, 0, 0, 0, 0, 0, 0, 0, 0, 0, 0, 0, 0, 0, 0, 0, 0, 0, 0, 0]"	"[0, 0, 0, 0, 0, 0, 0, 0, 0, 0, 0, 0, 0, 0, 0, 0, 0, 0, 0, 0, 1]"	"[1.6837052000919357, 2.5257659000344574, 3.1175268000224605, 3.6504605000372976, 4.225522499997169, 4.784027500078082, 5.250608800095506, 5.683946500066668, 6.259018000098877, 7.092485500033945, 7.734268300002441, 8.425892000086606, 9.109435999998823, 9.817601300077513, 10.267929800087586, 10.851047500036657, 11.384517800062895, 11.842705400078557, 12.684624299989082, 13.12628450000193, 13.709697000100277]"	21	"[1.6800665999762714, 2.5221659999806434, 3.1139109999639913, 3.6468212000327185, 4.221884400001727, 4.780387399950996, 5.246971199987456, 5.680305700050667, 6.255379099980928, 7.0888426000019535, 7.73064029996749, 8.422254299977794, 9.105797399999574, 9.813975800061598, 10.264290599967353, 10.847410100046545, 11.380881299963221, 11.839064300060272, 12.680982399964705, 13.12264379998669, 13.705997699988075]"	"[1.846569100045599, 2.638338900054805, 3.313453200040385, 3.8218478000489995, 4.346769300056621, 4.938532600062899, 5.371790600009263, 5.846870100009255, 6.396918099955656, 7.263642100035213, 7.980378599953838, 8.613688300014473, 9.280539100058377, 9.938858499983326, 10.438855199958198, 10.988865999970585, 11.547219600062817, 11.990390100050718, 12.830693900003098, 13.2724845999619, 13.706002000020817]"	492.375429000007	492.38112129992805	493.87306119990535	493.8895286999177								23	01	2024-02-15_11h09.02.546	BART_exp	2023.2.3	119.95398569171819	2024-02-15 11h09.21.149993 +0100	
balloon.png	27	0	20	20	6	493.8895286999177													493.8732388999779	493.8895286999177	493.8895286999177	493.8895286999177	493.8895286999177	493.8895286999177	-0.0009265000699087977	-0.0009265000699087977	-0.0009265000699087977	493.8895286999177	512.5175071000122	24	1.20	False	"[-0.0712962962962963, -0.0712962962962963, -0.0712962962962963, -0.0712962962962963, -0.0712962962962963, -0.0712962962962963, -0.0712962962962963, -0.0712962962962963, -0.0712962962962963, -0.0712962962962963, -0.0712962962962963, -0.0712962962962963, -0.0712962962962963, -0.0712962962962963, -0.0712962962962963, -0.0712962962962963, -0.0712962962962963, -0.0712962962962963, -0.0712962962962963, -0.0712962962962963, -0.0712962962962963, -0.0712962962962963, -0.0712962962962963, -0.0712962962962963, -0.0712962962962963]"	"[-0.3888888888888889, -0.3888888888888889, -0.3888888888888889, -0.3888888888888889, -0.3888888888888889, -0.3888888888888889, -0.3888888888888889, -0.3888888888888889, -0.3888888888888889, -0.3888888888888889, -0.3888888888888889, -0.3888888888888889, -0.3888888888888889, -0.3888888888888889, -0.3888888888888889, -0.3888888888888889, -0.3888888888888889, -0.3888888888888889, -0.3888888888888889, -0.3888888888888889, -0.3888888888888889, -0.3888888888888889, -0.3888888888888889, -0.3888888888888889, -0.3888888888888889]"	"[1, 1, 1, 1, 1, 1, 1, 1, 1, 1, 1, 1, 1, 1, 1, 1, 1, 1, 1, 1, 1, 1, 1, 1, 0]"	"[0, 0, 0, 0, 0, 0, 0, 0, 0, 0, 0, 0, 0, 0, 0, 0, 0, 0, 0, 0, 0, 0, 0, 0, 0]"	"[0, 0, 0, 0, 0, 0, 0, 0, 0, 0, 0, 0, 0, 0, 0, 0, 0, 0, 0, 0, 0, 0, 0, 0, 1]"	"[1.8756190000567585, 2.5422797000501305, 3.1423586000455543, 3.8672086000442505, 4.467287600040436, 5.142524400027469, 5.775722800055519, 6.234019399969839, 6.842598999966867, 7.484383000060916, 7.950974100036547, 8.351021399954334, 9.142865000059828, 9.592598799965344, 11.24288469995372, 12.009459999972023, 12.768012200016528, 13.49308609997388, 14.493129499955103, 15.309840600006282, 16.001381000038236, 16.586095400038175, 17.418139099958353, 17.88500590005424, 18.6433560999576]"	25	"[1.8714842000044882, 2.5381444999948144, 3.1382240999955684, 3.8548783999867737, 4.463153299991973, 5.138386700069532, 5.771584799978882, 6.229877699981444, 6.838469400070608, 7.480248900013976, 7.946832800051197, 8.346885800012387, 9.138724699965678, 9.588464900036342, 11.238772500073537, 12.005324500030838, 12.763883300009184, 13.488953500054777, 14.489000500063412, 15.305705800070427, 15.997243099962361, 16.58211499999743, 17.414004300022498, 17.880871600005776, 18.639157600002363]"	"[2.0211204000515863, 2.6628739000298083, 3.2878706000046805, 4.03796730004251, 4.604666400002316, 5.3047057000221685, 5.938079099985771, 6.388088800013065, 6.99658310005907, 7.613168800016865, 8.104875100078061, 8.513249200070277, 9.3299546999624, 9.755093700019643, 11.380120699992403, 12.130361999967135, 12.97187660005875, 13.663628800073639, 14.65531679999549, 15.52205699996557, 16.230455600074492, 16.747209100052714, 17.647383800009266, 18.04732320003677, 18.639161800034344]"	512.5185168000171	512.5241694999859	514.0161589999916	514.0409405999817								23	01	2024-02-15_11h09.02.546	BART_exp	2023.2.3	119.95398569171819	2024-02-15 11h09.21.149993 +0100	
balloon.png	36	0	21	21	8	514.0409405999817													514.0163418999873	514.0409405999817	514.0409405999817	514.0409405999817	514.0409405999817	514.0409405999817	-0.00090079999063164	-0.00090079999063164	-0.00090079999063164	514.0409405999817	528.9020009000087	20	1.00	False	"[-0.05555555555555555, -0.05925925925925926, -0.062037037037037036, -0.062037037037037036, -0.062037037037037036, -0.062037037037037036, -0.062037037037037036, -0.062037037037037036, -0.062037037037037036, -0.062037037037037036, -0.062037037037037036, -0.062037037037037036, -0.062037037037037036, -0.062037037037037036, -0.062037037037037036, -0.062037037037037036, -0.062037037037037036, -0.062037037037037036, -0.062037037037037036, -0.062037037037037036, -0.062037037037037036]"	"[-0.38425925925925924, -0.3851851851851852, -0.3851851851851852, -0.3851851851851852, -0.3851851851851852, -0.3851851851851852, -0.3851851851851852, -0.3851851851851852, -0.3851851851851852, -0.3851851851851852, -0.3851851851851852, -0.3851851851851852, -0.3851851851851852, -0.3851851851851852, -0.3851851851851852, -0.3851851851851852, -0.3851851851851852, -0.3851851851851852, -0.3851851851851852, -0.3851851851851852, -0.3851851851851852]"	"[1, 1, 1, 1, 1, 1, 1, 1, 1, 1, 1, 1, 1, 1, 1, 1, 1, 1, 1, 1, 0]"	"[0, 0, 0, 0, 0, 0, 0, 0, 0, 0, 0, 0, 0, 0, 0, 0, 0, 0, 0, 0, 0]"	"[0, 0, 0, 0, 0, 0, 0, 0, 0, 0, 0, 0, 0, 0, 0, 0, 0, 0, 0, 0, 1]"	"[1.2753345998935401, 1.9422823999775574, 2.6837732999119908, 3.408964499947615, 4.250516499974765, 4.858892099931836, 5.450664399890229, 6.325944599928334, 6.984453299897723, 7.600856099976227, 8.442691399948671, 9.109359900001436, 9.909512499929406, 10.434306399896741, 11.367838999954984, 12.501260399934836, 12.884806099929847, 13.251160499989055, 13.768070899997838, 14.27626979991328, 14.88473999989219]"	21	"[1.2644391999347135, 1.9313901999266818, 2.672882999991998, 3.3980725000146776, 4.239626299939118, 4.847998499986716, 5.439773299964145, 6.315050199977122, 6.9735583999427035, 7.589959700009786, 8.431800499907695, 9.098468599957414, 9.898628199938685, 10.423406100017019, 11.356946800020523, 12.490367999998853, 12.873916300013661, 13.240265999920666, 13.757200099993497, 14.265378799987957, 14.873781599919312]"	"[1.4142835999373347, 2.0977363999700174, 2.8311351999873295, 3.5560931999934837, 4.4145695000188425, 5.014624399947934, 5.597952399984933, 6.464673599926755, 7.106408399995416, 7.748247299925424, 8.60648499999661, 9.264852599939331, 10.098226999980398, 10.564953899942338, 11.506702199927531, 12.606766099925153, 13.015135499997996, 13.373504799907096, 13.923502799938433, 14.406868199934252, 14.873785799951293]"	528.9029024000047	528.908653399907	530.4006695999997	530.4170950999251								23	01	2024-02-15_11h09.02.546	BART_exp	2023.2.3	119.95398569171819	2024-02-15 11h09.21.149993 +0100	
balloon.png	97	0	22	22	22	530.4170950999251													530.4008435999276	530.4170950999251	530.4170950999251	530.4170950999251	530.4170950999251	530.4170950999251	-0.0007798000006005168	-0.0007798000006005168	-0.0007798000006005168	530.4170950999251	551.245105799986	25	1.25	False	"[-0.012037037037037037, -0.012037037037037037, -0.012037037037037037, -0.012037037037037037, -0.012037037037037037, -0.012037037037037037, -0.012037037037037037, -0.012037037037037037, -0.012037037037037037, -0.012037037037037037, -0.012037037037037037, -0.012037037037037037, -0.012037037037037037, -0.012037037037037037, -0.012037037037037037, -0.012037037037037037, -0.012037037037037037, -0.012037037037037037, -0.012037037037037037, -0.012037037037037037, -0.012037037037037037, -0.012037037037037037, -0.012037037037037037, -0.010185185185185186, -0.009259259259259259, -0.009259259259259259]"	"[-0.38333333333333336, -0.38333333333333336, -0.38333333333333336, -0.38333333333333336, -0.38333333333333336, -0.38333333333333336, -0.38333333333333336, -0.38333333333333336, -0.38333333333333336, -0.38333333333333336, -0.38333333333333336, -0.38333333333333336, -0.38333333333333336, -0.38333333333333336, -0.38333333333333336, -0.38333333333333336, -0.38333333333333336, -0.38333333333333336, -0.38333333333333336, -0.38333333333333336, -0.38333333333333336, -0.38333333333333336, -0.38333333333333336, -0.3990740740740741, -0.39537037037037037, -0.39537037037037037]"	"[1, 1, 1, 1, 1, 1, 1, 1, 1, 1, 1, 1, 1, 1, 1, 1, 1, 1, 1, 1, 1, 1, 1, 1, 1, 0]"	"[0, 0, 0, 0, 0, 0, 0, 0, 0, 0, 0, 0, 0, 0, 0, 0, 0, 0, 0, 0, 0, 0, 0, 0, 0, 0]"	"[0, 0, 0, 0, 0, 0, 0, 0, 0, 0, 0, 0, 0, 0, 0, 0, 0, 0, 0, 0, 0, 0, 0, 0, 0, 1]"	"[2.5920954999746755, 3.275550000020303, 4.050542599987239, 4.909123199991882, 5.792308999923989, 6.459003199939616, 7.300860699964687, 8.034287399961613, 8.784174999920651, 9.468939999933355, 10.326119799981825, 11.009337199968286, 11.734834300004877, 12.417787699960172, 13.059605699963868, 13.909762099967338, 14.668137299944647, 15.384667299920693, 15.959893999970518, 16.40973909990862, 17.034841799992137, 17.551575899939053, 17.776486599934287, 18.96006860001944, 19.676790799945593, 20.843336299993098]"	26	"[2.5853678999701515, 3.2688147000735626, 4.0438091000542045, 4.902387900045142, 5.7855755999917164, 6.452265499974601, 7.294125500018708, 8.027556600049138, 8.777448500040919, 9.4623675000621, 10.319391299970448, 11.00260560004972, 11.728113600052893, 12.41105500003323, 13.05287340003997, 13.90302970004268, 14.661409000051208, 15.377939500031061, 15.95315880002454, 16.40301820007153, 17.028109800070524, 17.54484310001135, 17.76975570002105, 18.953344400040805, 19.670054799993522, 20.836552900029346]"	"[2.7601867000339553, 3.3852621000260115, 4.243618000065908, 5.060528700007126, 5.952092100051232, 6.652347099967301, 7.46888509998098, 8.202276200056076, 8.952281999983825, 9.635714199976064, 10.469100299989805, 11.377460999996401, 11.95268720004242, 12.619205499999225, 13.269300400046632, 14.127686599968001, 14.869399299961515, 15.552766100037843, 16.111129899974912, 16.55286499997601, 17.19462470000144, 17.652990899980068, 17.81959420000203, 19.05299780005589, 19.76977540005464, 20.83655740006361]"	551.2462298999308	551.2518930999795	552.7439088999527	552.7603416999336								23	01	2024-02-15_11h09.02.546	BART_exp	2023.2.3	119.95398569171819	2024-02-15 11h09.21.149993 +0100	
balloon.png	101	0	23	23	23	552.7603416999336													552.744086899911	552.7603416999336	552.7603416999336	552.7603416999336	552.7603416999336	552.7603416999336	-0.0008708999957889318	-0.0008708999957889318	-0.0008708999957889318	552.7603416999336	563.971057399991	16	0.80	False	"[-0.049074074074074076, -0.049074074074074076, -0.049074074074074076, -0.049074074074074076, -0.049074074074074076, -0.049074074074074076, -0.049074074074074076, -0.049074074074074076, -0.049074074074074076, -0.049074074074074076, -0.049074074074074076, -0.049074074074074076, -0.049074074074074076, -0.049074074074074076, -0.049074074074074076, -0.049074074074074076, -0.049074074074074076]"	"[-0.39166666666666666, -0.39166666666666666, -0.39166666666666666, -0.39166666666666666, -0.39166666666666666, -0.39166666666666666, -0.39166666666666666, -0.39166666666666666, -0.39166666666666666, -0.39166666666666666, -0.39166666666666666, -0.39166666666666666, -0.39166666666666666, -0.39166666666666666, -0.39166666666666666, -0.39166666666666666, -0.39166666666666666]"	"[1, 1, 1, 1, 1, 1, 1, 1, 1, 1, 1, 1, 1, 1, 1, 1, 0]"	"[0, 0, 0, 0, 0, 0, 0, 0, 0, 0, 0, 0, 0, 0, 0, 0, 0]"	"[0, 0, 0, 0, 0, 0, 0, 0, 0, 0, 0, 0, 0, 0, 0, 0, 1]"	"[1.1671739000594243, 1.858822499983944, 2.4837167999939993, 3.0671594999730587, 3.692195800016634, 4.359113799990155, 5.017232500016689, 5.667416700045578, 6.283983799978159, 7.067411300027743, 7.667417300050147, 8.367625300073996, 8.8093270000536, 9.509366600075737, 10.084383000037633, 10.542771400068887, 11.226043900009245]"	17	"[1.163910000002943, 1.8555726000340655, 2.480446200002916, 3.0638884999789298, 3.688930500065908, 4.355847600032575, 5.013962700031698, 5.664147400064394, 6.280721700051799, 7.0641393000259995, 7.664149499963969, 8.364352900069207, 8.806054700049572, 9.506098699988797, 10.081112100044265, 10.539498600061052, 11.222710200003348]"	"[1.3219417000655085, 2.021943400031887, 2.6636371000204235, 3.2887316000415012, 3.897068800055422, 4.555449499981478, 5.255530799971893, 5.872285500052385, 6.488929099985398, 7.230642299982719, 7.880663400050253, 8.547426300006919, 9.139105999958701, 9.672473800019361, 10.222502700053155, 10.689200200024061, 11.222714700037614]"	563.9721396999666	563.9778040999081	565.4698025999824	565.4862254000036								23	01	2024-02-15_11h09.02.546	BART_exp	2023.2.3	119.95398569171819	2024-02-15 11h09.21.149993 +0100	
balloon.png	118	0	24	24	27	565.4862254000036													565.4699790999293	565.4862254000036	565.4862254000036	565.4862254000036	565.4862254000036	565.4862254000036	-0.0008142000297084451	-0.0008142000297084451	-0.0008142000297084451	565.4862254000036	585.2726593000116	34	1.70	False	"[-0.037037037037037035, -0.037037037037037035, -0.037037037037037035, -0.037037037037037035, -0.037037037037037035, -0.037037037037037035, -0.03611111111111111, -0.03611111111111111, -0.03611111111111111, -0.03611111111111111, -0.03611111111111111, -0.03611111111111111, -0.03611111111111111, -0.03611111111111111, -0.03611111111111111, -0.03611111111111111, -0.03611111111111111, -0.03611111111111111, -0.03611111111111111, -0.03611111111111111, -0.03611111111111111, -0.03611111111111111, -0.03611111111111111, -0.03611111111111111, -0.03611111111111111, -0.03611111111111111, -0.03611111111111111, -0.03611111111111111, -0.03611111111111111, -0.03611111111111111, -0.03611111111111111, -0.03611111111111111, -0.03611111111111111, -0.03611111111111111, -0.03611111111111111]"	"[-0.38981481481481484, -0.38981481481481484, -0.38981481481481484, -0.38981481481481484, -0.38981481481481484, -0.38981481481481484, -0.38981481481481484, -0.38981481481481484, -0.38981481481481484, -0.38981481481481484, -0.38981481481481484, -0.38981481481481484, -0.38981481481481484, -0.38981481481481484, -0.38981481481481484, -0.38981481481481484, -0.38981481481481484, -0.38981481481481484, -0.38981481481481484, -0.38981481481481484, -0.38981481481481484, -0.38981481481481484, -0.38981481481481484, -0.38981481481481484, -0.38981481481481484, -0.38981481481481484, -0.38981481481481484, -0.38981481481481484, -0.38981481481481484, -0.38981481481481484, -0.38981481481481484, -0.38981481481481484, -0.38981481481481484, -0.38981481481481484, -0.38981481481481484]"	"[1, 1, 1, 1, 1, 1, 1, 1, 1, 1, 1, 1, 1, 1, 1, 1, 1, 1, 1, 1, 1, 1, 1, 1, 1, 1, 1, 1, 1, 1, 1, 1, 1, 1, 0]"	"[0, 0, 0, 0, 0, 0, 0, 0, 0, 0, 0, 0, 0, 0, 0, 0, 0, 0, 0, 0, 0, 0, 0, 0, 0, 0, 0, 0, 0, 0, 0, 0, 0, 0, 0]"	"[0, 0, 0, 0, 0, 0, 0, 0, 0, 0, 0, 0, 0, 0, 0, 0, 0, 0, 0, 0, 0, 0, 0, 0, 0, 0, 0, 0, 0, 0, 0, 0, 0, 0, 1]"	"[1.6919979000231251, 2.3504956000251696, 3.0005692000268027, 3.667208099970594, 4.2090142000233755, 4.918525299988687, 5.817438400001265, 6.350917899981141, 6.934210199979134, 7.217521299957298, 7.584219699958339, 7.934204499935731, 8.217627399950288, 8.567640700028278, 9.167765200021677, 9.917545899981633, 10.459277299931273, 11.026173999998719, 11.54279969993513, 12.184733200003393, 12.601282899966463, 13.092812099959701, 13.534621299942955, 14.0595336999977, 14.576381999999285, 15.059580600005575, 15.534610099974088, 16.293012500042096, 16.843114199931733, 17.293112799990922, 17.72671600000467, 18.184994700015523, 18.585179499932565, 18.96000510000158, 19.80172320001293]"	35	"[1.6841184999793768, 2.342618399998173, 2.9926902999868616, 3.659330200054683, 4.201136899995618, 4.910806700005196, 5.80955750006251, 6.343041000072844, 6.926337599987164, 7.209647200070322, 7.57633780001197, 7.926323099993169, 8.209758799988776, 8.559761599986814, 9.159881200059317, 9.909666700055823, 10.451395699987188, 11.018292500055395, 11.534921000013128, 12.176850600051694, 12.593405300052837, 13.084940599976107, 13.526742800022475, 14.05165170005057, 14.568501400062814, 15.051701699965633, 15.526726700016297, 16.28513179998845, 16.83523470000364, 17.285236099967733, 17.718837599968538, 18.177112200064585, 18.57730890007224, 18.952120100031607, 19.7937791000586]"	"[1.8922964000375941, 2.53409129998181, 3.1924108000239357, 3.900772099965252, 4.384231699979864, 5.092539299977943, 5.94257379998453, 6.509329800028354, 7.03433449997101, 7.317702800035477, 7.692728099995293, 8.042776699992828, 8.317929200013168, 8.726189400069416, 9.359490600065328, 10.051213699975051, 10.609609300037846, 11.2096550000133, 11.718022200046107, 12.293033599969931, 12.751544400001876, 13.209904000046663, 13.75146689999383, 14.159829000011086, 14.709875100059435, 15.176554100005887, 15.676625999971293, 16.434991599991918, 17.001780500053428, 17.443406800040975, 17.88511210004799, 18.318507299991325, 18.74347540002782, 19.11017440003343, 19.793783199973404]"	585.2738939999836	585.2793495999649	586.7712511999998	586.7793918999378								23	01	2024-02-15_11h09.02.546	BART_exp	2023.2.3	119.95398569171819	2024-02-15 11h09.21.149993 +0100	
balloon.png	84	0	25	25	19	586.7793918999378													586.7714252999285	586.7793918999378	586.7793918999378	586.7793918999378	586.7793918999378	586.7793918999378	0.005564099992625415	0.005564099992625415	0.005564099992625415	586.7793918999378	607.065806599916	32	1.60	False	"[-0.058333333333333334, -0.058333333333333334, -0.058333333333333334, -0.058333333333333334, -0.058333333333333334, -0.058333333333333334, -0.058333333333333334, -0.058333333333333334, -0.058333333333333334, -0.058333333333333334, -0.058333333333333334, -0.058333333333333334, -0.058333333333333334, -0.058333333333333334, -0.058333333333333334, -0.058333333333333334, -0.058333333333333334, -0.058333333333333334, -0.058333333333333334, -0.058333333333333334, -0.058333333333333334, -0.058333333333333334, -0.058333333333333334, -0.058333333333333334, -0.058333333333333334, -0.058333333333333334, -0.058333333333333334, -0.058333333333333334, -0.058333333333333334, -0.058333333333333334, -0.058333333333333334, -0.058333333333333334, -0.058333333333333334]"	"[-0.3824074074074074, -0.3824074074074074, -0.3824074074074074, -0.3824074074074074, -0.3824074074074074, -0.3824074074074074, -0.3824074074074074, -0.3824074074074074, -0.3824074074074074, -0.3824074074074074, -0.3824074074074074, -0.3824074074074074, -0.3824074074074074, -0.3824074074074074, -0.3824074074074074, -0.3824074074074074, -0.3824074074074074, -0.3824074074074074, -0.3824074074074074, -0.3824074074074074, -0.3824074074074074, -0.3824074074074074, -0.3824074074074074, -0.3824074074074074, -0.3824074074074074, -0.3824074074074074, -0.3824074074074074, -0.3824074074074074, -0.3824074074074074, -0.3824074074074074, -0.3824074074074074, -0.3824074074074074, -0.3824074074074074]"	"[1, 1, 1, 1, 1, 1, 1, 1, 1, 1, 1, 1, 1, 1, 1, 1, 1, 1, 1, 1, 1, 1, 1, 1, 1, 1, 1, 1, 1, 1, 1, 1, 0]"	"[0, 0, 0, 0, 0, 0, 0, 0, 0, 0, 0, 0, 0, 0, 0, 0, 0, 0, 0, 0, 0, 0, 0, 0, 0, 0, 0, 0, 0, 0, 0, 0, 0]"	"[0, 0, 0, 0, 0, 0, 0, 0, 0, 0, 0, 0, 0, 0, 0, 0, 0, 0, 0, 0, 0, 0, 0, 0, 0, 0, 0, 0, 0, 0, 0, 0, 1]"	"[1.5088932000799105, 2.1338476000819355, 2.7006184000056237, 3.284083600039594, 3.6840421000961214, 4.209031300037168, 4.734120900044218, 5.367437000037171, 6.034199899993837, 6.642562600085512, 7.267608200083487, 7.800866900011897, 8.343952000024728, 8.817532900022343, 9.55113760009408, 10.742707900004461, 11.351076400023885, 11.942938900087029, 12.526147600030527, 13.293038300005719, 13.793415200081654, 14.284753500018269, 14.776338900090195, 15.268166700028814, 15.626603899989277, 15.99450330005493, 16.584909000084735, 17.334969900082797, 18.168304200051352, 18.468406000058167, 19.04346469999291, 19.518298199982382, 20.29342990007717]"	33	"[1.5070387000450864, 2.1319933000486344, 2.6987564000301063, 3.2822229000739753, 3.682182200020179, 4.207171100075357, 4.732264000107534, 5.365580500103533, 6.032338500022888, 6.640707100043073, 7.26574729999993, 7.799012100091204, 8.342266000108793, 8.807446100050583, 9.54927509999834, 10.740852300077677, 11.349217000068165, 11.941083700046875, 12.524288300075568, 13.291182900080457, 13.791723800008185, 14.282892200048082, 14.774478000006638, 15.266310900100507, 15.624747700057924, 15.9928038000362, 16.583051500027068, 17.333110800012946, 18.166442300076596, 18.46654690010473, 19.041607100050896, 19.516437500016764, 20.291507800109684]"	"[1.6817198001081124, 2.273650100105442, 2.8568218000000343, 3.4401994000654668, 3.8235375001095235, 4.398593800025992, 4.865306100109592, 5.523841200047173, 6.207047000061721, 6.807088200002909, 7.415450800093822, 7.940540200099349, 8.46551140001975, 9.090622700052336, 9.65731240005698, 10.949017100036144, 11.549096600036137, 12.12419530004263, 12.757668900070712, 13.432530700112693, 13.965898800059222, 14.499274700065143, 14.907636300078593, 15.432737300056033, 15.782870100112632, 16.16630260006059, 16.78278460004367, 17.56628280004952, 18.324556300067343, 18.649645800003782, 19.191302200080827, 19.666351600084454, 20.29151200002525]"	607.067363500013	607.0725020999089	608.5644370999653	608.5726249999134								23	01	2024-02-15_11h09.02.546	BART_exp	2023.2.3	119.95398569171819	2024-02-15 11h09.21.149993 +0100	
balloon.png	53	0	26	26	12	608.5726249999134													608.5646202999633	608.5726249999134	608.5726249999134	608.5726249999134	608.5726249999134	608.5726249999134	0.005324600031599402	0.005324600031599402	0.005324600031599402	608.5726249999134	625.2006132999668	30	1.50	False	"[-0.07222222222222222, -0.07222222222222222, -0.07222222222222222, -0.07222222222222222, -0.07222222222222222, -0.07222222222222222, -0.07222222222222222, -0.07222222222222222, -0.07222222222222222, -0.07222222222222222, -0.07222222222222222, -0.07222222222222222, -0.07222222222222222, -0.07222222222222222, -0.07222222222222222, -0.07222222222222222, -0.07222222222222222, -0.07222222222222222, -0.07222222222222222, -0.07222222222222222, -0.07222222222222222, -0.07222222222222222, -0.07222222222222222, -0.07222222222222222, -0.07222222222222222, -0.07222222222222222, -0.07222222222222222, -0.07222222222222222, -0.07222222222222222, -0.07222222222222222, -0.07222222222222222]"	"[-0.3814814814814815, -0.3814814814814815, -0.3814814814814815, -0.3814814814814815, -0.3814814814814815, -0.3814814814814815, -0.3814814814814815, -0.3814814814814815, -0.3814814814814815, -0.3814814814814815, -0.3814814814814815, -0.3814814814814815, -0.3814814814814815, -0.3814814814814815, -0.3814814814814815, -0.3814814814814815, -0.3814814814814815, -0.3814814814814815, -0.3814814814814815, -0.3814814814814815, -0.3814814814814815, -0.3814814814814815, -0.3814814814814815, -0.3814814814814815, -0.3814814814814815, -0.3814814814814815, -0.3814814814814815, -0.3814814814814815, -0.3814814814814815, -0.3814814814814815, -0.3814814814814815]"	"[1, 1, 1, 1, 1, 1, 1, 1, 1, 1, 1, 1, 1, 1, 1, 1, 1, 1, 1, 1, 1, 1, 1, 1, 1, 1, 1, 1, 1, 1, 0]"	"[0, 0, 0, 0, 0, 0, 0, 0, 0, 0, 0, 0, 0, 0, 0, 0, 0, 0, 0, 0, 0, 0, 0, 0, 0, 0, 0, 0, 0, 0, 0]"	"[0, 0, 0, 0, 0, 0, 0, 0, 0, 0, 0, 0, 0, 0, 0, 0, 0, 0, 0, 0, 0, 0, 0, 0, 0, 0, 0, 0, 0, 0, 1]"	"[0.8505071999970824, 1.3170330000575632, 1.7337313999887556, 2.1170843000290915, 2.4590884000062943, 2.8172965000849217, 3.2673718000296503, 3.8507413000334054, 4.25906210008543, 4.651934600085951, 4.984128799987957, 5.592467500013299, 6.009194900048897, 6.54252770007588, 7.017626199987717, 7.427342900075018, 7.984308900078759, 8.517539600026794, 9.084415600053035, 9.951022500055842, 10.642843800014816, 11.517744700075127, 12.051367800100707, 12.551208300050348, 13.251479800092056, 13.70125280006323, 14.234817199991085, 14.843165600090288, 15.368145300075412, 15.859903800068423, 16.635058199986815]"	31	"[0.8486246999818832, 1.3151498000370339, 1.7318440999370068, 2.115197699982673, 2.457208600011654, 2.8154140999540687, 3.2654894000152126, 3.8488649999490008, 4.257179299951531, 4.650206699967384, 4.9822446999605745, 5.590580699965358, 6.007313499925658, 6.540674399933778, 7.015743799973279, 7.425529100000858, 7.982426899950951, 8.515652399975806, 9.082535399938934, 9.949136800016277, 10.64096079999581, 11.515860299929045, 12.04948659997899, 12.549328499939293, 13.249596099951304, 13.699366700020619, 14.232935799984261, 14.841280399938114, 15.366260100039653, 15.85801550000906, 16.63311659998726]"	"[0.9900687999324873, 1.4484039000235498, 1.84837849996984, 2.2733998999465257, 2.6235261999536306, 2.973473899997771, 3.456872700015083, 4.0235333000309765, 4.440220899996348, 4.8152599999448285, 5.306935900007375, 5.706965400022455, 6.165344199980609, 6.7237037000013515, 7.173791899927892, 7.590453799930401, 8.14054099994246, 8.665614799945615, 9.26568099996075, 10.132284999941476, 10.840699299937114, 11.715786900022067, 12.19083919993136, 12.72421359992586, 13.40759600000456, 13.865976299974136, 14.432627900037915, 15.015957799972966, 15.557672300026752, 16.01603850000538, 16.633120800019242]"	625.2020695999963	625.2071111999685	626.6990755000152	626.7072171999607								23	01	2024-02-15_11h09.02.546	BART_exp	2023.2.3	119.95398569171819	2024-02-15 11h09.21.149993 +0100	
balloon.png	66	0	27	27	15	626.7072171999607													626.6992531999713	626.7072171999607	626.7072171999607	626.7072171999607	626.7072171999607	626.7072171999607	0.005213199998252094	0.005213199998252094	0.005213199998252094	626.7072171999607	647.7270717999199	38	1.90	False	"[-0.026851851851851852, -0.026851851851851852, -0.026851851851851852, -0.026851851851851852, -0.026851851851851852, -0.026851851851851852, -0.026851851851851852, -0.026851851851851852, -0.026851851851851852, -0.026851851851851852, -0.026851851851851852, -0.026851851851851852, -0.026851851851851852, -0.026851851851851852, -0.026851851851851852, -0.026851851851851852, -0.026851851851851852, -0.026851851851851852, -0.026851851851851852, -0.026851851851851852, -0.026851851851851852, -0.026851851851851852, -0.026851851851851852, -0.026851851851851852, -0.026851851851851852, -0.026851851851851852, -0.026851851851851852, -0.026851851851851852, -0.026851851851851852, -0.026851851851851852, -0.026851851851851852, -0.026851851851851852, -0.026851851851851852, -0.026851851851851852, -0.026851851851851852, -0.026851851851851852, -0.026851851851851852, -0.026851851851851852, -0.026851851851851852]"	"[-0.3907407407407407, -0.3907407407407407, -0.3907407407407407, -0.3907407407407407, -0.3907407407407407, -0.3907407407407407, -0.3907407407407407, -0.3907407407407407, -0.3907407407407407, -0.3907407407407407, -0.3907407407407407, -0.3907407407407407, -0.3907407407407407, -0.3907407407407407, -0.3907407407407407, -0.3907407407407407, -0.3907407407407407, -0.3907407407407407, -0.3907407407407407, -0.3907407407407407, -0.3907407407407407, -0.3907407407407407, -0.3907407407407407, -0.3907407407407407, -0.3907407407407407, -0.3907407407407407, -0.3907407407407407, -0.3907407407407407, -0.3907407407407407, -0.3907407407407407, -0.3907407407407407, -0.3907407407407407, -0.3907407407407407, -0.3907407407407407, -0.3907407407407407, -0.3907407407407407, -0.38981481481481484, -0.38981481481481484, -0.38981481481481484]"	"[1, 1, 1, 1, 1, 1, 1, 1, 1, 1, 1, 1, 1, 1, 1, 1, 1, 1, 1, 1, 1, 1, 1, 1, 1, 1, 1, 1, 1, 1, 1, 1, 1, 1, 1, 1, 1, 1, 0]"	"[0, 0, 0, 0, 0, 0, 0, 0, 0, 0, 0, 0, 0, 0, 0, 0, 0, 0, 0, 0, 0, 0, 0, 0, 0, 0, 0, 0, 0, 0, 0, 0, 0, 0, 0, 0, 0, 0, 0]"	"[0, 0, 0, 0, 0, 0, 0, 0, 0, 0, 0, 0, 0, 0, 0, 0, 0, 0, 0, 0, 0, 0, 0, 0, 0, 0, 0, 0, 0, 0, 0, 0, 0, 0, 0, 0, 0, 0, 1]"	"[1.4588807999389246, 2.033975000027567, 2.5005802999949083, 3.075621100026183, 3.4506680000340566, 3.958863400039263, 4.475787400035188, 4.825720599968918, 5.250804999959655, 5.817548300023191, 6.650906699942425, 7.07591939996928, 7.500929799978621, 8.094099399982952, 8.517682999954559, 9.359240500023589, 9.692756399977952, 10.2261717999354, 10.742701799958013, 11.201258799992502, 11.609408100019209, 12.018102900008671, 12.467978699947707, 13.259696600027382, 13.784551199991256, 14.276450100005604, 14.918176000006497, 15.384658799972385, 15.893181100022048, 16.326384000014514, 16.768097499967553, 17.209943900001235, 17.618456800002605, 18.01006470003631, 18.61836189997848, 18.993264699936844, 20.101885000010952, 20.435175799997523, 21.026881300029345]"	39	"[1.4568055999698117, 2.031905799987726, 2.4985051000257954, 3.0735552000114694, 3.4486111999722198, 3.956795100006275, 4.4737148999702185, 4.823643899988383, 5.248747500008903, 5.8154779999749735, 6.648839100031182, 7.073854499962181, 7.498882699990645, 8.092200999963097, 8.51561430003494, 9.357165500055999, 9.690686500049196, 10.224105500034057, 10.740627399994992, 11.19918580004014, 11.60733040003106, 12.016030000057071, 12.465905099990778, 13.257645000005141, 13.78247720003128, 14.274377300054766, 14.916108399978839, 15.382581499987282, 15.89110620005522, 16.32431319996249, 16.766030300059356, 17.207882200018503, 17.616384500055574, 18.007993099978194, 18.616294399951585, 18.991191199980676, 20.099812100059353, 20.433099000016227, 21.02474759996403]"	"[1.6731308000162244, 2.189850899972953, 2.67328390001785, 3.2399098000023514, 3.7816671000327915, 4.123346299980767, 4.590092199970968, 4.990134199964814, 5.423415699973702, 5.9902297999942675, 6.765277900034562, 7.215372900012881, 7.673547700047493, 8.223600000026636, 8.698625299963169, 9.515392099972814, 9.857082200003788, 10.415461800061166, 10.923810299951583, 11.373828300042078, 11.773968699970283, 12.190804600017145, 12.557379200006835, 13.373963800026104, 13.957321700057946, 14.432367800036445, 15.06575830001384, 15.53255830006674, 16.03248589998111, 16.465916399960406, 16.924261200008914, 17.366008899989538, 17.774269000045024, 18.17431030003354, 18.77434969996102, 19.166162300040014, 20.19110960001126, 20.58281419996638, 21.02475169999525]"	647.7283360000001	647.7337096999399	649.2256463000085	649.2337844999274								23	01	2024-02-15_11h09.02.546	BART_exp	2023.2.3	119.95398569171819	2024-02-15 11h09.21.149993 +0100	
balloon.png	75	0	28	28	17	649.2337844999274													649.2258188999258	649.2337844999274	649.2337844999274	649.2337844999274	649.2337844999274	649.2337844999274	0.005517799989320338	0.005517799989320338	0.005517799989320338	649.2337844999274	663.3198123999173	34	1.70	False	"[-0.06481481481481481, -0.06481481481481481, -0.06481481481481481, -0.06481481481481481, -0.06481481481481481, -0.06481481481481481, -0.06481481481481481, -0.06481481481481481, -0.06481481481481481, -0.06481481481481481, -0.06481481481481481, -0.06481481481481481, -0.06481481481481481, -0.06481481481481481, -0.06481481481481481, -0.06481481481481481, -0.06481481481481481, -0.06481481481481481, -0.06481481481481481, -0.06481481481481481, -0.06481481481481481, -0.06481481481481481, -0.06481481481481481, -0.06481481481481481, -0.06481481481481481, -0.06481481481481481, -0.06481481481481481, -0.06481481481481481, -0.06481481481481481, -0.06481481481481481, -0.06481481481481481, -0.06481481481481481, -0.06481481481481481, -0.06481481481481481, -0.06481481481481481]"	"[-0.38055555555555554, -0.38055555555555554, -0.38055555555555554, -0.38055555555555554, -0.38055555555555554, -0.38055555555555554, -0.38055555555555554, -0.38055555555555554, -0.38055555555555554, -0.38055555555555554, -0.38055555555555554, -0.38055555555555554, -0.38055555555555554, -0.38055555555555554, -0.38055555555555554, -0.38055555555555554, -0.38055555555555554, -0.38055555555555554, -0.38055555555555554, -0.38055555555555554, -0.38055555555555554, -0.38055555555555554, -0.38055555555555554, -0.38055555555555554, -0.38055555555555554, -0.38055555555555554, -0.38055555555555554, -0.38055555555555554, -0.38055555555555554, -0.38055555555555554, -0.38055555555555554, -0.38055555555555554, -0.38055555555555554, -0.38055555555555554, -0.38055555555555554]"	"[1, 1, 1, 1, 1, 1, 1, 1, 1, 1, 1, 1, 1, 1, 1, 1, 1, 1, 1, 1, 1, 1, 1, 1, 1, 1, 1, 1, 1, 1, 1, 1, 1, 1, 0]"	"[0, 0, 0, 0, 0, 0, 0, 0, 0, 0, 0, 0, 0, 0, 0, 0, 0, 0, 0, 0, 0, 0, 0, 0, 0, 0, 0, 0, 0, 0, 0, 0, 0, 0, 0]"	"[0, 0, 0, 0, 0, 0, 0, 0, 0, 0, 0, 0, 0, 0, 0, 0, 0, 0, 0, 0, 0, 0, 0, 0, 0, 0, 0, 0, 0, 0, 0, 0, 0, 0, 1]"	"[1.0755474000470713, 1.642260599997826, 1.9588953000493348, 2.2588929999619722, 2.5257393999490887, 2.867147900047712, 3.1588315999833867, 3.425588099984452, 3.8005271999863908, 4.084049000055529, 4.359065999975428, 4.642362199956551, 4.925807300023735, 5.20896650000941, 5.458990599960089, 5.775877399952151, 6.109183700056747, 6.484265899984166, 6.875922300037928, 7.200811599963345, 7.68415670003742, 8.084309100056998, 8.642674100003205, 9.3428393000504, 9.817652600002475, 10.15937390003819, 10.509546000044793, 10.926403800025582, 11.234438100014813, 11.78448130004108, 12.30963699996937, 12.66796340001747, 13.15955009998288, 13.434729699976742, 14.093058099970222]"	35	"[1.0736769000068307, 1.6403867000481114, 1.9570385999977589, 2.257020700024441, 2.5238703000359237, 2.85700600000564, 3.1569598000496626, 3.4237195000750944, 3.79865700006485, 4.082179000019096, 4.357190600014292, 4.640490000019781, 4.923939000000246, 5.20709290006198, 5.457115099998191, 5.774001999991015, 6.107307899976149, 6.4823909000260755, 6.874047900084406, 7.198940000031143, 7.682286199997179, 8.082434399984777, 8.640808199997991, 9.340975100058131, 9.81578449998051, 10.157497300067917, 10.507671599974856, 10.924526500049978, 11.2325629000552, 11.78261230001226, 12.307769100065343, 12.666094199987128, 13.157679800060578, 13.43285660003312, 14.091121800011024]"	"[1.2401488000759855, 1.756746800034307, 2.0734191000228748, 2.3902020000386983, 2.681768300011754, 2.973455399973318, 3.2651767000788823, 3.581839599995874, 3.9485372999915853, 4.223544400068931, 4.481912499992177, 4.815309699974023, 5.04885500005912, 5.331962900003418, 5.615292500006035, 5.907031700015068, 6.265328300069086, 6.640460700029507, 7.007270000060089, 7.3404600999783725, 7.823789600050077, 8.232161300024018, 8.807226500008255, 9.48231830005534, 9.915606599999592, 10.290675300057046, 10.640650600078516, 11.050466099986807, 11.390714999986812, 11.932443600031547, 12.432485299999826, 12.8324768000748, 13.307805599994026, 13.574518500012346, 14.091125800041482]"	663.321045699995	663.3264434000012	664.8184526999248	664.8265676000156								23	01	2024-02-15_11h09.02.546	BART_exp	2023.2.3	119.95398569171819	2024-02-15 11h09.21.149993 +0100	
balloon.png	5	0	29	29	1	664.8265676000156													664.8186276999768	664.8265676000156	664.8265676000156	664.8265676000156	664.8265676000156	664.8265676000156	0.005587400053627789	0.005587400053627789	0.005587400053627789	664.8265676000156	669.0871916000033	6	0.25	True	"[-0.11018518518518519, -0.10740740740740741, -0.10740740740740741, -0.10740740740740741, -0.10740740740740741, -0.10740740740740741]"	"[-0.37592592592592594, -0.37592592592592594, -0.37592592592592594, -0.37592592592592594, -0.37592592592592594, -0.37592592592592594]"	"[1, 1, 1, 1, 1, 1]"	"[0, 0, 0, 0, 0, 0]"	"[0, 0, 0, 0, 0, 0]"	"[2.108980899909511, 2.5920932999579236, 2.9339146999409422, 3.3588185999542475, 3.7755255999509245, 4.1423494999762625]"	6	"[2.1070089999120682, 2.5901090999832377, 2.931930899969302, 3.3568363999947906, 3.7735502999275923, 4.1403634999878705]"	"[2.231598899932578, 2.6983810999663547, 3.040142699959688, 3.4650251999264583, 3.8983806999167427, 4.256729199900292]"	669.0878382999217	669.0935170999728	670.5854906999739	670.5936758000171								23	01	2024-02-15_11h09.02.546	BART_exp	2023.2.3	119.95398569171819	2024-02-15 11h09.21.149993 +0100	
																																														670.5855289999163	670.5936758000171	670.5936758000171	688.5286965999985	space	17.93088010000065	None	23	01	2024-02-15_11h09.02.546	BART_exp	2023.2.3	119.95398569171819	2024-02-15 11h09.21.149993 +0100	
