"image"	"max_pumps"	"pump_loop.thisRepN"	"pump_loop.thisTrialN"	"pump_loop.thisN"	"pump_loop.thisIndex"	"thisRow.t"	"notes"	"Start.started"	"text_start.started"	"continue_start.started"	"mouse_start.started"	"Start.stopped"	"mouse_start.x"	"mouse_start.y"	"mouse_start.leftButton"	"mouse_start.midButton"	"mouse_start.rightButton"	"mouse_start.time"	"trials.started"	"stim_balloon.started"	"stim_balloon_burst.started"	"stim_balloon_burst.stopped"	"text_ballon_value.started"	"text_bank.started"	"mouse.started"	"sound_bang.started"	"sound_bang.stopped"	"button_balloon.started"	"trials.stopped"	"n_pumps"	"earnings"	"popped"	"mouse.x"	"mouse.y"	"mouse.leftButton"	"mouse.midButton"	"mouse.rightButton"	"mouse.time"	"button_balloon.numClicks"	"button_balloon.timesOn"	"button_balloon.timesOff"	"Feedback.started"	"text_feedback.started"	"Feedback.stopped"	"text_feedback.stopped"	"End.started"	"text_end.started"	"key_end.started"	"End.stopped"	"key_end.keys"	"key_end.rt"	"key_end.duration"	"participant"	"session"	"date"	"expName"	"psychopyVersion"	"frameRate"	"expStart"	"...61"
NA	NA	NA	NA	NA	NA	NA	NA	0.00121830000034606	0.00748910000038449	0.00748910000038449	0.00151790000018081	51.4787812000004	"[0.6981481481481482]"	"[-0.39537037037037037]"	"[1]"	"[0]"	"[0]"	"[51.47645509999984]"	NA	NA	NA	NA	NA	NA	NA	NA	NA	NA	NA	NA	NA	NA	NA	NA	NA	NA	NA	NA	NA	NA	NA	NA	NA	NA	NA	NA	NA	NA	NA	NA	NA	NA	30	"02"	"2024-02-21_09h19.18.952"	"BART_exp"	"2023.2.3"	122.118014849308	"2024-02-21 09h19.29.936713 +0100"	NA
"balloon.png"	105	0	0	0	24	51.5441564000002	NA	NA	NA	NA	NA	NA	NA	NA	NA	NA	NA	NA	51.4864501000002	51.5441564000002	51.5441564000002	51.5441564000002	51.5441564000002	51.5441564000002	0.009465199999795	0.009465199999795	0.009465199999795	51.5441564000002	56.5884946000001	5	0.25	FALSE	"[0.012037037037037037, 0.012037037037037037, 0.012037037037037037, 0.012037037037037037, 0.012037037037037037, 0.012037037037037037]"	"[-0.39166666666666666, -0.39166666666666666, -0.39166666666666666, -0.39166666666666666, -0.39166666666666666, -0.39166666666666666]"	"[1, 1, 1, 1, 1, 0]"	"[0, 0, 0, 0, 0, 0]"	"[0, 0, 0, 0, 0, 1]"	"[1.992059799999879, 3.0339429000000564, 3.551992700000028, 3.8757368999999926, 4.36733490000006, 5.1009524999999485]"	6	"[1.9404586000000563, 2.9823394000000008, 3.5003952000001846, 3.8241501000002245, 4.315729400000237, 5.0493060000003425]"	"[2.098776000000271, 3.123703900000237, 3.657129200000327, 3.9655611000002864, 4.490563300000304, 5.049310600000354]"	56.5896642000002	56.5994898000003	58.0950500000003	NA	NA	NA	NA	NA	NA	NA	NA	30	"02"	"2024-02-21_09h19.18.952"	"BART_exp"	"2023.2.3"	122.118014849308	"2024-02-21 09h19.29.936713 +0100"	NA
"balloon.png"	14	0	1	1	3	58.1036005000001	NA	NA	NA	NA	NA	NA	NA	NA	NA	NA	NA	NA	58.0952644000004	58.1036005000001	58.1036005000001	58.1036005000001	58.1036005000001	58.1036005000001	0.00698899999997593	0.00698899999997593	0.00698899999997593	58.1036005000001	59.6886973000001	5	0.25	FALSE	"[0.012037037037037037, 0.012037037037037037, 0.012037037037037037, 0.012037037037037037, 0.012037037037037037, 0.012037037037037037]"	"[-0.39166666666666666, -0.39166666666666666, -0.39166666666666666, -0.39166666666666666, -0.39166666666666666, -0.39166666666666666]"	"[1, 1, 1, 1, 1, 0]"	"[0, 0, 0, 0, 0, 0]"	"[0, 0, 0, 0, 0, 1]"	"[0.40027469999995446, 0.6258983000002445, 0.8426709000000301, 1.0761136000000988, 1.2838980000001357, 1.5922641000001931]"	6	"[0.39716390000012325, 0.622811300000194, 0.8395880000002762, 1.0730607000000418, 1.2807842000001983, 1.5891002000003027]"	"[0.5224928000002365, 0.7637659000001804, 0.9804231000002801, 1.2061088000000382, 1.413819599999897, 1.5891049000001658]"	59.6894171000004	59.6949440000003	61.1892427000002	61.2033011000003	NA	NA	NA	NA	NA	NA	NA	30	"02"	"2024-02-21_09h19.18.952"	"BART_exp"	"2023.2.3"	122.118014849308	"2024-02-21 09h19.29.936713 +0100"	NA
"balloon.png"	23	0	2	2	5	61.2033011000003	NA	NA	NA	NA	NA	NA	NA	NA	NA	NA	NA	NA	61.1898037000001	61.2033011000003	61.2033011000003	61.2033011000003	61.2033011000003	61.2033011000003	0.00196379999988494	0.00196379999988494	0.00196379999988494	61.2033011000003	62.9386949000004	7	0.35	FALSE	"[0.012037037037037037, 0.012037037037037037, 0.011111111111111112, 0.011111111111111112, 0.011111111111111112, 0.011111111111111112, 0.011111111111111112, 0.011111111111111112]"	"[-0.39166666666666666, -0.39166666666666666, -0.39166666666666666, -0.39166666666666666, -0.39166666666666666, -0.39166666666666666, -0.39166666666666666, -0.39166666666666666]"	"[1, 1, 1, 1, 1, 1, 1, 0]"	"[0, 0, 0, 0, 0, 0, 0, 0]"	"[0, 0, 0, 0, 0, 0, 0, 1]"	"[0.3310663000002023, 0.5394067000001996, 0.7392347999998492, 0.9392747000001691, 1.1410783999999694, 1.3310581000000639, 1.4976305000000139, 1.7477340000000368]"	8	"[0.3227705999997852, 0.5310983999997916, 0.7309174999995776, 0.9309537999997701, 1.13277029999972, 1.3227468999998564, 1.4893116999996892, 1.7393521999997574]"	"[0.4224147999998422, 0.6641492999997354, 0.8724060999998073, 1.0475289999999404, 1.2475234999997156, 1.4475321999998414, 1.6475951999996141, 1.7393562999995993]"	62.9394981	62.9451241000002	64.4374074000002	64.4534495000003	NA	NA	NA	NA	NA	NA	NA	30	"02"	"2024-02-21_09h19.18.952"	"BART_exp"	"2023.2.3"	122.118014849308	"2024-02-21 09h19.29.936713 +0100"	NA
"balloon.png"	127	0	3	3	29	64.4534495000003	NA	NA	NA	NA	NA	NA	NA	NA	NA	NA	NA	NA	64.4376225000001	64.4534495000003	64.4534495000003	64.4534495000003	64.4534495000003	64.4534495000003	-0.00042640000037863	-0.00042640000037863	-0.00042640000037863	64.4534495000003	65.7390307000001	4	0.2	FALSE	"[0.011111111111111112, 0.011111111111111112, 0.011111111111111112, 0.011111111111111112, 0.011111111111111112]"	"[-0.39166666666666666, -0.39166666666666666, -0.39166666666666666, -0.39166666666666666, -0.39166666666666666]"	"[1, 1, 1, 1, 0]"	"[0, 0, 0, 0, 0]"	"[0, 0, 0, 0, 1]"	"[0.29192890000012994, 0.55026480000015, 0.7669049000000996, 0.9502769000000626, 1.3003028000002814]"	5	"[0.2818904000000657, 0.5402093000002424, 0.7568446000000222, 0.9402079999999842, 1.2901778000000377]"	"[0.4565866000002643, 0.6482644000002438, 0.8483098000001519, 1.0399185999999645, 1.2901823000001968]"	65.7397741000004	65.7452964000004	67.2376278000002	67.2534127000004	NA	NA	NA	NA	NA	NA	NA	30	"02"	"2024-02-21_09h19.18.952"	"BART_exp"	"2023.2.3"	122.118014849308	"2024-02-21 09h19.29.936713 +0100"	NA
"balloon.png"	36	0	4	4	8	67.2534127000004	NA	NA	NA	NA	NA	NA	NA	NA	NA	NA	NA	NA	67.2378414000004	67.2534127000004	67.2534127000004	67.2534127000004	67.2534127000004	67.2534127000004	-0.00046219999967433	-0.00046219999967433	-0.00046219999967433	67.2534127000004	68.4810898000001	4	0.2	FALSE	"[0.011111111111111112, 0.011111111111111112, 0.011111111111111112, 0.011111111111111112, 0.011111111111111112]"	"[-0.39166666666666666, -0.39166666666666666, -0.39166666666666666, -0.39166666666666666, -0.39166666666666666]"	"[1, 1, 1, 1, 0]"	"[0, 0, 0, 0, 0]"	"[0, 0, 0, 0, 1]"	"[0.3335124000000178, 0.5589071999997941, 0.7756159999998999, 0.9590446000001975, 1.242058100000122]"	5	"[0.323089600000003, 0.5484802000000855, 0.7651951000002555, 0.9486431000000266, 1.2315782000000581]"	"[0.4394154999999955, 0.6561782000003404, 0.8561403000003338, 1.0817853000003197, 1.231583000000228]"	68.4817715000004	68.4871856000004	69.9817357000002	69.9933817000001	NA	NA	NA	NA	NA	NA	NA	30	"02"	"2024-02-21_09h19.18.952"	"BART_exp"	"2023.2.3"	122.118014849308	"2024-02-21 09h19.29.936713 +0100"	NA
"balloon.png"	62	0	5	5	14	69.9933817000001	NA	NA	NA	NA	NA	NA	NA	NA	NA	NA	NA	NA	69.9820117000004	69.9933817000001	69.9933817000001	69.9933817000001	69.9933817000001	69.9933817000001	0.00187570000025516	0.00187570000025516	0.00187570000025516	69.9933817000001	71.3226947000003	5	0.25	FALSE	"[0.011111111111111112, 0.011111111111111112, 0.011111111111111112, 0.011111111111111112, 0.011111111111111112, 0.011111111111111112]"	"[-0.39166666666666666, -0.39166666666666666, -0.39166666666666666, -0.39166666666666666, -0.39166666666666666, -0.39166666666666666]"	"[1, 1, 1, 1, 1, 0]"	"[0, 0, 0, 0, 0, 0]"	"[0, 0, 0, 0, 0, 1]"	"[0.35616669999990336, 0.5560955999999351, 0.7560966000000917, 0.9476331999999275, 1.1307940000001508, 1.3393945000002532]"	6	"[0.350115299999743, 0.5500546999996914, 0.7500354999997398, 0.9415697999997974, 1.1165710000000217, 1.3332728000000316]"	"[0.48302639999974417, 0.6745671999997285, 0.8497161999998752, 1.0330257999999048, 1.2246577999999317, 1.333277199999884]"	71.3234187000003	71.3290100000004	72.8212669000004	72.8329346	NA	NA	NA	NA	NA	NA	NA	30	"02"	"2024-02-21_09h19.18.952"	"BART_exp"	"2023.2.3"	122.118014849308	"2024-02-21 09h19.29.936713 +0100"	NA
"balloon.png"	110	0	6	6	25	72.8329346	NA	NA	NA	NA	NA	NA	NA	NA	NA	NA	NA	NA	72.8214803000001	72.8329346	72.8329346	72.8329346	72.8329346	72.8329346	-0.00042050000001836	-0.00042050000001836	-0.00042050000001836	72.8329346	74.9481072000003	7	0.35	FALSE	"[0.011111111111111112, 0.011111111111111112, 0.011111111111111112, 0.011111111111111112, 0.011111111111111112, 0.011111111111111112, 0.011111111111111112, 0.011111111111111112]"	"[-0.39166666666666666, -0.39166666666666666, -0.39166666666666666, -0.39166666666666666, -0.39166666666666666, -0.39166666666666666, -0.39166666666666666, -0.39166666666666666]"	"[1, 1, 1, 1, 1, 1, 1, 0]"	"[0, 0, 0, 0, 0, 0, 0, 0]"	"[0, 0, 0, 0, 0, 0, 0, 1]"	"[0.32530780000024606, 0.5336497000002964, 0.7504259000002094, 0.9420451000000867, 1.1753317000002426, 1.375328300000092, 1.6084826999999677, 2.1254781000002367]"	8	"[0.3188682999998491, 0.5272157999997944, 0.7439981000002263, 0.9356155000000399, 1.1688970999998674, 1.368885599999885, 1.60204049999993, 2.1189884999998867]"	"[0.4117503000002216, 0.6269725000001927, 0.8517691000001832, 1.0602798999998413, 1.2687224999999671, 1.4852959999998347, 1.7186550999999781, 2.118993000000046]"	74.9489200000003	74.9542964000002	76.4465804000001	76.4631229000001	NA	NA	NA	NA	NA	NA	NA	30	"02"	"2024-02-21_09h19.18.952"	"BART_exp"	"2023.2.3"	122.118014849308	"2024-02-21 09h19.29.936713 +0100"	NA
"balloon.png"	27	0	7	7	6	76.4631229000001	NA	NA	NA	NA	NA	NA	NA	NA	NA	NA	NA	NA	76.4468036000003	76.4631229000001	76.4631229000001	76.4631229000001	76.4631229000001	76.4631229000001	-0.00063890000001265	-0.00063890000001265	-0.00063890000001265	76.4631229000001	79.8563748000001	11	0.55	FALSE	"[0.011111111111111112, 0.011111111111111112, 0.011111111111111112, 0.011111111111111112, 0.011111111111111112, 0.011111111111111112, 0.011111111111111112, 0.011111111111111112, 0.011111111111111112, 0.011111111111111112, 0.011111111111111112, 0.011111111111111112]"	"[-0.39166666666666666, -0.39166666666666666, -0.39166666666666666, -0.39166666666666666, -0.39166666666666666, -0.39166666666666666, -0.39166666666666666, -0.39166666666666666, -0.39166666666666666, -0.39166666666666666, -0.39166666666666666, -0.39166666666666666]"	"[1, 1, 1, 1, 1, 1, 1, 1, 1, 1, 1, 0]"	"[0, 0, 0, 0, 0, 0, 0, 0, 0, 0, 0, 0]"	"[0, 0, 0, 0, 0, 0, 0, 0, 0, 0, 0, 1]"	"[0.283603100000164, 0.5001840999998421, 0.7093988000001445, 0.9254953999998179, 1.158789600000091, 1.3834258000001682, 1.5834156000000803, 1.7918449999997392, 2.00842079999984, 2.266943799999808, 2.8168556000000535, 3.4084610999998404]"	12	"[0.27247269999998025, 0.4890479000000596, 0.6984920999998394, 0.9143825000001016, 1.1476803000000473, 1.3722861000001103, 1.572280800000044, 1.780733500000224, 1.99732559999984, 2.2558060000001205, 2.805733600000167, 3.39728150000019]"	"[0.4054197000000386, 0.6221028999998452, 0.8221161999999822, 1.0221814999999879, 1.2554780000000392, 1.4805937000000995, 1.6810553999998774, 1.8972152999999707, 2.105513500000143, 2.363988000000063, 2.9556092000002536, 3.397286200000053]"	79.8576196000004	79.8629117	81.3569151000002	81.3729066000001	NA	NA	NA	NA	NA	NA	NA	30	"02"	"2024-02-21_09h19.18.952"	"BART_exp"	"2023.2.3"	122.118014849308	"2024-02-21 09h19.29.936713 +0100"	NA
"balloon.png"	101	0	8	8	23	81.3729066000001	NA	NA	NA	NA	NA	NA	NA	NA	NA	NA	NA	NA	81.3571715000003	81.3729066000001	81.3729066000001	81.3729066000001	81.3729066000001	81.3729066000001	0.0014326999998957	0.0014326999998957	0.0014326999998957	81.3729066000001	84.6153218000004	9	0.45	FALSE	"[0.011111111111111112, 0.011111111111111112, 0.011111111111111112, 0.011111111111111112, 0.011111111111111112, 0.011111111111111112, 0.011111111111111112, 0.011111111111111112, 0.011111111111111112, 0.011111111111111112]"	"[-0.39166666666666666, -0.39166666666666666, -0.39166666666666666, -0.39166666666666666, -0.39166666666666666, -0.39166666666666666, -0.39166666666666666, -0.39166666666666666, -0.39166666666666666, -0.39166666666666666]"	"[1, 1, 1, 1, 1, 1, 1, 1, 1, 0]"	"[0, 0, 0, 0, 0, 0, 0, 0, 0, 0]"	"[0, 0, 0, 0, 0, 0, 0, 0, 0, 1]"	"[0.324615200000153, 0.7900327000002108, 1.0399069000000054, 1.2649263000002975, 1.5568191000002116, 1.8151004999999714, 2.0815857000002325, 2.3652007999999114, 2.64829570000029, 3.2568888000000698]"	10	"[0.31421610000006694, 0.7796518999998625, 1.0295117000000573, 1.2545266000001902, 1.5464450999998007, 1.8047163000001092, 2.071181599999818, 2.3548123999999007, 2.63789480000014, 3.246429100000114]"	"[0.6960051000000931, 0.9126799999999093, 1.1293408999999883, 1.3543665000001965, 1.6627988000000187, 1.921054500000082, 2.179534700000204, 2.487833900000169, 2.7878043999999136, 3.246433799999977]"	84.6162328	84.6217251000003	86.1142492000004	86.1234650000001	NA	NA	NA	NA	NA	NA	NA	30	"02"	"2024-02-21_09h19.18.952"	"BART_exp"	"2023.2.3"	122.118014849308	"2024-02-21 09h19.29.936713 +0100"	NA
"balloon.png"	10	0	9	9	2	86.1234650000001	NA	NA	NA	NA	NA	NA	NA	NA	NA	NA	NA	NA	86.1145316000002	86.1234650000001	86.1234650000001	86.1234650000001	86.1234650000001	86.1234650000001	-8.73999997565988e-05	-8.73999997565988e-05	-8.73999997565988e-05	86.1234650000001	88.6659096000003	11	0.5	TRUE	"[0.011111111111111112, 0.011111111111111112, 0.011111111111111112, 0.011111111111111112, 0.011111111111111112, 0.011111111111111112, 0.011111111111111112, 0.011111111111111112, 0.011111111111111112, 0.011111111111111112, 0.011111111111111112]"	"[-0.39166666666666666, -0.39166666666666666, -0.39166666666666666, -0.39166666666666666, -0.39166666666666666, -0.39166666666666666, -0.39166666666666666, -0.39166666666666666, -0.39166666666666666, -0.39166666666666666, -0.39166666666666666]"	"[1, 1, 1, 1, 1, 1, 1, 1, 1, 1, 1]"	"[0, 0, 0, 0, 0, 0, 0, 0, 0, 0, 0]"	"[0, 0, 0, 0, 0, 0, 0, 0, 0, 0, 0]"	"[0.2832228999996005, 0.5078780999997434, 0.7497057999999015, 1.1414350999998533, 1.3413096999997833, 1.5246754999998302, 1.7080359999999928, 1.891464399999677, 2.0666036999996322, 2.2580691999996816, 2.449882799999614]"	11	"[0.27952529999993203, 0.5041661000000204, 0.7461626999997861, 1.1377198999998654, 1.3375983000000815, 1.5209614999998848, 1.7043212999997195, 1.887751599999774, 2.0629361999999674, 2.2543525000000955, 2.4461725999999544]"	"[0.40406419999999343, 0.6209470999997393, 0.8207643999999163, 1.2540733999999247, 1.4459555999997065, 1.6291612999998506, 1.8124867999999879, 1.9894429000000855, 2.154353099999753, 2.345825800000057, 2.537619299999733]"	88.6671155000004	88.6743194000001	90.1722385000003	NA	NA	NA	NA	NA	NA	NA	NA	30	"02"	"2024-02-21_09h19.18.952"	"BART_exp"	"2023.2.3"	122.118014849308	"2024-02-21 09h19.29.936713 +0100"	NA
"balloon.png"	123	0	10	10	28	90.1833116000002	NA	NA	NA	NA	NA	NA	NA	NA	NA	NA	NA	NA	90.1724578000003	90.1833116000002	90.1833116000002	90.1833116000002	90.1833116000002	90.1833116000002	0.00677580000001398	0.00677580000001398	0.00677580000001398	90.1833116000002	92.074024	6	0.3	FALSE	"[0.011111111111111112, 0.011111111111111112, 0.011111111111111112, 0.011111111111111112, 0.011111111111111112, 0.011111111111111112, 0.011111111111111112]"	"[-0.39166666666666666, -0.39166666666666666, -0.39166666666666666, -0.39166666666666666, -0.39166666666666666, -0.39166666666666666, -0.39166666666666666]"	"[1, 1, 1, 1, 1, 1, 0]"	"[0, 0, 0, 0, 0, 0, 0]"	"[0, 0, 0, 0, 0, 0, 1]"	"[0.3339239000001726, 0.7671924999999646, 1.0005684000002475, 1.200616600000103, 1.3921964999999545, 1.5839617000001454, 1.9005099000000882]"	7	"[0.32827839999981734, 0.7615226999996594, 0.9949086999999963, 1.194955200000095, 1.3865345999997771, 1.5783010000000104, 1.8947755999997753]"	"[0.6778627999997298, 0.8695275999998557, 1.0862899999997353, 1.2612544999997226, 1.4613070999998854, 1.6946090999999797, 1.8947801999997864]"	92.0747228	92.0804120000002	93.5727296	93.5829877000001	NA	NA	NA	NA	NA	NA	NA	30	"02"	"2024-02-21_09h19.18.952"	"BART_exp"	"2023.2.3"	122.118014849308	"2024-02-21 09h19.29.936713 +0100"	NA
"balloon.png"	114	0	11	11	26	93.5829877000001	NA	NA	NA	NA	NA	NA	NA	NA	NA	NA	NA	NA	93.5729653000003	93.5829877000001	93.5829877000001	93.5829877000001	93.5829877000001	93.5829877000001	-0.00032710000004954	-0.00032710000004954	-0.00032710000004954	93.5829877000001	95.5492936000001	8	0.4	FALSE	"[0.011111111111111112, 0.011111111111111112, 0.011111111111111112, 0.011111111111111112, 0.011111111111111112, 0.011111111111111112, 0.011111111111111112, 0.011111111111111112, 0.011111111111111112]"	"[-0.39166666666666666, -0.39166666666666666, -0.39166666666666666, -0.39166666666666666, -0.39166666666666666, -0.39166666666666666, -0.39166666666666666, -0.39166666666666666, -0.39166666666666666]"	"[1, 1, 1, 1, 1, 1, 1, 1, 0]"	"[0, 0, 0, 0, 0, 0, 0, 0, 0]"	"[0, 0, 0, 0, 0, 0, 0, 0, 1]"	"[0.26681939999980386, 0.4835361999998895, 0.7015640999998141, 0.9085264999998799, 1.108578999999736, 1.3178432999998222, 1.5175209999997605, 1.6917430999997123, 1.975264899999729]"	9	"[0.2618758999997226, 0.4785917999997764, 0.6967754999996032, 0.9035863999997673, 1.1036538999996992, 1.3129743999998027, 1.512606699999651, 1.6868046999998114, 1.9702681999997367]"	"[0.37000159999979587, 0.5785276999999951, 0.7866326999997, 1.0033509999998387, 1.2200510999996368, 1.4121549999999843, 1.5954787999999098, 1.811968799999704, 1.9702724999997372]"	95.5500796000001	95.5556592000003	97.0479915000001	97.0632244000003	NA	NA	NA	NA	NA	NA	NA	30	"02"	"2024-02-21_09h19.18.952"	"BART_exp"	"2023.2.3"	122.118014849308	"2024-02-21 09h19.29.936713 +0100"	NA
"balloon.png"	84	0	12	12	19	97.0632244000003	NA	NA	NA	NA	NA	NA	NA	NA	NA	NA	NA	NA	97.0482029000004	97.0632244000003	97.0632244000003	97.0632244000003	97.0632244000003	97.0632244000003	-0.00045450000015989	-0.00045450000015989	-0.00045450000015989	97.0632244000003	98.8912323000004	7	0.35	FALSE	"[0.011111111111111112, 0.011111111111111112, 0.011111111111111112, 0.011111111111111112, 0.011111111111111112, 0.011111111111111112, 0.011111111111111112, 0.011111111111111112]"	"[-0.39166666666666666, -0.39166666666666666, -0.39166666666666666, -0.39166666666666666, -0.39166666666666666, -0.39166666666666666, -0.39166666666666666, -0.39166666666666666]"	"[1, 1, 1, 1, 1, 1, 1, 0]"	"[0, 0, 0, 0, 0, 0, 0, 0]"	"[0, 0, 0, 0, 0, 0, 0, 1]"	"[0.38334050000003117, 0.6082671999997729, 0.8166808999999375, 1.0418470999998135, 1.2250278000001344, 1.4502557999999226, 1.6504374000001008, 1.8419114999996964]"	8	"[0.3735882999999376, 0.5985273999999663, 0.8069298000000344, 1.032101700000112, 1.2152776000002632, 1.4405162000002747, 1.6407274000002872, 1.832108800000242]"	"[0.47351030000027095, 0.6983032000002822, 0.9068683999998939, 1.0817910999999185, 1.3150433999999223, 1.5402263999999377, 1.7402666000002682, 1.832113400000253]"	98.8922366000002	98.8975484000002	100.3898752	100.4032027	NA	NA	NA	NA	NA	NA	NA	30	"02"	"2024-02-21_09h19.18.952"	"BART_exp"	"2023.2.3"	122.118014849308	"2024-02-21 09h19.29.936713 +0100"	NA
"balloon.png"	92	0	13	13	21	100.4032027	NA	NA	NA	NA	NA	NA	NA	NA	NA	NA	NA	NA	100.3900885	100.4032027	100.4032027	100.4032027	100.4032027	100.4032027	-0.00066670000023805	-0.00066670000023805	-0.00066670000023805	100.4032027	102.6915011	9	0.45	FALSE	"[0.011111111111111112, 0.011111111111111112, 0.011111111111111112, 0.011111111111111112, 0.011111111111111112, 0.011111111111111112, 0.011111111111111112, 0.011111111111111112, 0.011111111111111112, 0.011111111111111112]"	"[-0.39166666666666666, -0.39166666666666666, -0.39166666666666666, -0.39166666666666666, -0.39166666666666666, -0.39166666666666666, -0.39166666666666666, -0.39166666666666666, -0.39166666666666666, -0.39166666666666666]"	"[1, 1, 1, 1, 1, 1, 1, 1, 1, 0]"	"[0, 0, 0, 0, 0, 0, 0, 0, 0, 0]"	"[0, 0, 0, 0, 0, 0, 0, 0, 0, 1]"	"[0.3086342000001423, 0.5502234000000499, 0.7668640000001687, 0.991765100000066, 1.2168147000002136, 1.4585322000002634, 1.675223200000346, 1.8834062000000813, 2.0836444000001393, 2.3002959000000374]"	10	"[0.3006408000001102, 0.5422208999998475, 0.7588600999997652, 0.9837532999999894, 1.2088057999999364, 1.4505272000001241, 1.6672153999998045, 1.8753934999999728, 2.075640999999905, 2.292229899999711]"	"[0.4251915999998346, 0.6503312999998343, 0.8669942999999876, 1.0670635000001312, 1.317030700000032, 1.533719099999871, 1.7504243999997016, 1.9670808000000761, 2.1753297000000202, 2.29223439999987]"	102.6922884	102.6978833	104.1901522	104.2034886	NA	NA	NA	NA	NA	NA	NA	30	"02"	"2024-02-21_09h19.18.952"	"BART_exp"	"2023.2.3"	122.118014849308	"2024-02-21 09h19.29.936713 +0100"	NA
"balloon.png"	1	0	14	14	0	104.2034886	NA	NA	NA	NA	NA	NA	NA	NA	NA	NA	NA	NA	104.1903681	104.2034886	104.2034886	104.2034886	104.2034886	104.2034886	-0.00046840000004522	-0.00046840000004522	-0.00046840000004522	104.2034886	104.7750744	2	0.05	TRUE	"[0.011111111111111112, 0.011111111111111112]"	"[-0.39166666666666666, -0.39166666666666666]"	"[1, 1]"	"[0, 0]"	"[0, 0]"	"[0.24192660000016986, 0.46686769999996613]"	2	"[0.23399970000036774, 0.45892800000001444]"	"[0.383983900000203, 0.5671159000003172]"	104.7756931	104.7812702	106.2735876	106.2826938	NA	NA	NA	NA	NA	NA	NA	30	"02"	"2024-02-21_09h19.18.952"	"BART_exp"	"2023.2.3"	122.118014849308	"2024-02-21 09h19.29.936713 +0100"	NA
"balloon.png"	5	0	15	15	1	106.2826938	NA	NA	NA	NA	NA	NA	NA	NA	NA	NA	NA	NA	106.2738035	106.2826938	106.2826938	106.2826938	106.2826938	106.2826938	-0.00035509999997884	-0.00035509999997884	-0.00035509999997884	106.2826938	108.8507144	6	0.25	TRUE	"[0.011111111111111112, 0.011111111111111112, 0.011111111111111112, 0.011111111111111112, 0.011111111111111112, 0.011111111111111112]"	"[-0.39166666666666666, -0.39166666666666666, -0.39166666666666666, -0.39166666666666666, -0.39166666666666666, -0.39166666666666666]"	"[1, 1, 1, 1, 1, 1]"	"[0, 0, 0, 0, 0, 0]"	"[0, 0, 0, 0, 0, 0]"	"[0.9918642000002365, 1.6585569000003488, 1.8586754000002657, 2.0505018000003474, 2.275140200000351, 2.500168600000052]"	6	"[0.9880631000000903, 1.6547427000000425, 1.8548811999999089, 2.0467217999998866, 2.27132470000015, 2.4963717000000543]"	"[1.129513699999734, 1.7377894000001106, 1.9630241999998361, 2.1630205999999816, 2.379787800000031, 2.562951299999895]"	108.8514481	108.8566371	110.3488632	110.3629478	NA	NA	NA	NA	NA	NA	NA	30	"02"	"2024-02-21_09h19.18.952"	"BART_exp"	"2023.2.3"	122.118014849308	"2024-02-21 09h19.29.936713 +0100"	NA
"balloon.png"	79	0	16	16	18	110.3629478	NA	NA	NA	NA	NA	NA	NA	NA	NA	NA	NA	NA	110.349076	110.3629478	110.3629478	110.3629478	110.3629478	110.3629478	-0.00084309999965626	-0.00084309999965626	-0.00084309999965626	110.3629478	111.4923255	3	0.15	FALSE	"[0.011111111111111112, 0.011111111111111112, 0.011111111111111112, 0.011111111111111112]"	"[-0.39166666666666666, -0.39166666666666666, -0.39166666666666666, -0.39166666666666666]"	"[1, 1, 1, 0]"	"[0, 0, 0, 0]"	"[0, 0, 0, 1]"	"[0.3586950000003526, 0.5753592000000936, 0.833527100000083, 1.1420768000002681]"	4	"[0.3499848000001293, 0.566659399999935, 0.8247995000001538, 1.1333180999999968]"	"[0.4746071999998094, 0.683000500000162, 0.9496997999999621, 1.133322700000008]"	111.4930464	111.5071439	112.9988145	NA	NA	NA	NA	NA	NA	NA	NA	30	"02"	"2024-02-21_09h19.18.952"	"BART_exp"	"2023.2.3"	122.118014849308	"2024-02-21 09h19.29.936713 +0100"	NA
"balloon.png"	88	0	17	17	20	113.0128659	NA	NA	NA	NA	NA	NA	NA	NA	NA	NA	NA	NA	112.9990447	113.0128659	113.0128659	113.0128659	113.0128659	113.0128659	0.0074045000001206	0.0074045000001206	0.0074045000001206	113.0128659	114.9095917	6	0.3	FALSE	"[0.011111111111111112, 0.011111111111111112, 0.011111111111111112, 0.011111111111111112, 0.011111111111111112, 0.011111111111111112, 0.011111111111111112]"	"[-0.39166666666666666, -0.39166666666666666, -0.39166666666666666, -0.39166666666666666, -0.39166666666666666, -0.39166666666666666, -0.39166666666666666]"	"[1, 1, 1, 1, 1, 1, 0]"	"[0, 0, 0, 0, 0, 0, 0]"	"[0, 0, 0, 0, 0, 0, 1]"	"[0.10044519999974, 0.3588356999998723, 0.5755427999997664, 0.7754497000000811, 0.9668748999997661, 1.4672412999998414, 1.9089329999997062]"	7	"[0.0917848000003687, 0.3501734999999826, 0.5669133999999758, 0.7668527000000722, 0.9582064000001083, 1.4586035000002084, 1.9002426000001833]"	"[0.2415396999999757, 0.4668786000002001, 0.6667251000003489, 0.8501820999999836, 1.0668562000000748, 1.5749330000003283, 1.9002472000001944]"	114.9105774	114.9153053	116.4094345	116.4226985	NA	NA	NA	NA	NA	NA	NA	30	"02"	"2024-02-21_09h19.18.952"	"BART_exp"	"2023.2.3"	122.118014849308	"2024-02-21 09h19.29.936713 +0100"	NA
"balloon.png"	71	0	18	18	16	116.4226985	NA	NA	NA	NA	NA	NA	NA	NA	NA	NA	NA	NA	116.4097376	116.4226985	116.4226985	116.4226985	116.4226985	116.4226985	0.00139760000001842	0.00139760000001842	0.00139760000001842	116.4226985	120.0927062	11	0.55	FALSE	"[0.011111111111111112, 0.011111111111111112, 0.011111111111111112, 0.011111111111111112, 0.011111111111111112, 0.011111111111111112, 0.011111111111111112, 0.011111111111111112, 0.011111111111111112, 0.011111111111111112, 0.011111111111111112, 0.011111111111111112]"	"[-0.39166666666666666, -0.39166666666666666, -0.39166666666666666, -0.39166666666666666, -0.39166666666666666, -0.39166666666666666, -0.39166666666666666, -0.39166666666666666, -0.39166666666666666, -0.39166666666666666, -0.39166666666666666, -0.39166666666666666]"	"[1, 1, 1, 1, 1, 1, 1, 1, 1, 1, 1, 0]"	"[0, 0, 0, 0, 0, 0, 0, 0, 0, 0, 0, 0]"	"[0, 0, 0, 0, 0, 0, 0, 0, 0, 0, 0, 1]"	"[0.31458669999983613, 0.539636900000005, 0.7562956000001577, 0.964435500000036, 1.1659855000002608, 1.3477570999998534, 1.7396119999998518, 1.9396356000002015, 2.231482600000163, 2.673514399999931, 3.1730799000001753, 3.681523300000208]"	12	"[0.3069980000000214, 0.5320520999998735, 0.748703199999909, 0.9568451000000096, 1.1584099000001515, 1.3401628000001438, 1.7320177999999942, 1.9320431999999528, 2.2239063000001806, 2.6659700999998677, 3.165495600000213, 3.6738789999999426]"	"[0.448471900000186, 0.6734519999999975, 0.8733692000000701, 1.0652934999998251, 1.265295000000151, 1.465179199999966, 1.8402369999998882, 2.0402109000001474, 2.332009400000061, 2.8153385000000526, 3.306997700000011, 3.67388340000025]"	120.0937153	120.0990472	121.5913539	121.6034361	NA	NA	NA	NA	NA	NA	NA	30	"02"	"2024-02-21_09h19.18.952"	"BART_exp"	"2023.2.3"	122.118014849308	"2024-02-21 09h19.29.936713 +0100"	NA
"balloon.png"	49	0	19	19	11	121.6034361	NA	NA	NA	NA	NA	NA	NA	NA	NA	NA	NA	NA	121.5915716	121.6034361	121.6034361	121.6034361	121.6034361	121.6034361	-0.00068210000017643	-0.00068210000017643	-0.00068210000017643	121.6034361	124.0344553	8	0.4	FALSE	"[0.011111111111111112, 0.011111111111111112, 0.011111111111111112, 0.011111111111111112, 0.011111111111111112, 0.011111111111111112, 0.011111111111111112, 0.011111111111111112, 0.011111111111111112]"	"[-0.39166666666666666, -0.39166666666666666, -0.39166666666666666, -0.39166666666666666, -0.39166666666666666, -0.39166666666666666, -0.39166666666666666, -0.39166666666666666, -0.39166666666666666]"	"[1, 1, 1, 1, 1, 1, 1, 1, 0]"	"[0, 0, 0, 0, 0, 0, 0, 0, 0]"	"[0, 0, 0, 0, 0, 0, 0, 0, 1]"	"[0.2757035999998152, 0.49226599999974496, 0.6924589999998716, 0.8921277999997983, 1.0922513999998955, 1.283574999999928, 1.5088519000000815, 2.1334388999998737, 2.4416928000000553]"	9	"[0.2694015000001855, 0.48595620000014605, 0.6861802000003081, 0.885825300000306, 1.0859771000000364, 1.2772351000003255, 1.5026969000000463, 2.1270988999999645, 2.4353046999999606]"	"[0.4356382000000849, 0.6103379000001041, 0.810116200000266, 1.0021615000000565, 1.1935777000003327, 1.3936533000000964, 1.6187557000002926, 2.2790439000000333, 2.4353095999999823]"	124.0355256	124.0409473	125.5348845	125.5535924	NA	NA	NA	NA	NA	NA	NA	30	"02"	"2024-02-21_09h19.18.952"	"BART_exp"	"2023.2.3"	122.118014849308	"2024-02-21 09h19.29.936713 +0100"	NA
"balloon.png"	57	0	20	20	13	125.5535924	NA	NA	NA	NA	NA	NA	NA	NA	NA	NA	NA	NA	125.5351623	125.5535924	125.5535924	125.5535924	125.5535924	125.5535924	0.00208089999978255	0.00208089999978255	0.00208089999978255	125.5535924	133.0101629	16	0.8	FALSE	"[0.011111111111111112, 0.011111111111111112, 0.011111111111111112, 0.011111111111111112, 0.011111111111111112, 0.011111111111111112, 0.011111111111111112, 0.011111111111111112, 0.011111111111111112, 0.011111111111111112, 0.011111111111111112, 0.011111111111111112, 0.011111111111111112, 0.011111111111111112, 0.011111111111111112, 0.011111111111111112, 0.011111111111111112]"	"[-0.39166666666666666, -0.39166666666666666, -0.39166666666666666, -0.39166666666666666, -0.39166666666666666, -0.39166666666666666, -0.39166666666666666, -0.39166666666666666, -0.39166666666666666, -0.39166666666666666, -0.39166666666666666, -0.39166666666666666, -0.39166666666666666, -0.39166666666666666, -0.39166666666666666, -0.39166666666666666, -0.39166666666666666]"	"[1, 1, 1, 1, 1, 1, 1, 1, 1, 1, 1, 1, 1, 1, 1, 1, 0]"	"[0, 0, 0, 0, 0, 0, 0, 0, 0, 0, 0, 0, 0, 0, 0, 0, 0]"	"[0, 0, 0, 0, 0, 0, 0, 0, 0, 0, 0, 0, 0, 0, 0, 0, 1]"	"[0.298033900000064, 0.548259500000313, 0.8066612000002351, 1.0900019000000611, 1.39009440000018, 1.6984098000002632, 1.990002700000332, 2.323590200000126, 3.0234634000003098, 3.3237127000002147, 3.7485446000000593, 4.206927500000347, 4.840442100000018, 5.38177160000032, 6.1153455000003305, 6.674780000000283, 7.47358370000029]"	17	"[0.2855181999998422, 0.5357303000000684, 0.7941342999997687, 1.0774772999998277, 1.377579699999842, 1.6858925999999883, 1.9774751999998443, 2.3110806999998204, 3.0109349999997903, 3.311202399999729, 3.7360203999996884, 4.194406399999934, 4.827919800000018, 5.369241200000033, 6.102817699999832, 6.662474299999758, 7.4610170999999355]"	"[0.46880129999999554, 0.6521821999999702, 0.9021484999998393, 1.1688959999996769, 1.51074779999999, 1.8273454000000129, 2.0940812999997434, 2.4440779999999904, 3.1523471000000427, 3.4523988999999347, 3.8524493999998413, 4.344354399999702, 4.96917859999985, 5.511352999999872, 6.261193699999694, 6.802603299999646, 7.4610218999996505]"	133.0114562	133.0167925	134.5105131	134.523028	NA	NA	NA	NA	NA	NA	NA	30	"02"	"2024-02-21_09h19.18.952"	"BART_exp"	"2023.2.3"	122.118014849308	"2024-02-21 09h19.29.936713 +0100"	NA
"balloon.png"	18	0	21	21	4	134.523028	NA	NA	NA	NA	NA	NA	NA	NA	NA	NA	NA	NA	134.5107742	134.523028	134.523028	134.523028	134.523028	134.523028	0.00172950000023774	0.00172950000023774	0.00172950000023774	134.523028	137.4103339	11	0.55	FALSE	"[0.011111111111111112, 0.011111111111111112, 0.011111111111111112, 0.011111111111111112, 0.011111111111111112, 0.011111111111111112, 0.011111111111111112, 0.011111111111111112, 0.011111111111111112, 0.011111111111111112, 0.011111111111111112, 0.011111111111111112]"	"[-0.39166666666666666, -0.39166666666666666, -0.39166666666666666, -0.39166666666666666, -0.39166666666666666, -0.39166666666666666, -0.39166666666666666, -0.39166666666666666, -0.39166666666666666, -0.39166666666666666, -0.39166666666666666, -0.39166666666666666]"	"[1, 1, 1, 1, 1, 1, 1, 1, 1, 1, 1, 0]"	"[0, 0, 0, 0, 0, 0, 0, 0, 0, 0, 0, 0]"	"[0, 0, 0, 0, 0, 0, 0, 0, 0, 0, 0, 1]"	"[0.3567785999998705, 0.5899638000000778, 0.8233445999999276, 1.0735157999997682, 1.2900704999997288, 1.4984561999999642, 1.6985028999997667, 1.9151302000000214, 2.1152102999999443, 2.290251200000057, 2.5068358999997145, 2.8983250999999655]"	12	"[0.34978610000007393, 0.5829546999998456, 0.8163334000000759, 1.066683600000033, 1.283061799999814, 1.491452499999923, 1.6915048999999271, 1.908125999999811, 2.1082047999998395, 2.283262299999933, 2.4998249000000214, 2.891249699999662]"	"[0.47430439999970986, 0.690999599999941, 0.9410533000000214, 1.1744588999999905, 1.3994830999999976, 1.5994983999999022, 1.8077857999996922, 1.9995573999999579, 2.217583199999808, 2.4245341000000735, 2.6009235999999873, 2.891254299999673]"	137.4111591	137.416945	138.909183	138.9232903	NA	NA	NA	NA	NA	NA	NA	30	"02"	"2024-02-21_09h19.18.952"	"BART_exp"	"2023.2.3"	122.118014849308	"2024-02-21 09h19.29.936713 +0100"	NA
"balloon.png"	66	0	22	22	15	138.9232903	NA	NA	NA	NA	NA	NA	NA	NA	NA	NA	NA	NA	138.9093981	138.9232903	138.9232903	138.9232903	138.9232903	138.9232903	-0.00014149999969959	-0.00014149999969959	-0.00014149999969959	138.9232903	143.9859411	16	0.8	FALSE	"[0.011111111111111112, 0.011111111111111112, 0.011111111111111112, 0.011111111111111112, 0.011111111111111112, 0.011111111111111112, 0.011111111111111112, 0.011111111111111112, 0.011111111111111112, 0.011111111111111112, 0.011111111111111112, 0.011111111111111112, 0.011111111111111112, 0.011111111111111112, 0.011111111111111112, 0.011111111111111112]"	"[-0.39166666666666666, -0.39166666666666666, -0.39166666666666666, -0.39166666666666666, -0.39166666666666666, -0.39166666666666666, -0.39166666666666666, -0.39166666666666666, -0.39166666666666666, -0.39166666666666666, -0.39166666666666666, -0.39166666666666666, -0.39166666666666666, -0.39166666666666666, -0.39166666666666666, -0.39166666666666666]"	"[1, 1, 1, 1, 1, 1, 1, 1, 1, 1, 1, 1, 1, 1, 1, 1]"	"[0, 0, 0, 0, 0, 0, 0, 0, 0, 0, 0, 0, 0, 0, 0, 0]"	"[0, 0, 0, 0, 0, 0, 0, 0, 0, 0, 0, 0, 0, 0, 0, 0]"	"[0.47534459999997125, 0.717145900000105, 0.9668962999999167, 1.1922972000002119, 1.4253378000003067, 1.633409400000346, 2.0419949000001907, 2.2834579000000303, 2.483547400000134, 2.6918757000003097, 2.875265500000296, 3.083540500000254, 3.258551599999919, 3.4929494000002705, 3.95876219999991, 4.425226000000293]"	17	"[0.46660220000012487, 0.7084188000003451, 0.9581471999999849, 1.183602200000223, 1.4165901000001213, 1.624655900000107, 2.0332735000001776, 2.2747136000002683, 2.4747925000001487, 2.683152600000085, 2.8665521000002627, 3.074804000000313, 3.2498139000003903, 3.4846807000003537, 3.9500232000000324, 4.416471500000171, 5.066638799999964]"	"[0.6332762000001821, 0.8411945000002561, 1.0578988000002028, 1.291186700000253, 1.5245440000003327, 1.7245738000001438, 2.141270600000098, 2.357977099999971, 2.557949600000029, 2.7580026000000544, 2.9664317000001574, 3.183001500000046, 3.382961900000282, 3.6080501999999797, 4.116299799999979, 4.558181500000046, 5.066643800000293]"	143.9868613	143.9923366	145.4846447	145.4932748	NA	NA	NA	NA	NA	NA	NA	30	"02"	"2024-02-21_09h19.18.952"	"BART_exp"	"2023.2.3"	122.118014849308	"2024-02-21 09h19.29.936713 +0100"	NA
"balloon.png"	118	0	23	23	27	145.4932748	NA	NA	NA	NA	NA	NA	NA	NA	NA	NA	NA	NA	145.484858	145.4932748	145.4932748	145.4932748	145.4932748	145.4932748	-0.00046030000021346	-0.00046030000021346	-0.00046030000021346	145.4932748	148.5115721	10	0.5	FALSE	"[0.011111111111111112, 0.011111111111111112, 0.011111111111111112, 0.011111111111111112, 0.011111111111111112, 0.011111111111111112, 0.011111111111111112, 0.011111111111111112, 0.011111111111111112, 0.011111111111111112, 0.011111111111111112]"	"[-0.39166666666666666, -0.39166666666666666, -0.39166666666666666, -0.39166666666666666, -0.39166666666666666, -0.39166666666666666, -0.39166666666666666, -0.39166666666666666, -0.39166666666666666, -0.39166666666666666, -0.39166666666666666]"	"[1, 1, 1, 1, 1, 1, 1, 1, 1, 1, 0]"	"[0, 0, 0, 0, 0, 0, 0, 0, 0, 0, 0]"	"[0, 0, 0, 0, 0, 0, 0, 0, 0, 0, 1]"	"[0.31690000000025975, 0.7587047000001803, 0.9767466000002969, 1.1836169000002883, 1.4003495000001749, 1.608514699999887, 1.8085611999999855, 2.0003560999998626, 2.192110500000126, 2.358850500000244, 3.0256121000002167]"	11	"[0.31375729999990654, 0.7555563999999322, 0.9735804000001735, 1.1804606000000604, 1.397204899999906, 1.6053460000002815, 1.8053944000002957, 1.9971966000002794, 2.188977100000102, 2.3557049999999435, 3.022390600000108]"	"[0.671876599999905, 0.8720032000001083, 1.0801265000000058, 1.2801481000001331, 1.4885834000001523, 1.7052722000003087, 1.8969145999999455, 2.088643900000079, 2.2802331000002596, 2.4720714000000044, 3.022395299999971]"	148.5124138	148.5176399	150.0118158	150.0228706	NA	NA	NA	NA	NA	NA	NA	30	"02"	"2024-02-21_09h19.18.952"	"BART_exp"	"2023.2.3"	122.118014849308	"2024-02-21 09h19.29.936713 +0100"	NA
"balloon.png"	97	0	24	24	22	150.0228706	NA	NA	NA	NA	NA	NA	NA	NA	NA	NA	NA	NA	150.0121476	150.0228706	150.0228706	150.0228706	150.0228706	150.0228706	0.00128989999984696	0.00128989999984696	0.00128989999984696	150.0228706	153.1448383	12	0.6	FALSE	"[0.011111111111111112, 0.011111111111111112, 0.011111111111111112, 0.011111111111111112, 0.011111111111111112, 0.011111111111111112, 0.011111111111111112, 0.011111111111111112, 0.011111111111111112, 0.011111111111111112, 0.011111111111111112, 0.011111111111111112, 0.011111111111111112]"	"[-0.39166666666666666, -0.39166666666666666, -0.39166666666666666, -0.39166666666666666, -0.39166666666666666, -0.39166666666666666, -0.39166666666666666, -0.39166666666666666, -0.39166666666666666, -0.39166666666666666, -0.39166666666666666, -0.39166666666666666, -0.39166666666666666]"	"[1, 1, 1, 1, 1, 1, 1, 1, 1, 1, 1, 1, 0]"	"[0, 0, 0, 0, 0, 0, 0, 0, 0, 0, 0, 0, 0]"	"[0, 0, 0, 0, 0, 0, 0, 0, 0, 0, 0, 0, 1]"	"[0.2979864999997517, 0.547967399999834, 0.7648552000000564, 0.9981929999999011, 1.1981689999997798, 1.4148408999999447, 1.6148588000000927, 1.8066137999999228, 1.989955099999861, 2.1815441999997347, 2.406644099999994, 2.7065434000001005, 3.1315331000000697]"	13	"[0.2924070999997639, 0.5423883999997088, 0.7593090999998822, 0.9926231999997981, 1.1925882000000456, 1.4092243999998573, 1.60925670000006, 1.8009984999998778, 1.984355300000061, 2.175932399999965, 2.401039800000035, 2.7009312000000136, 3.1258601999998064]"	"[0.4339205999999649, 0.6422996000001149, 0.8756026999999449, 1.0757418999996844, 1.292228199999954, 1.4840269000001172, 1.7256868999998005, 1.917377199999919, 2.100699099999929, 2.2923516000000745, 2.5174527999997736, 2.808992599999783, 3.1258646999999655]"	153.1458637	153.1512694	154.6436089	154.6529461	NA	NA	NA	NA	NA	NA	NA	30	"02"	"2024-02-21_09h19.18.952"	"BART_exp"	"2023.2.3"	122.118014849308	"2024-02-21 09h19.29.936713 +0100"	NA
"balloon.png"	40	0	25	25	9	154.6529461	NA	NA	NA	NA	NA	NA	NA	NA	NA	NA	NA	NA	154.6438314	154.6529461	154.6529461	154.6529461	154.6529461	154.6529461	-0.00055590000010852	-0.00055590000010852	-0.00055590000010852	154.6529461	158.1788372	12	0.6	FALSE	"[0.011111111111111112, 0.011111111111111112, 0.011111111111111112, 0.011111111111111112, 0.011111111111111112, 0.011111111111111112, 0.011111111111111112, 0.011111111111111112, 0.011111111111111112, 0.011111111111111112, 0.011111111111111112, 0.011111111111111112, 0.011111111111111112]"	"[-0.39166666666666666, -0.39166666666666666, -0.39166666666666666, -0.39166666666666666, -0.39166666666666666, -0.39166666666666666, -0.39166666666666666, -0.39166666666666666, -0.39166666666666666, -0.39166666666666666, -0.39166666666666666, -0.39166666666666666, -0.39166666666666666]"	"[1, 1, 1, 1, 1, 1, 1, 1, 1, 1, 1, 1, 0]"	"[0, 0, 0, 0, 0, 0, 0, 0, 0, 0, 0, 0, 0]"	"[0, 0, 0, 0, 0, 0, 0, 0, 0, 0, 0, 0, 1]"	"[0.03350739999996222, 0.2917757000000165, 0.5167295999999624, 0.7502423000000817, 0.9835883999999169, 1.2253832999999759, 1.4500546999997823, 1.650072800000089, 1.8500927000000047, 2.133654799999931, 2.5836942999999337, 3.050174099999822, 3.5339162000000215]"	13	"[0.02965009999979884, 0.2879143000000113, 0.5128704999997353, 0.746393999999782, 0.979733899999701, 1.2215510000000904, 1.4461906000001363, 1.6462201999997887, 1.846239500000138, 2.129794099999799, 2.57983269999977, 3.046307699999943, 3.530002500000137]"	"[0.1877983999997923, 0.42112049999968804, 0.6375850999997965, 0.8628727000000254, 1.0712819000000309, 1.2879131999998208, 1.5128144999998767, 1.746189399999821, 1.9461774000001242, 2.2461687999998503, 2.7217814000000544, 3.188405099999727, 3.5300068999999894]"	158.1797192	158.1850959	159.6772427	159.6928201	NA	NA	NA	NA	NA	NA	NA	30	"02"	"2024-02-21_09h19.18.952"	"BART_exp"	"2023.2.3"	122.118014849308	"2024-02-21 09h19.29.936713 +0100"	NA
"balloon.png"	31	0	26	26	7	159.6928201	NA	NA	NA	NA	NA	NA	NA	NA	NA	NA	NA	NA	159.677457	159.6928201	159.6928201	159.6928201	159.6928201	159.6928201	-0.00074690000019472	-0.00074690000019472	-0.00074690000019472	159.6928201	161.736981	8	0.4	FALSE	"[0.011111111111111112, 0.011111111111111112, 0.011111111111111112, 0.011111111111111112, 0.011111111111111112, 0.011111111111111112, 0.011111111111111112, 0.011111111111111112, 0.011111111111111112]"	"[-0.39166666666666666, -0.39166666666666666, -0.39166666666666666, -0.39166666666666666, -0.39166666666666666, -0.39166666666666666, -0.39166666666666666, -0.39166666666666666, -0.39166666666666666]"	"[1, 1, 1, 1, 1, 1, 1, 1, 0]"	"[0, 0, 0, 0, 0, 0, 0, 0, 0]"	"[0, 0, 0, 0, 0, 0, 0, 0, 1]"	"[0.266733099999783, 0.4918150999997124, 0.7085434999999052, 0.9585754999998244, 1.1667873999999756, 1.39190249999956, 1.6084001999997781, 1.8083942999996907, 2.0584460999998555]"	9	"[0.25654420000000755, 0.48162060000004203, 0.6983469000001605, 0.9483629999999721, 1.1565917000002628, 1.3816854000001513, 1.598188299999947, 1.7981801000000814, 2.048203100000137]"	"[0.39805010000009133, 0.6065487000000758, 0.8231519000000844, 1.0231504000003042, 1.256549200000336, 1.4814156000002185, 1.6981156000001647, 1.9233177999999498, 2.0482078]"	161.7377838	161.743554	163.2359167	163.253294	NA	NA	NA	NA	NA	NA	NA	30	"02"	"2024-02-21_09h19.18.952"	"BART_exp"	"2023.2.3"	122.118014849308	"2024-02-21 09h19.29.936713 +0100"	NA
"balloon.png"	53	0	27	27	12	163.253294	NA	NA	NA	NA	NA	NA	NA	NA	NA	NA	NA	NA	163.2361302	163.253294	163.253294	163.253294	163.253294	163.253294	-3.22000000778644e-05	-3.22000000778644e-05	-3.22000000778644e-05	163.253294	168.5297164	13	0.65	FALSE	"[0.011111111111111112, 0.011111111111111112, 0.011111111111111112, 0.011111111111111112, 0.011111111111111112, 0.011111111111111112, 0.011111111111111112, 0.011111111111111112, 0.011111111111111112, 0.011111111111111112, 0.011111111111111112, 0.011111111111111112, 0.011111111111111112]"	"[-0.39166666666666666, -0.39166666666666666, -0.39166666666666666, -0.39166666666666666, -0.39166666666666666, -0.39166666666666666, -0.39166666666666666, -0.39166666666666666, -0.39166666666666666, -0.39166666666666666, -0.39166666666666666, -0.39166666666666666, -0.39166666666666666]"	"[1, 1, 1, 1, 1, 1, 1, 1, 1, 1, 1, 1, 0]"	"[0, 0, 0, 0, 0, 0, 0, 0, 0, 0, 0, 0, 0]"	"[0, 0, 0, 0, 0, 0, 0, 0, 0, 0, 0, 0, 1]"	"[0.3253330000002279, 0.5586121000001185, 0.8751409000001331, 1.1335557000002154, 1.4752562000003309, 1.7920567000001029, 2.1336497000002055, 2.508615600000212, 2.959094499999992, 3.433477800000219, 4.700214899999992, 4.8753169999999955, 5.292003000000022]"	13	"[0.3134875999999167, 0.5467717999999877, 0.8632708000000093, 1.1217024000002311, 1.4633908999999221, 1.7802471999998488, 2.1217805000001135, 2.4967467999999826, 2.94725120000021, 3.421609200000148, 4.688359199999923, 4.8635057000001325, 5.2800968999999895]"	"[0.4297756000000845, 0.6631616999998187, 0.9880695000001651, 1.2798729000001003, 1.6298815000000104, 1.9215659000001324, 2.2547945000001164, 2.6381360000000313, 3.080269099999896, 3.554862200000116, 4.763506899999811, 4.971623299999919, 5.280101299999842]"	168.5310294	168.5356729	170.0294823	170.0429149	NA	NA	NA	NA	NA	NA	NA	30	"02"	"2024-02-21_09h19.18.952"	"BART_exp"	"2023.2.3"	122.118014849308	"2024-02-21 09h19.29.936713 +0100"	NA
"balloon.png"	44	0	28	28	10	170.0429149	NA	NA	NA	NA	NA	NA	NA	NA	NA	NA	NA	NA	170.0297534	170.0429149	170.0429149	170.0429149	170.0429149	170.0429149	0.0012843000004068	0.0012843000004068	0.0012843000004068	170.0429149	176.2551993	20	1	FALSE	"[0.011111111111111112, 0.011111111111111112, 0.011111111111111112, 0.011111111111111112, 0.011111111111111112, 0.011111111111111112, 0.011111111111111112, 0.011111111111111112, 0.011111111111111112, 0.011111111111111112, 0.011111111111111112, 0.011111111111111112, 0.011111111111111112, 0.011111111111111112, 0.011111111111111112, 0.011111111111111112, 0.011111111111111112, 0.011111111111111112, 0.011111111111111112, 0.011111111111111112, 0.011111111111111112]"	"[-0.39166666666666666, -0.39166666666666666, -0.39166666666666666, -0.39166666666666666, -0.39166666666666666, -0.39166666666666666, -0.39166666666666666, -0.39166666666666666, -0.39166666666666666, -0.39166666666666666, -0.39166666666666666, -0.39166666666666666, -0.39166666666666666, -0.39166666666666666, -0.39166666666666666, -0.39166666666666666, -0.39166666666666666, -0.39166666666666666, -0.39166666666666666, -0.39166666666666666, -0.39166666666666666]"	"[1, 1, 1, 1, 1, 1, 1, 1, 1, 1, 1, 1, 1, 1, 1, 1, 1, 1, 1, 1, 0]"	"[0, 0, 0, 0, 0, 0, 0, 0, 0, 0, 0, 0, 0, 0, 0, 0, 0, 0, 0, 0, 0]"	"[0, 0, 0, 0, 0, 0, 0, 0, 0, 0, 0, 0, 0, 0, 0, 0, 0, 0, 0, 0, 1]"	"[0.3233635999999933, 0.6314397999999528, 0.881501599999865, 1.1234995999998318, 1.3649869000000763, 1.606768000000102, 1.848234600000069, 2.089999700000135, 2.3402694999999767, 2.5985218000000714, 2.806943399999909, 3.006937099999959, 3.2159692999998697, 3.5154520999999477, 3.7152330999997503, 3.9153603999998268, 4.123745500000041, 4.798673599999802, 5.30715999999984, 5.806801299999734, 6.223925599999802]"	21	"[0.31558689999974376, 0.6236563999996179, 0.8737014999996973, 1.1157454999997753, 1.3571955999996135, 1.598977499999819, 1.8404364999996687, 2.082207799999651, 2.3325098000000253, 2.5907234999999673, 2.7991846999998415, 2.999169400000028, 3.2083880000000136, 3.5076874999999745, 3.707462399999713, 3.907587499999863, 4.115973099999792, 4.790879799999857, 5.29936699999962, 5.799005899999884, 6.21607879999965]"	"[0.4819718999997349, 0.7319663999996919, 0.9902088999997432, 1.2402231999999458, 1.473602000000028, 1.7069841999996243, 1.9569830999998885, 2.2070856999998796, 2.4654742999996415, 2.66737189999958, 2.907088699999804, 3.1322031999998217, 3.357199199999741, 3.6155656999999337, 3.815615699999853, 4.032272899999953, 4.248939799999789, 4.949119999999766, 5.4493398999998135, 5.923969099999795, 6.216084099999989]"	176.2562834	176.2612271	177.7534653	177.7634011	NA	NA	NA	NA	NA	NA	NA	30	"02"	"2024-02-21_09h19.18.952"	"BART_exp"	"2023.2.3"	122.118014849308	"2024-02-21 09h19.29.936713 +0100"	NA
"balloon.png"	75	0	29	29	17	177.7634011	NA	NA	NA	NA	NA	NA	NA	NA	NA	NA	NA	NA	177.7536934	177.7634011	177.7634011	177.7634011	177.7634011	177.7634011	-0.00024099999973259	-0.00024099999973259	-0.00024099999973259	177.7634011	180.5134899	11	0.55	FALSE	"[0.011111111111111112, 0.011111111111111112, 0.011111111111111112, 0.011111111111111112, 0.011111111111111112, 0.011111111111111112, 0.011111111111111112, 0.011111111111111112, 0.011111111111111112, 0.011111111111111112, 0.011111111111111112, 0.011111111111111112]"	"[-0.39166666666666666, -0.39166666666666666, -0.39166666666666666, -0.39166666666666666, -0.39166666666666666, -0.39166666666666666, -0.39166666666666666, -0.39166666666666666, -0.39166666666666666, -0.39166666666666666, -0.39166666666666666, -0.39166666666666666]"	"[1, 1, 1, 1, 1, 1, 1, 1, 1, 1, 1, 0]"	"[0, 0, 0, 0, 0, 0, 0, 0, 0, 0, 0, 0]"	"[0, 0, 0, 0, 0, 0, 0, 0, 0, 0, 0, 1]"	"[0.28340269999989687, 0.4918241999998827, 0.7169416000001547, 0.9500577999997404, 1.168261799999982, 1.3500911999999516, 1.5435664000001452, 1.7251995000001443, 1.9334665000001223, 2.1419566999998096, 2.350188899999921, 2.7587094000000434]"	12	"[0.2789588000000549, 0.48736139999982697, 0.7127195999996729, 0.94559849999996, 1.1638186999998652, 1.3456317000000126, 1.53923739999982, 1.7207399999997506, 1.9290145999998458, 2.1374941999997645, 2.345729599999686, 2.754188399999748]"	"[0.4182037999999011, 0.6454829999997855, 0.845495199999732, 1.04628509999975, 1.2373038000000633, 1.4372659999999087, 1.6389733000000888, 1.8289550999998028, 2.0122404999997343, 2.2040987999998833, 2.454099000000042, 2.7541928999999072]"	180.5143827	180.5198761	182.0121434	182.0202133	NA	NA	NA	NA	NA	NA	NA	30	"02"	"2024-02-21_09h19.18.952"	"BART_exp"	"2023.2.3"	122.118014849308	"2024-02-21 09h19.29.936713 +0100"	NA
NA	NA	NA	NA	NA	NA	NA	NA	NA	NA	NA	NA	NA	NA	NA	NA	NA	NA	NA	NA	NA	NA	NA	NA	NA	NA	NA	NA	NA	NA	NA	NA	NA	NA	NA	NA	NA	NA	NA	NA	NA	NA	NA	NA	NA	NA	182.0121838	182.0202133	182.0202133	196.1302082	"space"	14.1093802	"None"	30	"02"	"2024-02-21_09h19.18.952"	"BART_exp"	"2023.2.3"	122.118014849308	"2024-02-21 09h19.29.936713 +0100"	NA
