diceImage	d_number	dice_loop.thisRepN	dice_loop.thisTrialN	dice_loop.thisN	dice_loop.thisIndex	thisRow.t	notes	Start.started	text_start.started	continue_start.started	mouse_start.started	Start.stopped	mouse_start.x	mouse_start.y	mouse_start.leftButton	mouse_start.midButton	mouse_start.rightButton	mouse_start.time	trial.started	box_dice.started	text_dice_header.started	text_gain.started	value_gain.started	text_bank.started	value_bank.started	img_dice_1.started	img_dice_2.started	img_dice_3.started	img_dice_4.started	img_dice_5.started	img_dice_6.started	img_dice_1_2.started	img_dice_3_4.started	img_dice_5_6.started	img_dice_1_2_3.started	img_dice_4_5_6.started	img_dice_1_2_3_4.started	img_dice_2_3_4_5.started	img_dice_3_4_5_6.started	text_value_header.started	text_value_1000.started	text_value_500.started	text_value_200.started	text_value_100.started	mouse_task.started	loss_sound.started	img_dice_throw_trials.started	img_dice_throw_trials.stopped	trial.stopped	mouse_task.x	mouse_task.y	mouse_task.leftButton	mouse_task.midButton	mouse_task.rightButton	mouse_task.time	choice	gain	gain_sound.started	gain_sound.stopped	End.started	text_end.started	key_end.started	End.stopped	key_end.keys	key_end.rt	key_end.duration	participant	session	date	expName	psychopyVersion	frameRate	expStart	
								0.0430527999997139	0.04826599999796599	0.04826599999796599	0.04340510000474751	76.55921779992059	[0.7601851851851852]	[-0.39444444444444443]	[1]	[0]	[0]	[76.51511259994004]																																																	36	01	2024-02-28_15h30.59.858	GDT_exp	2023.2.3	None	2024-02-28 15h31.11.301617 +0100	
dice_6.png	6	0	0	0	5	76.63599109998904													76.56707069999538	76.63599109998904	76.63599109998904	76.63599109998904	76.63599109998904	76.63599109998904	76.63599109998904	76.63599109998904	76.63599109998904	76.63599109998904	76.63599109998904	76.63599109998904	76.63599109998904	76.63599109998904	76.63599109998904	76.63599109998904	76.63599109998904	76.63599109998904	76.63599109998904	76.63599109998904	76.63599109998904	76.63599109998904	76.63599109998904	76.63599109998904	76.63599109998904	76.63599109998904	0.02549659996293485	2.3854687999701127	79.00312009989284	80.56321779999416	80.53134149999823	"[-0.29074074074074074, -0.2833333333333333]"	"[-0.3388888888888889, -0.2898148148148148]"	"[1, 0]"	"[0, 0]"	"[0, 1]"	"[1.5958300000056624, 2.3286761000053957]"	4	-100										36	01	2024-02-28_15h30.59.858	GDT_exp	2023.2.3	None	2024-02-28 15h31.11.301617 +0100	
dice_2.png	2	0	1	1	1	80.56321779999416													80.53213949990459	80.56321779999416	80.56321779999416	80.56321779999416	80.56321779999416	80.56321779999416	80.56321779999416	80.56321779999416	80.56321779999416	80.56321779999416	80.56321779999416	80.56321779999416	80.56321779999416	80.56321779999416	80.56321779999416	80.56321779999416	80.56321779999416	80.56321779999416	80.56321779999416	80.56321779999416	80.56321779999416	80.56321779999416	80.56321779999416	80.56321779999416	80.56321779999416	80.56321779999416	0.011915900046005845		81.10491279989947	82.64831129997037	82.61938659998123	"[-0.2833333333333333, -0.2833333333333333]"	"[-0.34074074074074073, -0.34074074074074073]"	"[1, 0]"	"[0, 0]"	"[0, 1]"	"[0.04965020006056875, 0.5059089000569656]"	4	100	0.5179849000414833	2.0293258000165224								36	01	2024-02-28_15h30.59.858	GDT_exp	2023.2.3	None	2024-02-28 15h31.11.301617 +0100	
dice_1.png	1	0	2	2	0	82.64831129997037													82.61999949999154	82.64831129997037	82.64831129997037	82.64831129997037	82.64831129997037	82.64831129997037	82.64831129997037	82.64831129997037	82.64831129997037	82.64831129997037	82.64831129997037	82.64831129997037	82.64831129997037	82.64831129997037	82.64831129997037	82.64831129997037	82.64831129997037	82.64831129997037	82.64831129997037	82.64831129997037	82.64831129997037	82.64831129997037	82.64831129997037	82.64831129997037	82.64831129997037	82.64831129997037	0.009622300043702126	0.8546388000249863	83.53172029997222	85.06796489993576	85.04010689991992	"[-0.2824074074074074, -0.2824074074074074, -0.2824074074074074]"	"[-0.33611111111111114, -0.33611111111111114, -0.33611111111111114]"	"[1, 0, 1]"	"[0, 0, 0]"	"[0, 1, 0]"	"[0.3746585000772029, 0.8449584000045434, 1.963634500047192]"	4	-100										36	01	2024-02-28_15h30.59.858	GDT_exp	2023.2.3	None	2024-02-28 15h31.11.301617 +0100	
dice_4.png	4	0	3	3	3	85.06796489993576													85.04069539997727	85.06796489993576	85.06796489993576	85.06796489993576	85.06796489993576	85.06796489993576	85.06796489993576	85.06796489993576	85.06796489993576	85.06796489993576	85.06796489993576	85.06796489993576	85.06796489993576	85.06796489993576	85.06796489993576	85.06796489993576	85.06796489993576	85.06796489993576	85.06796489993576	85.06796489993576	85.06796489993576	85.06796489993576	85.06796489993576	85.06796489993576	85.06796489993576	85.06796489993576	0.008773899986408651		86.08913439989556	87.64592469995841	87.61788749997504	"[-0.2824074074074074, -0.2824074074074074]"	"[-0.33611111111111114, -0.33611111111111114]"	"[1, 0]"	"[0, 0]"	"[0, 1]"	"[0.38799129996914417, 0.9840198999736458]"	4	100	0.9923477000556886	2.49884400004521								36	01	2024-02-28_15h30.59.858	GDT_exp	2023.2.3	None	2024-02-28 15h31.11.301617 +0100	
dice_5.png	5	0	4	4	4	87.64592469995841													87.61840589996427	87.64592469995841	87.64592469995841	87.64592469995841	87.64592469995841	87.64592469995841	87.64592469995841	87.64592469995841	87.64592469995841	87.64592469995841	87.64592469995841	87.64592469995841	87.64592469995841	87.64592469995841	87.64592469995841	87.64592469995841	87.64592469995841	87.64592469995841	87.64592469995841	87.64592469995841	87.64592469995841	87.64592469995841	87.64592469995841	87.64592469995841	87.64592469995841	87.64592469995841	0.008857900043949485	1.3763614000054076	89.05185309995431	90.61275069997646	90.57721539994236	"[-0.4212962962962963, -0.42407407407407405]"	"[-0.2462962962962963, -0.2462962962962963]"	"[1, 0]"	"[0, 0]"	"[0, 1]"	"[0.7824546999763697, 1.367324999999255]"	3	-200										36	01	2024-02-28_15h30.59.858	GDT_exp	2023.2.3	None	2024-02-28 15h31.11.301617 +0100	
dice_3.png	3	0	5	5	2	90.61275069997646													90.5777919999091	90.61275069997646	90.61275069997646	90.61275069997646	90.61275069997646	90.61275069997646	90.61275069997646	90.61275069997646	90.61275069997646	90.61275069997646	90.61275069997646	90.61275069997646	90.61275069997646	90.61275069997646	90.61275069997646	90.61275069997646	90.61275069997646	90.61275069997646	90.61275069997646	90.61275069997646	90.61275069997646	90.61275069997646	90.61275069997646	90.61275069997646	90.61275069997646	90.61275069997646	0.013542999979108572		91.4461623999523	93.0005512998905	92.97054639994167	"[-0.41944444444444445, -0.41944444444444445]"	"[-0.24537037037037038, -0.24537037037037038]"	"[1, 0]"	"[0, 0]"	"[0, 1]"	"[0.19474439998157322, 0.794246600009501]"	3	200	0.8080075000179932	2.311090899980627								36	01	2024-02-28_15h30.59.858	GDT_exp	2023.2.3	None	2024-02-28 15h31.11.301617 +0100	
dice_6.png	6	1	0	6	5	93.0005512998905													92.97119129996281	93.0005512998905	93.0005512998905	93.0005512998905	93.0005512998905	93.0005512998905	93.0005512998905	93.0005512998905	93.0005512998905	93.0005512998905	93.0005512998905	93.0005512998905	93.0005512998905	93.0005512998905	93.0005512998905	93.0005512998905	93.0005512998905	93.0005512998905	93.0005512998905	93.0005512998905	93.0005512998905	93.0005512998905	93.0005512998905	93.0005512998905	93.0005512998905	93.0005512998905	0.010077299899421632	1.2239514999091625	94.25360389996786	95.82587029994465	95.7886945999926	"[-0.41944444444444445, -0.41944444444444445]"	"[-0.24537037037037038, -0.24537037037037038]"	"[1, 0]"	"[0, 0]"	"[0, 1]"	"[0.886490699951537, 1.2136824999470264]"	3	-200										36	01	2024-02-28_15h30.59.858	GDT_exp	2023.2.3	None	2024-02-28 15h31.11.301617 +0100	
dice_5.png	5	1	1	7	4	95.82587029994465													95.78926519991364	95.82587029994465	95.82587029994465	95.82587029994465	95.82587029994465	95.82587029994465	95.82587029994465	95.82587029994465	95.82587029994465	95.82587029994465	95.82587029994465	95.82587029994465	95.82587029994465	95.82587029994465	95.82587029994465	95.82587029994465	95.82587029994465	95.82587029994465	95.82587029994465	95.82587029994465	95.82587029994465	95.82587029994465	95.82587029994465	95.82587029994465	95.82587029994465	95.82587029994465	0.015139700029976666	0.8842106000520289	96.73613699991256	98.28509519994259	98.25073409988545	"[-0.275, -0.2777777777777778]"	"[-0.15648148148148147, -0.1574074074074074]"	"[1, 0]"	"[0, 0]"	"[0, 1]"	"[0.39719069993589073, 0.8687730999663472]"	2	-500										36	01	2024-02-28_15h30.59.858	GDT_exp	2023.2.3	None	2024-02-28 15h31.11.301617 +0100	
dice_1.png	1	1	2	8	0	98.28509519994259													98.25132589996792	98.28509519994259	98.28509519994259	98.28509519994259	98.28509519994259	98.28509519994259	98.28509519994259	98.28509519994259	98.28509519994259	98.28509519994259	98.28509519994259	98.28509519994259	98.28509519994259	98.28509519994259	98.28509519994259	98.28509519994259	98.28509519994259	98.28509519994259	98.28509519994259	98.28509519994259	98.28509519994259	98.28509519994259	98.28509519994259	98.28509519994259	98.28509519994259	98.28509519994259	0.013063699938356876	0.5995449000038207	98.91002939990722	100.47419999993872	100.43931449996307	"[-0.27314814814814814, -0.2740740740740741]"	"[-0.15555555555555556, -0.15555555555555556]"	"[1, 0]"	"[0, 0]"	"[0, 1]"	"[0.11630380002316087, 0.5864789000479504]"	2	-500										36	01	2024-02-28_15h30.59.858	GDT_exp	2023.2.3	None	2024-02-28 15h31.11.301617 +0100	
dice_3.png	3	1	3	9	2	100.47419999993872													100.43988199997693	100.47419999993872	100.47419999993872	100.47419999993872	100.47419999993872	100.47419999993872	100.47419999993872	100.47419999993872	100.47419999993872	100.47419999993872	100.47419999993872	100.47419999993872	100.47419999993872	100.47419999993872	100.47419999993872	100.47419999993872	100.47419999993872	100.47419999993872	100.47419999993872	100.47419999993872	100.47419999993872	100.47419999993872	100.47419999993872	100.47419999993872	100.47419999993872	100.47419999993872	0.01503959996625781		101.45836329995655	103.00205109990202	102.97045099991374	"[-0.2740740740740741, -0.2740740740740741]"	"[-0.15555555555555556, -0.15555555555555556]"	"[1, 0]"	"[0, 0]"	"[0, 1]"	"[0.4734879999887198, 0.9444987999740988]"	2	500	0.9597464998951182	2.4733761999523267								36	01	2024-02-28_15h30.59.858	GDT_exp	2023.2.3	None	2024-02-28 15h31.11.301617 +0100	
dice_2.png	2	1	4	10	1	103.00205109990202													102.9709858999122	103.00205109990202	103.00205109990202	103.00205109990202	103.00205109990202	103.00205109990202	103.00205109990202	103.00205109990202	103.00205109990202	103.00205109990202	103.00205109990202	103.00205109990202	103.00205109990202	103.00205109990202	103.00205109990202	103.00205109990202	103.00205109990202	103.00205109990202	103.00205109990202	103.00205109990202	103.00205109990202	103.00205109990202	103.00205109990202	103.00205109990202	103.00205109990202	103.00205109990202	0.011239300016313791	1.9475809999275953	104.97574699996039	106.53063999989536	106.50030109996442	"[-0.18888888888888888, 0.12222222222222222, 0.12222222222222222]"	"[-0.35185185185185186, -0.3351851851851852, -0.3351851851851852]"	"[1, 1, 0]"	"[0, 0, 0]"	"[0, 0, 1]"	"[0.619655599934049, 1.4937346000224352, 1.9361650999635458]"	4	-100										36	01	2024-02-28_15h30.59.858	GDT_exp	2023.2.3	None	2024-02-28 15h31.11.301617 +0100	
dice_4.png	4	1	5	11	3	106.53063999989536													106.50088319997303	106.53063999989536	106.53063999989536	106.53063999989536	106.53063999989536	106.53063999989536	106.53063999989536	106.53063999989536	106.53063999989536	106.53063999989536	106.53063999989536	106.53063999989536	106.53063999989536	106.53063999989536	106.53063999989536	106.53063999989536	106.53063999989536	106.53063999989536	106.53063999989536	106.53063999989536	106.53063999989536	106.53063999989536	106.53063999989536	106.53063999989536	106.53063999989536	106.53063999989536	0.010076800012029707		107.33276209991891	108.89554229995701	108.86459809995722	"[-0.5574074074074075, -0.5574074074074075]"	"[-0.34444444444444444, -0.34444444444444444]"	"[1, 0]"	"[0, 0]"	"[0, 1]"	"[0.16407769999932498, 0.7631276999600232]"	4	100	0.7734590999316424	2.2730549999978393								36	01	2024-02-28_15h30.59.858	GDT_exp	2023.2.3	None	2024-02-28 15h31.11.301617 +0100	
dice_1.png	1	2	0	12	0	108.89554229995701													108.86523999995552	108.89554229995701	108.89554229995701	108.89554229995701	108.89554229995701	108.89554229995701	108.89554229995701	108.89554229995701	108.89554229995701	108.89554229995701	108.89554229995701	108.89554229995701	108.89554229995701	108.89554229995701	108.89554229995701	108.89554229995701	108.89554229995701	108.89554229995701	108.89554229995701	108.89554229995701	108.89554229995701	108.89554229995701	108.89554229995701	108.89554229995701	108.89554229995701	108.89554229995701	0.010982800042256713	0.7957580999936908	109.72224259993527	111.256962299929	111.22740059997886	"[-0.2916666666666667, -0.2898148148148148]"	"[-0.36666666666666664, -0.36666666666666664]"	"[1, 0]"	"[0, 0]"	"[0, 1]"	"[0.2093977000331506, 0.7848557999823242]"	4	-100										36	01	2024-02-28_15h30.59.858	GDT_exp	2023.2.3	None	2024-02-28 15h31.11.301617 +0100	
dice_5.png	5	2	1	13	4	111.256962299929													111.22795999993104	111.256962299929	111.256962299929	111.256962299929	111.256962299929	111.256962299929	111.256962299929	111.256962299929	111.256962299929	111.256962299929	111.256962299929	111.256962299929	111.256962299929	111.256962299929	111.256962299929	111.256962299929	111.256962299929	111.256962299929	111.256962299929	111.256962299929	111.256962299929	111.256962299929	111.256962299929	111.256962299929	111.256962299929	111.256962299929	0.00985420006327331		113.2419915999053	114.7851838999195	114.75180699990597	"[-0.12407407407407407, -0.12407407407407407]"	"[-0.25, -0.25]"	"[1, 0]"	"[0, 0]"	"[0, 1]"	"[1.2429053999949247, 1.9473625000100583]"	3	200	1.957292600069195	3.4708470000186935								36	01	2024-02-28_15h30.59.858	GDT_exp	2023.2.3	None	2024-02-28 15h31.11.301617 +0100	
dice_2.png	2	2	2	14	1	114.7851838999195													114.75238699989859	114.7851838999195	114.7851838999195	114.7851838999195	114.7851838999195	114.7851838999195	114.7851838999195	114.7851838999195	114.7851838999195	114.7851838999195	114.7851838999195	114.7851838999195	114.7851838999195	114.7851838999195	114.7851838999195	114.7851838999195	114.7851838999195	114.7851838999195	114.7851838999195	114.7851838999195	114.7851838999195	114.7851838999195	114.7851838999195	114.7851838999195	114.7851838999195	114.7851838999195	0.013575199991464615	2.4837501000147313	117.29456189996563	118.84892029990442	118.81811939994805	"[0.07777777777777778, 0.07777777777777778]"	"[-0.34444444444444444, -0.34444444444444444]"	"[1, 0]"	"[0, 0]"	"[0, 1]"	"[2.0768738000188023, 2.470015300088562]"	4	-100										36	01	2024-02-28_15h30.59.858	GDT_exp	2023.2.3	None	2024-02-28 15h31.11.301617 +0100	
dice_6.png	6	2	3	15	5	118.84892029990442													118.8187326999614	118.84892029990442	118.84892029990442	118.84892029990442	118.84892029990442	118.84892029990442	118.84892029990442	118.84892029990442	118.84892029990442	118.84892029990442	118.84892029990442	118.84892029990442	118.84892029990442	118.84892029990442	118.84892029990442	118.84892029990442	118.84892029990442	118.84892029990442	118.84892029990442	118.84892029990442	118.84892029990442	118.84892029990442	118.84892029990442	118.84892029990442	118.84892029990442	118.84892029990442	0.010249300044961274		119.90798579994589	121.44157419994008	121.41147399996407	"[0.07777777777777778, 0.07777777777777778]"	"[-0.34444444444444444, -0.34444444444444444]"	"[1, 0]"	"[0, 0]"	"[0, 1]"	"[0.2900004000402987, 1.0205047000199556]"	4	100	1.0310199001105502	2.533966700080782								36	01	2024-02-28_15h30.59.858	GDT_exp	2023.2.3	None	2024-02-28 15h31.11.301617 +0100	
dice_4.png	4	2	4	16	3	121.44157419994008													121.4119985998841	121.44157419994008	121.44157419994008	121.44157419994008	121.44157419994008	121.44157419994008	121.44157419994008	121.44157419994008	121.44157419994008	121.44157419994008	121.44157419994008	121.44157419994008	121.44157419994008	121.44157419994008	121.44157419994008	121.44157419994008	121.44157419994008	121.44157419994008	121.44157419994008	121.44157419994008	121.44157419994008	121.44157419994008	121.44157419994008	121.44157419994008	121.44157419994008	121.44157419994008	0.010402600048109889		122.32948939991184	123.89830749994144	123.86053839989472	"[0.07777777777777778, 0.07777777777777778]"	"[-0.34444444444444444, -0.34444444444444444]"	"[1, 0]"	"[0, 0]"	"[0, 1]"	"[0.39478149998467416, 0.8469001000048593]"	4	100	0.8572629999835044	2.366577700013295								36	01	2024-02-28_15h30.59.858	GDT_exp	2023.2.3	None	2024-02-28 15h31.11.301617 +0100	
dice_3.png	3	2	5	17	2	123.89830749994144													123.86110309988726	123.89830749994144	123.89830749994144	123.89830749994144	123.89830749994144	123.89830749994144	123.89830749994144	123.89830749994144	123.89830749994144	123.89830749994144	123.89830749994144	123.89830749994144	123.89830749994144	123.89830749994144	123.89830749994144	123.89830749994144	123.89830749994144	123.89830749994144	123.89830749994144	123.89830749994144	123.89830749994144	123.89830749994144	123.89830749994144	123.89830749994144	123.89830749994144	123.89830749994144	0.016649099998176098		124.6632513999939	126.18617729994003	126.18039739993401	"[0.07777777777777778, 0.07777777777777778]"	"[-0.34444444444444444, -0.34444444444444444]"	"[1, 0]"	"[0, 0]"	"[0, 1]"	"[0.29899520007893443, 0.7285751000745222]"	4	100	0.7452525000553578	2.2653612000867724								36	01	2024-02-28_15h30.59.858	GDT_exp	2023.2.3	None	2024-02-28 15h31.11.301617 +0100	
																																																												126.18086379999295	126.18617729994003	126.18617729994003	136.24607409990858	space	10.058540700003505	None	36	01	2024-02-28_15h30.59.858	GDT_exp	2023.2.3	None	2024-02-28 15h31.11.301617 +0100	
