image	max_pumps	pump_loop.thisRepN	pump_loop.thisTrialN	pump_loop.thisN	pump_loop.thisIndex	thisRow.t	notes	Start.started	text_start.started	continue_start.started	mouse_start.started	Start.stopped	mouse_start.x	mouse_start.y	mouse_start.leftButton	mouse_start.midButton	mouse_start.rightButton	mouse_start.time	trials.started	stim_balloon.started	stim_balloon_burst.started	stim_balloon_burst.stopped	text_ballon_value.started	text_bank.started	mouse.started	sound_bang.started	sound_bang.stopped	button_balloon.started	trials.stopped	n_pumps	earnings	popped	mouse.x	mouse.y	mouse.leftButton	mouse.midButton	mouse.rightButton	mouse.time	button_balloon.numClicks	button_balloon.timesOn	button_balloon.timesOff	Feedback.started	text_feedback.started	Feedback.stopped	text_feedback.stopped	End.started	text_end.started	key_end.started	End.stopped	key_end.keys	key_end.rt	key_end.duration	participant	session	date	expName	psychopyVersion	frameRate	expStart	
								0.03491779999967548	0.04350750000230619	0.04350750000230619	0.03523689999929047	126.68624620000264	[0.7342592592592593]	[-0.4064814814814815]	[1]	[0]	[0]	[126.6504234999993]																																			10	03	2024-02-06_16h24.11.531	BART_exp	2023.2.3	119.9472232213704	2024-02-06 16h24.22.736867 +0100	
balloon.png	101	0	0	0	23	126.76061710000067													126.69246040000144	126.76061710000067	126.76061710000067	126.76061710000067	126.76061710000067	126.76061710000067	0.007959700000355951	0.007959700000355951	0.007959700000355951	126.76061710000067	134.12097540000104	20	1.00	False	"[0.053703703703703705, 0.053703703703703705, 0.053703703703703705, 0.053703703703703705, 0.053703703703703705, 0.053703703703703705, 0.053703703703703705, 0.053703703703703705, 0.053703703703703705, 0.053703703703703705, 0.053703703703703705, 0.053703703703703705, 0.053703703703703705, 0.053703703703703705, 0.053703703703703705, 0.053703703703703705, 0.053703703703703705, 0.053703703703703705, 0.053703703703703705, 0.053703703703703705, 0.053703703703703705]"	"[-0.39166666666666666, -0.39166666666666666, -0.39166666666666666, -0.39166666666666666, -0.39166666666666666, -0.39166666666666666, -0.39166666666666666, -0.39166666666666666, -0.39166666666666666, -0.39166666666666666, -0.39166666666666666, -0.39166666666666666, -0.39166666666666666, -0.39166666666666666, -0.39166666666666666, -0.39166666666666666, -0.39166666666666666, -0.39166666666666666, -0.39166666666666666, -0.39166666666666666, -0.39166666666666666]"	"[1, 1, 1, 1, 1, 1, 1, 1, 1, 1, 1, 1, 1, 1, 1, 1, 1, 1, 1, 1, 0]"	"[0, 0, 0, 0, 0, 0, 0, 0, 0, 0, 0, 0, 0, 0, 0, 0, 0, 0, 0, 0, 0]"	"[0, 0, 0, 0, 0, 0, 0, 0, 0, 0, 0, 0, 0, 0, 0, 0, 0, 0, 0, 0, 1]"	"[1.643855899998016, 1.8440220999982557, 2.077414299998054, 2.3190990000002785, 2.5108896999990975, 2.735769099999743, 2.9524577999982284, 3.144161100000929, 3.377320799998415, 3.643996700000571, 3.9191725999990012, 4.16071010000087, 4.410737800000788, 4.644107599997369, 4.910905099997763, 5.227474399998755, 5.577647199999774, 5.927664700000605, 6.261037399999623, 6.902712200000678, 7.427608199999668]"	21	"[1.5896152999994229, 1.7897742000022845, 2.023166900002252, 2.2648580000022775, 2.4566419000002497, 2.6815177999997104, 2.8982098000014958, 3.089915900000051, 3.323070300000836, 3.589749300001131, 3.8649218999998993, 4.106459300001006, 4.356486299999233, 4.589856300000974, 4.856653999999253, 5.173222100002022, 5.523399800000334, 5.8734175999998115, 6.206797300001199, 6.848470600001747, 7.373294500001066]"	"[1.6978455999997095, 1.8812725000025239, 2.1394996000017272, 2.3577002999991237, 2.564654600002541, 2.77290770000036, 2.9729102999990573, 3.197919800000818, 3.4312754000020504, 3.714598800001113, 3.9729659000004176, 4.206310699999449, 4.439658600000257, 4.681348199999775, 4.964708499999688, 5.273057099999278, 5.606421899999987, 5.973095000001194, 6.28978350000034, 6.948164400000678, 7.373298800001066]"	134.12253369999962	134.13610130000234	135.62789110000085									10	03	2024-02-06_16h24.11.531	BART_exp	2023.2.3	119.9472232213704	2024-02-06 16h24.22.736867 +0100	
balloon.png	44	0	1	1	10	135.6445171000014													135.62807030000113	135.6445171000014	135.6445171000014	135.6445171000014	135.6445171000014	135.6445171000014	0.006798599999456201	0.006798599999456201	0.006798599999456201	135.6445171000014	145.32187120000162	26	1.30	False	"[0.06851851851851852, 0.06851851851851852, 0.06851851851851852, 0.06851851851851852, 0.06851851851851852, 0.06851851851851852, 0.06851851851851852, 0.06851851851851852, 0.06851851851851852, 0.06851851851851852, 0.06851851851851852, 0.06851851851851852, 0.06851851851851852, 0.06851851851851852, 0.06851851851851852, 0.06851851851851852, 0.06851851851851852, 0.06851851851851852, 0.06851851851851852, 0.06851851851851852, 0.06851851851851852, 0.06851851851851852, 0.06851851851851852, 0.06851851851851852, 0.06851851851851852, 0.06851851851851852, 0.06851851851851852]"	"[-0.3685185185185185, -0.3685185185185185, -0.3685185185185185, -0.3685185185185185, -0.3685185185185185, -0.3685185185185185, -0.3685185185185185, -0.3685185185185185, -0.3685185185185185, -0.3685185185185185, -0.3685185185185185, -0.3685185185185185, -0.3685185185185185, -0.3685185185185185, -0.3685185185185185, -0.3685185185185185, -0.3685185185185185, -0.3685185185185185, -0.3685185185185185, -0.3685185185185185, -0.3685185185185185, -0.3685185185185185, -0.3685185185185185, -0.3685185185185185, -0.3685185185185185, -0.3685185185185185, -0.3685185185185185]"	"[1, 1, 1, 1, 1, 1, 1, 1, 1, 1, 1, 1, 1, 1, 1, 1, 1, 1, 1, 1, 1, 1, 1, 1, 1, 1, 0]"	"[0, 0, 0, 0, 0, 0, 0, 0, 0, 0, 0, 0, 0, 0, 0, 0, 0, 0, 0, 0, 0, 0, 0, 0, 0, 0, 0]"	"[0, 0, 0, 0, 0, 0, 0, 0, 0, 0, 0, 0, 0, 0, 0, 0, 0, 0, 0, 0, 0, 0, 0, 0, 0, 0, 1]"	"[0.5589791999991576, 0.7589843999994628, 0.967327700000169, 1.2256211999992956, 1.4755225000008068, 1.7340412999983528, 1.9090442999986408, 2.1340645999989647, 2.367403500000364, 2.5924236999999266, 3.03396789999897, 3.642347900000459, 3.8590762999992876, 4.250741299998481, 4.735633500000404, 5.084145000000717, 5.46749009999985, 5.967653399999108, 6.609238299999561, 7.050907400000142, 7.376132099998358, 7.73445189999984, 8.292767700000695, 8.609350999999151, 8.901213099998131, 9.284534200000053, 9.69288940000115]"	27	"[0.5501716999970085, 0.7501708999989205, 0.9585194999999658, 1.2168122999974003, 1.4667085999972187, 1.7252345999986574, 1.9002292999975907, 2.125259199998254, 2.358599099999992, 2.5836099999978615, 3.025154199996905, 3.633537300000171, 3.850264699998661, 4.241931199998362, 4.726985699999204, 5.075343399999838, 5.458676499998546, 5.958837599999242, 6.600420799997664, 7.042098599999008, 7.3673171999980696, 7.725638699997944, 8.283949099997699, 8.600538299997424, 8.89239809999708, 9.27571689999968, 9.684016999999585]"	"[0.6498991999978898, 0.8415428999978758, 1.0665806999968481, 1.2916071999970882, 1.5750191999977687, 1.783264199999394, 2.0249387999974715, 2.2332885999967402, 2.441635799998039, 2.6833047999971313, 3.1333527999995567, 3.7167592999976478, 3.950135799997952, 4.383436199997959, 4.8084665999995195, 5.175164000000223, 5.558499599999777, 6.058537400000205, 6.708581999999296, 7.142073600000003, 7.466999399999622, 7.825315099998988, 8.383763999998337, 8.700466599999345, 8.992144499999995, 9.383766099999775, 9.684021199998824]"	145.3229449999999	145.32852579999962	146.82048130000112	146.8286184000026								10	03	2024-02-06_16h24.11.531	BART_exp	2023.2.3	119.9472232213704	2024-02-06 16h24.22.736867 +0100	
balloon.png	71	0	2	2	16	146.8286184000026													146.82065460000013	146.8286184000026	146.8286184000026	146.8286184000026	146.8286184000026	146.8286184000026	0.0057344000015291385	0.0057344000015291385	0.0057344000015291385	146.8286184000026	154.5141889000006	23	1.15	False	"[0.06851851851851852, 0.06851851851851852, 0.06851851851851852, 0.06851851851851852, 0.06851851851851852, 0.06851851851851852, 0.06851851851851852, 0.06851851851851852, 0.06851851851851852, 0.06851851851851852, 0.06851851851851852, 0.06851851851851852, 0.06851851851851852, 0.06851851851851852, 0.06851851851851852, 0.06851851851851852, 0.06851851851851852, 0.06851851851851852, 0.06851851851851852, 0.06851851851851852, 0.06851851851851852, 0.06851851851851852, 0.06851851851851852, 0.06851851851851852]"	"[-0.3685185185185185, -0.3685185185185185, -0.3685185185185185, -0.3685185185185185, -0.3685185185185185, -0.3685185185185185, -0.3685185185185185, -0.3685185185185185, -0.3685185185185185, -0.3685185185185185, -0.3685185185185185, -0.3685185185185185, -0.3685185185185185, -0.3685185185185185, -0.3685185185185185, -0.3685185185185185, -0.3685185185185185, -0.3685185185185185, -0.3685185185185185, -0.3685185185185185, -0.3685185185185185, -0.3685185185185185, -0.3685185185185185, -0.3685185185185185]"	"[1, 1, 1, 1, 1, 1, 1, 1, 1, 1, 1, 1, 1, 1, 1, 1, 1, 1, 1, 1, 1, 1, 1, 0]"	"[0, 0, 0, 0, 0, 0, 0, 0, 0, 0, 0, 0, 0, 0, 0, 0, 0, 0, 0, 0, 0, 0, 0, 0]"	"[0, 0, 0, 0, 0, 0, 0, 0, 0, 0, 0, 0, 0, 0, 0, 0, 0, 0, 0, 0, 0, 0, 0, 1]"	"[0.4587573999997403, 0.6921135000011418, 0.908825300000899, 1.1171829999984766, 1.359073299998272, 1.6837341999998898, 1.917267199998605, 2.150607100000343, 2.525696299999254, 2.8506558000008226, 3.159005800000159, 3.467185299999983, 3.8089022999993176, 4.109045900000638, 4.492394900000363, 4.859092300001066, 5.242347100000188, 5.625668299999234, 5.884147699998721, 6.250833400001284, 6.634101399999054, 6.859100199999375, 7.0844145999981265, 7.692612499999086]"	24	"[0.4569378999985929, 0.6902904999988095, 0.9070061999991594, 1.1153587000007974, 1.3572499000001699, 1.681913299998996, 1.915440699998726, 2.148781100000633, 2.523869900000136, 2.848840399998153, 3.1571829999993497, 3.4653547999987495, 3.807077199999185, 4.10721840000042, 4.490569500001584, 4.8572668000015256, 5.240520899998955, 5.6238416000014695, 5.8823202999992645, 6.249010700001236, 6.63227790000019, 6.857281199998397, 7.082590699999855, 7.690729999998439]"	"[0.5650467000014032, 0.8067100000007486, 1.0067267999984324, 1.2234814000003098, 1.4651677000001655, 1.7817990000003192, 2.0151541999985056, 2.281886400000076, 2.665211299998191, 2.956945199999609, 3.298539899999014, 3.6235918999991554, 3.923642199999449, 4.265281700001651, 4.623647199998231, 4.96533350000027, 5.365338200001133, 5.732028599999467, 6.015393999998196, 6.340420000000449, 6.707123100000899, 6.957119200000307, 7.232275099999242, 7.690734200001316]"	154.5152592000013	154.52081510000062	156.0127683000028	156.0209113000019								10	03	2024-02-06_16h24.11.531	BART_exp	2023.2.3	119.9472232213704	2024-02-06 16h24.22.736867 +0100	
balloon.png	84	0	3	3	19	156.0209113000019													156.01295160000154	156.0209113000019	156.0209113000019	156.0209113000019	156.0209113000019	156.0209113000019	0.005711699999665143	0.005711699999665143	0.005711699999665143	156.0209113000019	164.43974610000078	24	1.20	False	"[0.06851851851851852, 0.06851851851851852, 0.06851851851851852, 0.06851851851851852, 0.06851851851851852, 0.06851851851851852, 0.06851851851851852, 0.06851851851851852, 0.06851851851851852, 0.06851851851851852, 0.06851851851851852, 0.06851851851851852, 0.06851851851851852, 0.06851851851851852, 0.06851851851851852, 0.06851851851851852, 0.06851851851851852, 0.06851851851851852, 0.06851851851851852, 0.06851851851851852, 0.06851851851851852, 0.06851851851851852, 0.06851851851851852, 0.06851851851851852, 0.06851851851851852]"	"[-0.3685185185185185, -0.3685185185185185, -0.3685185185185185, -0.3685185185185185, -0.3685185185185185, -0.3685185185185185, -0.3685185185185185, -0.3685185185185185, -0.3685185185185185, -0.3685185185185185, -0.3685185185185185, -0.3685185185185185, -0.3685185185185185, -0.3685185185185185, -0.3685185185185185, -0.3685185185185185, -0.3685185185185185, -0.3685185185185185, -0.3685185185185185, -0.3685185185185185, -0.3685185185185185, -0.3685185185185185, -0.3685185185185185, -0.3685185185185185, -0.3685185185185185]"	"[1, 1, 1, 1, 1, 1, 1, 1, 1, 1, 1, 1, 1, 1, 1, 1, 1, 1, 1, 1, 1, 1, 1, 1, 0]"	"[0, 0, 0, 0, 0, 0, 0, 0, 0, 0, 0, 0, 0, 0, 0, 0, 0, 0, 0, 0, 0, 0, 0, 0, 0]"	"[0, 0, 0, 0, 0, 0, 0, 0, 0, 0, 0, 0, 0, 0, 0, 0, 0, 0, 0, 0, 0, 0, 0, 0, 1]"	"[0.5755065999983344, 0.7921643000008771, 1.0586937999978545, 1.3005539000005228, 1.5505603999990853, 1.8005601999975624, 2.0339303000000655, 2.2922639999997045, 2.508998799999972, 2.983982499998092, 3.4005144000002474, 3.659059099998558, 3.9007673999985855, 4.167412099999638, 4.408924100000149, 4.8422810999982175, 5.0507828000008885, 5.300803999998607, 5.7008299000008265, 6.075853800000914, 6.467419000000518, 7.05076569999801, 7.359295800000837, 7.617512400000123, 8.425904799998534]"	25	"[0.5736495999990439, 0.7903182999980345, 1.0568351000001712, 1.298697499998525, 1.5487031999982719, 1.7987033999997948, 2.032073299997137, 2.290410499997961, 2.5071415999991586, 2.9821226999993087, 3.398651699997572, 3.657202899998083, 3.898912399999972, 4.165555599996878, 4.407070599998406, 4.840417999999772, 5.048926399998891, 5.298945200000162, 5.698971899997559, 6.073993499998323, 6.465557699997589, 7.048905699997704, 7.357436799997231, 7.615654399996856, 8.423989099999744]"	"[0.6650313999998616, 0.8983415000002424, 1.1650558000001183, 1.3900307000003522, 1.6650888999974995, 1.9067564999968454, 2.181805099997291, 2.3901065999998536, 2.8318844999994326, 3.0901616999981343, 3.5235071999995853, 3.773579900000186, 4.031894199997623, 4.273587799998495, 4.540251899998111, 4.906983499997295, 5.1570135000001756, 5.3903632999972615, 5.815354499998648, 6.198699699998542, 6.5737272999976994, 7.157094700000016, 7.4737913999997545, 7.715522599999531, 8.423993399999745]"	164.44086620000235	164.44652250000217	165.93847620000088	165.9549524000031								10	03	2024-02-06_16h24.11.531	BART_exp	2023.2.3	119.9472232213704	2024-02-06 16h24.22.736867 +0100	
balloon.png	123	0	4	4	28	165.9549524000031													165.938652300003	165.9549524000031	165.9549524000031	165.9549524000031	165.9549524000031	165.9549524000031	-0.000947299999097595	-0.000947299999097595	-0.000947299999097595	165.9549524000031	171.3153622000027	15	0.75	False	"[0.06851851851851852, 0.06851851851851852, 0.06851851851851852, 0.06851851851851852, 0.06851851851851852, 0.06851851851851852, 0.06851851851851852, 0.06851851851851852, 0.06851851851851852, 0.06851851851851852, 0.06851851851851852, 0.06851851851851852, 0.06851851851851852, 0.06851851851851852, 0.06851851851851852, 0.06851851851851852]"	"[-0.3685185185185185, -0.3685185185185185, -0.3685185185185185, -0.3685185185185185, -0.3685185185185185, -0.3685185185185185, -0.3685185185185185, -0.3685185185185185, -0.3685185185185185, -0.3685185185185185, -0.3685185185185185, -0.3685185185185185, -0.3685185185185185, -0.3685185185185185, -0.3685185185185185, -0.3685185185185185]"	"[1, 1, 1, 1, 1, 1, 1, 1, 1, 1, 1, 1, 1, 1, 1, 0]"	"[0, 0, 0, 0, 0, 0, 0, 0, 0, 0, 0, 0, 0, 0, 0, 0]"	"[0, 0, 0, 0, 0, 0, 0, 0, 0, 0, 0, 0, 0, 0, 0, 1]"	"[0.4919630000003963, 0.7087191000027815, 0.8919660000028671, 1.1088184000000183, 1.3419897000021592, 1.5255393000006734, 1.8005292000016198, 1.9838786000000255, 2.2005423000009614, 2.4339008999995713, 2.6672484000009717, 3.126059800000803, 3.483832699999766, 4.025682700001198, 4.800740200000291, 5.37576160000026]"	16	"[0.4834222999998019, 0.7001834000002418, 0.8834229000021878, 1.1002910999995947, 1.333442200000718, 1.5169979999991483, 1.7919894000006025, 1.9753406000018003, 2.192000499999267, 2.425360000001092, 2.658707800001139, 3.1175268000006326, 3.475292499999341, 4.017138499999419, 4.792196300000796, 5.367160400001012]"	"[0.5832560999988345, 0.783267300001171, 0.9999411999997392, 1.1917212000007567, 1.3833589000023494, 1.6833383000011963, 1.87509190000128, 2.1000319000013405, 2.3083843999993405, 2.5250430000014603, 2.7584175000010873, 3.2418247000023257, 3.56684580000001, 4.108517500000744, 4.908572299998923, 5.36716449999949]"	171.31624480000028	171.33030309999958	172.8221751000019									10	03	2024-02-06_16h24.11.531	BART_exp	2023.2.3	119.9472232213704	2024-02-06 16h24.22.736867 +0100	
balloon.png	1	0	5	5	0	172.83873940000194													172.82235220000075	172.83873940000194	172.83873940000194	172.83873940000194	172.83873940000194	172.83873940000194	0.007349100000283215	0.007349100000283215	0.007349100000283215	172.83873940000194	173.63381570000274	2	0.05	True	"[0.06851851851851852, 0.06851851851851852]"	"[-0.3685185185185185, -0.3685185185185185]"	"[1, 1]"	"[0, 0]"	"[0, 0]"	"[0.5005582999983744, 0.7339200999995228]"	2	"[0.4957063999972888, 0.729063099999621]"	"[0.5953989999979967, 0.7954584999970393]"	173.63437440000052	173.64716100000078	175.13893740000276									10	03	2024-02-06_16h24.11.531	BART_exp	2023.2.3	119.9472232213704	2024-02-06 16h24.22.736867 +0100	
balloon.png	18	0	6	6	4	175.15555830000085													175.13911400000143	175.15555830000085	175.15555830000085	175.15555830000085	175.15555830000085	175.15555830000085	0.006010499997501029	0.006010499997501029	0.006010499997501029	175.15555830000085	181.82455550000304	19	0.90	True	"[0.06851851851851852, 0.06851851851851852, 0.06851851851851852, 0.06851851851851852, 0.06851851851851852, 0.06851851851851852, 0.06851851851851852, 0.06851851851851852, 0.06851851851851852, 0.06851851851851852, 0.06851851851851852, 0.06851851851851852, 0.06851851851851852, 0.06851851851851852, 0.06851851851851852, 0.06851851851851852, 0.06851851851851852, 0.06851851851851852, 0.06851851851851852]"	"[-0.3685185185185185, -0.3685185185185185, -0.3685185185185185, -0.3685185185185185, -0.3685185185185185, -0.3685185185185185, -0.3685185185185185, -0.3685185185185185, -0.3685185185185185, -0.3685185185185185, -0.3685185185185185, -0.3685185185185185, -0.3685185185185185, -0.3685185185185185, -0.3685185185185185, -0.3685185185185185, -0.3685185185185185, -0.3685185185185185, -0.3685185185185185]"	"[1, 1, 1, 1, 1, 1, 1, 1, 1, 1, 1, 1, 1, 1, 1, 1, 1, 1, 1]"	"[0, 0, 0, 0, 0, 0, 0, 0, 0, 0, 0, 0, 0, 0, 0, 0, 0, 0, 0]"	"[0, 0, 0, 0, 0, 0, 0, 0, 0, 0, 0, 0, 0, 0, 0, 0, 0, 0, 0]"	"[0.5923875000007683, 0.950670700000046, 1.4257273000002897, 1.9255570999994234, 2.3507682000017667, 2.683960300000763, 2.925641000001633, 3.150822800002061, 3.3925120000021707, 3.634186800001771, 4.059072600000945, 4.367645500002254, 4.675766100001056, 5.092464199999085, 5.384333099998912, 5.709227399998781, 6.02602509999997, 6.317670299999008, 6.592720900000131]"	19	"[0.5847143999999389, 0.9429975999992166, 1.4180554000013217, 1.9097222999989754, 2.343095299998822, 2.676282100001117, 2.917965599997842, 3.1431439999978465, 3.3848326000006637, 3.6265137000009418, 4.051393499998085, 4.359967600001255, 4.668084500000987, 5.0847899000000325, 5.376658599998336, 5.70154840000032, 6.018351499998971, 6.309987199998432, 6.585040099998878]"	"[0.7093151999979455, 1.0178102999998373, 1.5510719999983849, 2.0427553999979864, 2.4844555999989097, 2.767813999998907, 3.0262094999998226, 3.267860899999505, 3.501198199999635, 3.792886399998679, 4.192891599999712, 4.501307499998802, 4.801284500001202, 5.209622800000943, 5.526320400000259, 5.834679899999173, 6.143101300000126, 6.434736999999586, 6.668109499998536]"	181.82554970000274	181.83102789999975	183.32299330000023	183.33112320000146								10	03	2024-02-06_16h24.11.531	BART_exp	2023.2.3	119.9472232213704	2024-02-06 16h24.22.736867 +0100	
balloon.png	66	0	7	7	15	183.33112320000146													183.3231704000027	183.33112320000146	183.33112320000146	183.33112320000146	183.33112320000146	183.33112320000146	0.00563250000050175			183.33112320000146	185.841481200001	5	0.25	False	"[0.06851851851851852, 0.06851851851851852, 0.06851851851851852, 0.06851851851851852, 0.06851851851851852, 0.06851851851851852]"	"[-0.3685185185185185, -0.3685185185185185, -0.3685185185185185, -0.3685185185185185, -0.3685185185185185, -0.3685185185185185]"	"[1, 1, 1, 1, 1, 0]"	"[0, 0, 0, 0, 0, 0]"	"[0, 0, 0, 0, 0, 1]"	"[0.3921093999997538, 0.658622999999352, 0.9838842999997723, 1.5922533000011754, 1.9839234999999462, 2.5173833000008017]"	6	"[0.3902348000010534, 0.6567426000001433, 0.9820113999994646, 1.5903748999990057, 1.982041899998876, 2.5154468000000634]"	"[0.4649252000017441, 0.7149817999998049, 1.0819317000023148, 1.7067281999989063, 2.0816861000021163, 2.515451300001587]"	185.84220410000125	185.84796590000042	187.33993980000014	187.35640469999998								10	03	2024-02-06_16h24.11.531	BART_exp	2023.2.3	119.9472232213704	2024-02-06 16h24.22.736867 +0100	
balloon.png	10	0	8	8	2	187.35640469999998													187.34012060000168	187.35640469999998	187.35640469999998	187.35640469999998	187.35640469999998	187.35640469999998	-0.0008425000014540274	-0.0008425000014540274	-0.0008425000014540274	187.35640469999998	191.72510410000177	10	0.50	False	"[0.06851851851851852, 0.06851851851851852, 0.06851851851851852, 0.06851851851851852, 0.06851851851851852, 0.06851851851851852, 0.06851851851851852, 0.06851851851851852, 0.06851851851851852, 0.06851851851851852, 0.06851851851851852]"	"[-0.3685185185185185, -0.3685185185185185, -0.3685185185185185, -0.3685185185185185, -0.3685185185185185, -0.3685185185185185, -0.3685185185185185, -0.3685185185185185, -0.3685185185185185, -0.3685185185185185, -0.3685185185185185]"	"[1, 1, 1, 1, 1, 1, 1, 1, 1, 1, 0]"	"[0, 0, 0, 0, 0, 0, 0, 0, 0, 0, 0]"	"[0, 0, 0, 0, 0, 0, 0, 0, 0, 0, 1]"	"[0.5338770999987901, 0.9254639999999199, 1.225502699999197, 1.4753670999998576, 1.692039300000033, 2.117240200001106, 2.508886200001143, 2.875628300000244, 3.550731100000121, 3.8006749999985914, 4.384077700000489]"	11	"[0.5270573999987391, 0.9186446999992768, 1.218678799999907, 1.4685460000000603, 1.6852212000012514, 2.110413400001562, 2.5020635000000766, 2.8688169999986712, 3.5439079999996466, 3.793852999999217, 4.377196600002208]"	"[0.6350009000016144, 1.026695500000642, 1.335044100000232, 1.5683950999991794, 1.7934911000011198, 2.243440099999134, 2.6184683999999834, 2.985160200001701, 3.6685434999999416, 3.918556799999351, 4.377200700000685]"	191.72585320000144	191.73170089999985	193.22365270000228	193.24012900000162								10	03	2024-02-06_16h24.11.531	BART_exp	2023.2.3	119.9472232213704	2024-02-06 16h24.22.736867 +0100	
balloon.png	36	0	9	9	8	193.24012900000162													193.22384100000272	193.24012900000162	193.24012900000162	193.24012900000162	193.24012900000162	193.24012900000162	-0.0007469000011042226	-0.0007469000011042226	-0.0007469000011042226	193.24012900000162	200.65898700000253	18	0.90	False	"[0.06851851851851852, 0.06851851851851852, 0.06851851851851852, 0.06851851851851852, 0.06851851851851852, 0.06851851851851852, 0.06851851851851852, 0.06851851851851852, 0.06851851851851852, 0.06851851851851852, 0.06851851851851852, 0.06851851851851852, 0.06851851851851852, 0.06851851851851852, 0.06851851851851852, 0.06851851851851852, 0.06851851851851852, 0.06851851851851852, 0.06851851851851852]"	"[-0.3685185185185185, -0.3685185185185185, -0.3685185185185185, -0.3685185185185185, -0.3685185185185185, -0.3685185185185185, -0.3685185185185185, -0.3685185185185185, -0.3685185185185185, -0.3685185185185185, -0.3685185185185185, -0.3685185185185185, -0.3685185185185185, -0.3685185185185185, -0.3685185185185185, -0.3685185185185185, -0.3685185185185185, -0.3685185185185185, -0.3685185185185185]"	"[1, 1, 1, 1, 1, 1, 1, 1, 1, 1, 1, 1, 1, 1, 1, 1, 1, 1, 0]"	"[0, 0, 0, 0, 0, 0, 0, 0, 0, 0, 0, 0, 0, 0, 0, 0, 0, 0, 0]"	"[0, 0, 0, 0, 0, 0, 0, 0, 0, 0, 0, 0, 0, 0, 0, 0, 0, 0, 1]"	"[0.5253487000009045, 0.8754857999992964, 1.1337041000006138, 1.4003991000026872, 1.7503821999998763, 2.183738200001244, 2.500652800001262, 2.7921167999993486, 3.0923509000022023, 3.4423212000001513, 3.800685100002738, 4.317373100002442, 4.6089444999997795, 5.034086800002115, 5.450934700002108, 5.76732610000181, 6.400860800000373, 6.875925300002564, 7.434244500000204]"	19	"[0.5221009000015329, 0.8722318000000087, 1.13045559999955, 1.3971461000001, 1.7471323999998276, 2.180487000001449, 2.4973992000013823, 2.7888673000015842, 3.0890995000008843, 3.4390643000006094, 3.7974358000028587, 4.314125200002309, 4.605695400001423, 5.030833700002404, 5.447685099999944, 5.764069900000322, 6.397609999999986, 6.872670600001584, 7.430933100000402]"	"[0.6219498999998905, 0.988605300000927, 1.2469543000006524, 1.5303558000014164, 1.888671600001544, 2.297016700002132, 2.6053711000022304, 2.9137283000018215, 3.2054084000010334, 3.572117100000469, 3.9054701999993995, 4.438849100002699, 4.705500800002483, 5.163918000002013, 5.5805964000028325, 5.880608700001176, 6.530639399999927, 6.997329000001628, 7.430937299999641]"	200.65989530000297	200.6656464000007	202.15760570000202	202.17413769999985								10	03	2024-02-06_16h24.11.531	BART_exp	2023.2.3	119.9472232213704	2024-02-06 16h24.22.736867 +0100	
balloon.png	127	0	10	10	29	202.17413769999985													202.1577868000022	202.17413769999985	202.17413769999985	202.17413769999985	202.17413769999985	202.17413769999985	-0.0008425999985774979	-0.0008425999985774979	-0.0008425999985774979	202.17413769999985	211.44311290000041	23	1.15	False	"[0.06851851851851852, 0.06851851851851852, 0.06851851851851852, 0.06851851851851852, 0.06851851851851852, 0.06851851851851852, 0.06851851851851852, 0.06851851851851852, 0.06851851851851852, 0.06851851851851852, 0.06851851851851852, 0.06851851851851852, 0.06851851851851852, 0.06851851851851852, 0.06851851851851852, 0.06851851851851852, 0.06851851851851852, 0.06851851851851852, 0.06851851851851852, 0.06851851851851852, 0.06851851851851852, 0.06851851851851852, 0.06851851851851852, 0.06851851851851852]"	"[-0.3685185185185185, -0.3685185185185185, -0.3685185185185185, -0.3685185185185185, -0.3685185185185185, -0.3685185185185185, -0.3685185185185185, -0.3685185185185185, -0.3685185185185185, -0.3685185185185185, -0.3685185185185185, -0.3685185185185185, -0.3685185185185185, -0.3685185185185185, -0.3685185185185185, -0.3685185185185185, -0.3685185185185185, -0.3685185185185185, -0.3685185185185185, -0.3685185185185185, -0.3685185185185185, -0.3685185185185185, -0.3685185185185185, -0.3685185185185185]"	"[1, 1, 1, 1, 1, 1, 1, 1, 1, 1, 1, 1, 1, 1, 1, 1, 1, 1, 1, 1, 1, 1, 1, 0]"	"[0, 0, 0, 0, 0, 0, 0, 0, 0, 0, 0, 0, 0, 0, 0, 0, 0, 0, 0, 0, 0, 0, 0, 0]"	"[0, 0, 0, 0, 0, 0, 0, 0, 0, 0, 0, 0, 0, 0, 0, 0, 0, 0, 0, 0, 0, 0, 0, 1]"	"[0.8184265999989293, 1.0586977999992087, 1.2922318000019004, 1.5505350999992515, 1.9256750999993528, 2.217091000002256, 2.5255900000011025, 2.7422929000022123, 3.0171353000005183, 3.27567690000069, 3.6673117999998794, 3.9755420000001322, 4.242240800002037, 4.72582390000025, 5.05906590000086, 5.359017400001903, 5.792348300001322, 6.250815100000182, 6.809069499999168, 7.4091368000008515, 7.884399000002304, 8.350871000002371, 8.85086869999941, 9.284405200000037]"	24	"[0.8095490999985486, 1.0496520999986387, 1.283186000000569, 1.541486399997666, 1.9166282000005594, 2.208049299999402, 2.5165443000005325, 2.7332434999989346, 3.008090399998764, 3.26662899999792, 3.6582677000005788, 3.966497499997786, 4.233191799998167, 4.716777999998158, 5.0500159000002895, 5.349967599999218, 5.783303899999737, 6.241771499997412, 6.800025199998345, 7.4000923999992665, 7.875351700000465, 8.34182729999884, 8.841823099999601, 9.275296600000729]"	"[0.9162655000000086, 1.1578587000003608, 1.3830467000007047, 1.7078509999992093, 2.0495528999999806, 2.3329520000006596, 2.5996003999971435, 2.8496008000001893, 3.1163118000004033, 3.3663159999996424, 3.7830276999993657, 4.074715799997648, 4.366377599999396, 4.858114099999511, 5.166583899997931, 5.483099599998241, 5.933194400000502, 6.383195200000046, 6.9415408999993815, 7.541796099998464, 7.991627399998833, 8.433333199998742, 8.975049900000158, 9.275300599998445]"	211.44423280000046	211.44971950000036	212.94169610000245	212.94989619999978								10	03	2024-02-06_16h24.11.531	BART_exp	2023.2.3	119.9472232213704	2024-02-06 16h24.22.736867 +0100	
balloon.png	57	0	11	11	13	212.94989619999978													212.94187880000027	212.94989619999978	212.94989619999978	212.94989619999978	212.94989619999978	212.94989619999978	0.005733099998906255	0.005733099998906255	0.005733099998906255	212.94989619999978	222.47715820000303	26	1.30	False	"[0.06851851851851852, 0.06851851851851852, 0.06851851851851852, 0.06851851851851852, 0.06851851851851852, 0.06851851851851852, 0.06851851851851852, 0.06851851851851852, 0.06851851851851852, 0.06851851851851852, 0.06851851851851852, 0.06851851851851852, 0.06851851851851852, 0.06851851851851852, 0.06851851851851852, 0.06851851851851852, 0.06851851851851852, 0.06851851851851852, 0.06851851851851852, 0.06851851851851852, 0.06851851851851852, 0.06851851851851852, 0.06851851851851852, 0.06851851851851852, 0.06851851851851852, 0.06851851851851852, 0.06851851851851852]"	"[-0.3685185185185185, -0.3685185185185185, -0.3685185185185185, -0.3685185185185185, -0.3685185185185185, -0.3685185185185185, -0.3685185185185185, -0.3685185185185185, -0.3685185185185185, -0.3685185185185185, -0.3685185185185185, -0.3685185185185185, -0.3685185185185185, -0.3685185185185185, -0.3685185185185185, -0.3685185185185185, -0.3685185185185185, -0.3685185185185185, -0.3685185185185185, -0.3685185185185185, -0.3685185185185185, -0.3685185185185185, -0.3685185185185185, -0.3685185185185185, -0.3685185185185185, -0.3685185185185185, -0.3685185185185185]"	"[1, 1, 1, 1, 1, 1, 1, 1, 1, 1, 1, 1, 1, 1, 1, 1, 1, 1, 1, 1, 1, 1, 1, 1, 1, 1, 0]"	"[0, 0, 0, 0, 0, 0, 0, 0, 0, 0, 0, 0, 0, 0, 0, 0, 0, 0, 0, 0, 0, 0, 0, 0, 0, 0, 0]"	"[0, 0, 0, 0, 0, 0, 0, 0, 0, 0, 0, 0, 0, 0, 0, 0, 0, 0, 0, 0, 0, 0, 0, 0, 0, 0, 1]"	"[0.4502820999987307, 0.6754851999976381, 0.8838870999970823, 1.1171565999975428, 1.3588279999967199, 1.575477399997908, 1.82538509999722, 2.1172592000002624, 2.4422104999976, 2.767154599998321, 3.0589154999979655, 3.6589831999990565, 3.9590760999999475, 4.200603699999192, 4.425722599997243, 4.800579099999595, 5.084171599999536, 5.692578299996967, 6.092467399997986, 6.68434299999717, 7.0257239999991725, 7.400754899997992, 7.709290599999804, 8.117811899999651, 8.567508500000258, 8.901020499997685, 9.534359399996902]"	27	"[0.44836800000121, 0.6735742000018945, 0.8819822000004933, 1.1152443999999377, 1.3569167999994534, 1.5735640999992029, 1.8234703999987687, 2.1153448000004573, 2.4320866000016395, 2.7652393999997003, 3.0570074999995995, 3.6570687999992515, 3.9571646000003966, 4.198693300000741, 4.4238121999987925, 4.798662199998944, 5.082259800001339, 5.69067079999877, 6.090555599999789, 6.682432400000835, 7.023809500002244, 7.398840400001063, 7.707376999998814, 8.115899299999, 8.565597400000115, 8.899104700001772, 9.532381600001827]"	"[0.5315804000019853, 0.7732763000021805, 0.9900477000010142, 1.2315970000017842, 1.448298800001794, 1.6818445999997493, 1.931651499999134, 2.2400005999988934, 2.5733810999990965, 2.8817314000007173, 3.198419100001047, 3.8151303000013286, 4.065135400000145, 4.281815800000913, 4.531861899999058, 4.906863600001088, 5.215420799999265, 5.80698990000019, 6.23195620000115, 6.806991800000105, 7.12370060000103, 7.532103000001371, 7.873764399999345, 8.25709260000076, 8.682113099999697, 9.023849900000641, 9.532385800001066]"	222.47826010000063	222.48380490000272	223.97577440000168	223.98390720000316								10	03	2024-02-06_16h24.11.531	BART_exp	2023.2.3	119.9472232213704	2024-02-06 16h24.22.736867 +0100	
balloon.png	97	0	12	12	22	223.98390720000316													223.97595370000272	223.98390720000316	223.98390720000316	223.98390720000316	223.98390720000316	223.98390720000316	0.005708799999410985	0.005708799999410985	0.005708799999410985	223.98390720000316	232.1443321000006	22	1.10	False	"[0.06851851851851852, 0.06851851851851852, 0.06851851851851852, 0.06851851851851852, 0.06851851851851852, 0.06851851851851852, 0.06851851851851852, 0.06851851851851852, 0.06851851851851852, 0.06851851851851852, 0.06851851851851852, 0.06851851851851852, 0.06851851851851852, 0.06851851851851852, 0.06851851851851852, 0.06851851851851852, 0.06851851851851852, 0.06851851851851852, 0.06851851851851852, 0.06851851851851852, 0.06851851851851852, 0.06851851851851852, 0.06851851851851852]"	"[-0.3685185185185185, -0.3685185185185185, -0.3685185185185185, -0.3685185185185185, -0.3685185185185185, -0.3685185185185185, -0.3685185185185185, -0.3685185185185185, -0.3685185185185185, -0.3685185185185185, -0.3685185185185185, -0.3685185185185185, -0.3685185185185185, -0.3685185185185185, -0.3685185185185185, -0.3685185185185185, -0.3685185185185185, -0.3685185185185185, -0.3685185185185185, -0.3685185185185185, -0.3685185185185185, -0.3685185185185185, -0.3685185185185185]"	"[1, 1, 1, 1, 1, 1, 1, 1, 1, 1, 1, 1, 1, 1, 1, 1, 1, 1, 1, 1, 1, 1, 0]"	"[0, 0, 0, 0, 0, 0, 0, 0, 0, 0, 0, 0, 0, 0, 0, 0, 0, 0, 0, 0, 0, 0, 0]"	"[0, 0, 0, 0, 0, 0, 0, 0, 0, 0, 0, 0, 0, 0, 0, 0, 0, 0, 0, 0, 0, 0, 1]"	"[0.6421288999990793, 0.8838374000006297, 1.3088203000006615, 1.5503744999987248, 1.7754060000006575, 1.9754393000002892, 2.3172833999997238, 2.600556900000811, 2.842329200000677, 3.0590118000000075, 3.459002399999008, 3.842490799997904, 4.067420799998217, 4.475736500000494, 5.084150300001056, 5.3506247000004805, 5.550631900001463, 6.059195999998337, 6.534075600000506, 6.734062700001232, 7.300942699999723, 7.809265200001391, 8.167478899998969]"	23	"[0.6402803000019048, 0.8819886000019324, 1.3069733000011183, 1.548528899998928, 1.7735530999998446, 1.9735894000004919, 2.315439400001196, 2.598713899998984, 2.8404790999993565, 3.0571617999994487, 3.4571514000017487, 3.8406393000004755, 4.0655761000016355, 4.4738866000006965, 5.082300000001851, 5.348773000001529, 5.54878440000175, 6.057350300001417, 6.532230400000117, 6.732216899999912, 7.2990976000000956, 7.80741670000134, 8.16556700000001]"	"[0.7399809999988065, 0.9734097000000475, 1.4150525000004563, 1.6483942000013485, 1.8400590000019292, 2.115086000001611, 2.4234761000006984, 2.715149499999825, 2.9402153000010003, 3.1735235000014654, 3.606937200001994, 3.940209100001084, 4.181900600000517, 4.5985838000015065, 5.19862650000141, 5.415379199999734, 5.682144599999447, 6.207019699999364, 6.6153875999989395, 6.840403599999263, 7.407383099998697, 7.915823499999533, 8.165571400000772]"	232.14526640000258	232.15113230000134	233.64311269999962	233.65960240000277								10	03	2024-02-06_16h24.11.531	BART_exp	2023.2.3	119.9472232213704	2024-02-06 16h24.22.736867 +0100	
balloon.png	88	0	13	13	20	233.65960240000277													233.64330080000218	233.65960240000277	233.65960240000277	233.65960240000277	233.65960240000277	233.65960240000277	-0.0006839000016043428	-0.0006839000016043428	-0.0006839000016043428	233.65960240000277	245.4203957000027	30	1.50	False	"[0.06851851851851852, 0.06851851851851852, 0.06851851851851852, 0.06851851851851852, 0.06851851851851852, 0.06851851851851852, 0.06851851851851852, 0.06851851851851852, 0.06851851851851852, 0.06851851851851852, 0.06851851851851852, 0.06851851851851852, 0.06851851851851852, 0.06851851851851852, 0.06851851851851852, 0.06851851851851852, 0.06851851851851852, 0.06851851851851852, 0.06851851851851852, 0.06851851851851852, 0.06851851851851852, 0.06851851851851852, 0.06851851851851852, 0.06851851851851852, 0.06851851851851852, 0.06851851851851852, 0.06851851851851852, 0.06851851851851852, 0.06851851851851852, 0.06851851851851852, 0.06851851851851852]"	"[-0.3685185185185185, -0.3685185185185185, -0.3685185185185185, -0.3685185185185185, -0.3685185185185185, -0.3685185185185185, -0.3685185185185185, -0.3685185185185185, -0.3685185185185185, -0.3685185185185185, -0.3685185185185185, -0.3685185185185185, -0.3685185185185185, -0.3685185185185185, -0.3685185185185185, -0.3685185185185185, -0.3685185185185185, -0.3685185185185185, -0.3685185185185185, -0.3685185185185185, -0.3685185185185185, -0.3685185185185185, -0.3685185185185185, -0.3685185185185185, -0.3685185185185185, -0.3685185185185185, -0.3685185185185185, -0.3685185185185185, -0.3685185185185185, -0.3685185185185185, -0.3685185185185185]"	"[1, 1, 1, 1, 1, 1, 1, 1, 1, 1, 1, 1, 1, 1, 1, 1, 1, 1, 1, 1, 1, 1, 1, 1, 1, 1, 1, 1, 1, 1, 0]"	"[0, 0, 0, 0, 0, 0, 0, 0, 0, 0, 0, 0, 0, 0, 0, 0, 0, 0, 0, 0, 0, 0, 0, 0, 0, 0, 0, 0, 0, 0, 0]"	"[0, 0, 0, 0, 0, 0, 0, 0, 0, 0, 0, 0, 0, 0, 0, 0, 0, 0, 0, 0, 0, 0, 0, 0, 0, 0, 0, 0, 0, 0, 1]"	"[0.4503240000012738, 0.7169856000000436, 0.9588475000018661, 1.1921829000020807, 1.417224000000715, 1.6255502999993041, 1.858735900001193, 2.0755783999993582, 2.3340069000005315, 2.5924175000000105, 2.858904100001382, 3.3173263000026054, 3.575807299999724, 3.7924467000011646, 4.117563400002837, 4.475590600002761, 4.702161100001831, 5.192469199999323, 5.6506689000016195, 5.900697700002638, 6.450765300000057, 6.817415000001347, 7.18426250000266, 7.6508040000007895, 7.859176100002514, 8.034165799999755, 8.942719400001806, 9.667653300002712, 10.1844674999993, 10.792842599999858, 11.776219600000331]"	31	"[0.44654329999684705, 0.7132003999977314, 0.9550655999992159, 1.1883978999976534, 1.413450299998658, 1.6217684000002919, 1.8549514999976964, 2.0717884999976377, 2.3302243999969505, 2.5886384999976144, 2.855120399999578, 3.3135377999969933, 3.5720286999967357, 3.788671299997077, 4.113777699996717, 4.471800699997402, 4.698546699997678, 5.188686399997096, 5.646881399999984, 5.896913299999142, 6.4469781999978295, 6.813626499999373, 7.180511200000183, 7.647019999996701, 7.855388500000117, 8.030374399997527, 8.938935799997125, 9.663871999997355, 10.18068459999995, 10.789053599997715, 11.772370499998942]"	"[0.5964473999993061, 0.8130614000001515, 1.0631169999978738, 1.2714448999977321, 1.5048242999982904, 1.7298395999969216, 1.9633306999967317, 2.1881412000002456, 2.4298418999969726, 2.721536899996863, 2.954894200000126, 3.438260299997637, 3.663271099998383, 3.9049487999982375, 4.221653399999923, 4.580048899999383, 4.8299918999982765, 5.355032499999652, 5.763507399999071, 5.980198099998233, 6.571953599999688, 6.930162999997265, 7.313524799999868, 7.763537699996959, 7.955318299998908, 8.113736899998912, 9.046979499998997, 9.738663500000257, 10.247040799997194, 10.847086699999636, 11.77237459999742]"	245.4215127000025	245.4270675000007	246.91902420000042	246.93549280000298								10	03	2024-02-06_16h24.11.531	BART_exp	2023.2.3	119.9472232213704	2024-02-06 16h24.22.736867 +0100	
balloon.png	118	0	14	14	27	246.93549280000298													246.9192034000007	246.93549280000298	246.93549280000298	246.93549280000298	246.93549280000298	246.93549280000298	0.014052900001843227	0.014052900001843227	0.014052900001843227	246.93549280000298	253.9458375000031	21	1.05	False	"[0.06851851851851852, 0.06851851851851852, 0.06851851851851852, 0.06851851851851852, 0.06851851851851852, 0.06851851851851852, 0.06851851851851852, 0.06851851851851852, 0.06851851851851852, 0.06851851851851852, 0.06851851851851852, 0.06851851851851852, 0.06851851851851852, 0.06851851851851852, 0.06851851851851852, 0.06851851851851852, 0.06851851851851852, 0.06851851851851852, 0.06851851851851852, 0.06851851851851852, 0.06851851851851852, 0.06851851851851852]"	"[-0.3685185185185185, -0.3685185185185185, -0.3685185185185185, -0.3685185185185185, -0.3685185185185185, -0.3685185185185185, -0.3685185185185185, -0.3685185185185185, -0.3685185185185185, -0.3685185185185185, -0.3685185185185185, -0.3685185185185185, -0.3685185185185185, -0.3685185185185185, -0.3685185185185185, -0.3685185185185185, -0.3685185185185185, -0.3685185185185185, -0.3685185185185185, -0.3685185185185185, -0.3685185185185185, -0.3685185185185185]"	"[1, 1, 1, 1, 1, 1, 1, 1, 1, 1, 1, 1, 1, 1, 1, 1, 1, 1, 1, 1, 1, 0]"	"[0, 0, 0, 0, 0, 0, 0, 0, 0, 0, 0, 0, 0, 0, 0, 0, 0, 0, 0, 0, 0, 0]"	"[0, 0, 0, 0, 0, 0, 0, 0, 0, 0, 0, 0, 0, 0, 0, 0, 0, 0, 0, 0, 0, 1]"	"[0.4253798000027018, 0.6671730000016396, 0.8921738999997615, 1.1503478000013274, 1.3753608000006352, 1.583715700002358, 1.9005485000016051, 2.1172662999997556, 2.3337750999999116, 2.5340498000005027, 2.8672908000007737, 3.10916189999989, 3.3755010000022594, 3.6589977000003273, 3.9921998999998323, 4.333905600000435, 4.617368200000783, 4.8424412999993365, 5.125647000000754, 5.52580830000079, 6.209137400001055, 7.0257326000028115]"	22	"[0.4233235000028799, 0.6651637000031769, 0.8901170000026468, 1.148286999999982, 1.3733046000015747, 1.5816591000002518, 1.898487100002967, 2.1152089000024716, 2.3317225000027975, 2.5319994000019506, 2.865234500000952, 3.107107100000576, 3.3734394000020984, 3.6569363000016892, 3.990143500002887, 4.331845200002135, 4.615314300001046, 4.84038370000053, 5.123590700000932, 5.5237489999999525, 6.207074900001317, 7.023608700001205]"	"[0.5148181000004115, 0.7482072000020707, 1.0147980000001553, 1.2731280000007246, 1.4815057000014349, 1.7148409000001266, 1.9648383000021568, 2.2066694000022835, 2.423336700001528, 2.6399603000027128, 3.0149424000010185, 3.1982604000004358, 3.4566454000014346, 3.8066379000010784, 4.115025099999912, 4.458391500000289, 4.723352700002579, 4.965048800000659, 5.2150648000024376, 5.665120100002241, 6.323483300002408, 7.023612900000444]"	253.94678540000314	253.95268710000164	255.44459439999991	255.46106169999985								10	03	2024-02-06_16h24.11.531	BART_exp	2023.2.3	119.9472232213704	2024-02-06 16h24.22.736867 +0100	
balloon.png	5	0	15	15	1	255.46106169999985													255.44477410000036	255.46106169999985	255.46106169999985	255.46106169999985	255.46106169999985	255.46106169999985	-0.0007662999996682629	-0.0007662999996682629	-0.0007662999996682629	255.46106169999985	257.0880455000006	6	0.25	True	"[0.06851851851851852, 0.06851851851851852, 0.06851851851851852, 0.06851851851851852, 0.06851851851851852, 0.06851851851851852]"	"[-0.3685185185185185, -0.3685185185185185, -0.3685185185185185, -0.3685185185185185, -0.3685185185185185, -0.3685185185185185]"	"[1, 1, 1, 1, 1, 1]"	"[0, 0, 0, 0, 0, 0]"	"[0, 0, 0, 0, 0, 0]"	"[0.40045959999770275, 0.6753291999993962, 0.875337599998602, 1.0838001999982225, 1.3338590999992448, 1.5506309999982477]"	6	"[0.397923799999262, 0.6727820000014617, 0.8727992999993148, 1.0812561999991885, 1.331318000000465, 1.5480878000016673]"	"[0.5226376999999047, 0.747629000001325, 0.9726483000013104, 1.2060138000015286, 1.4227219999993395, 1.6310263999985182]"	257.0887220000004	257.0945128000021	258.58647010000277	258.6029508000029								10	03	2024-02-06_16h24.11.531	BART_exp	2023.2.3	119.9472232213704	2024-02-06 16h24.22.736867 +0100	
balloon.png	110	0	16	16	25	258.6029508000029													258.5866531000029	258.6029508000029	258.6029508000029	258.6029508000029	258.6029508000029	258.6029508000029	-0.0007929000021249522	-0.0007929000021249522	-0.0007929000021249522	258.6029508000029	261.96320910000213	8	0.40	False	"[0.06851851851851852, 0.06851851851851852, 0.06851851851851852, 0.06851851851851852, 0.06851851851851852, 0.06851851851851852, 0.06851851851851852, 0.06851851851851852, 0.06851851851851852]"	"[-0.3685185185185185, -0.3685185185185185, -0.3685185185185185, -0.3685185185185185, -0.3685185185185185, -0.3685185185185185, -0.3685185185185185, -0.3685185185185185, -0.3685185185185185]"	"[1, 1, 1, 1, 1, 1, 1, 1, 0]"	"[0, 0, 0, 0, 0, 0, 0, 0, 0]"	"[0, 0, 0, 0, 0, 0, 0, 0, 1]"	"[0.4088317999994615, 0.6836844000026758, 1.0588036000008287, 1.5588798000026145, 1.8588055000000168, 2.52546380000058, 2.8423600000023725, 3.092255400002614, 3.375674599999911]"	9	"[0.3986587999970652, 0.6735105999978259, 1.0486290999979246, 1.5487031999982719, 1.8486293999994814, 2.5152858999972523, 2.832187599997269, 3.0820907999986957, 3.365433499999199]"	"[0.5316730999984429, 0.7816950999986148, 1.1401022999998531, 1.6567410999996355, 1.9401603999976942, 2.6318283999971754, 2.9235670999987633, 3.1736689999997907, 3.3654380999978457]"	261.9639242000012	261.969860600002	263.46182190000036	263.47830480000266								10	03	2024-02-06_16h24.11.531	BART_exp	2023.2.3	119.9472232213704	2024-02-06 16h24.22.736867 +0100	
balloon.png	23	0	17	17	5	263.47830480000266													263.4620039000001	263.47830480000266	263.47830480000266	263.47830480000266	263.47830480000266	263.47830480000266	-0.0006536000000778586	-0.0006536000000778586	-0.0006536000000778586	263.47830480000266	271.3559333000012	24	1.15	True	"[0.06851851851851852, 0.06851851851851852, 0.06851851851851852, 0.06851851851851852, 0.06851851851851852, 0.06851851851851852, 0.06851851851851852, 0.06851851851851852, 0.06851851851851852, 0.06851851851851852, 0.06851851851851852, 0.06851851851851852, 0.06851851851851852, 0.06851851851851852, 0.06851851851851852, 0.06851851851851852, 0.06851851851851852, 0.06851851851851852, 0.06851851851851852, 0.06851851851851852, 0.06851851851851852, 0.06851851851851852, 0.06851851851851852, 0.06851851851851852]"	"[-0.3685185185185185, -0.3685185185185185, -0.3685185185185185, -0.3685185185185185, -0.3685185185185185, -0.3685185185185185, -0.3685185185185185, -0.3685185185185185, -0.3685185185185185, -0.3685185185185185, -0.3685185185185185, -0.3685185185185185, -0.3685185185185185, -0.3685185185185185, -0.3685185185185185, -0.3685185185185185, -0.3685185185185185, -0.3685185185185185, -0.3685185185185185, -0.3685185185185185, -0.3685185185185185, -0.3685185185185185, -0.3685185185185185, -0.3685185185185185]"	"[1, 1, 1, 1, 1, 1, 1, 1, 1, 1, 1, 1, 1, 1, 1, 1, 1, 1, 1, 1, 1, 1, 1, 1]"	"[0, 0, 0, 0, 0, 0, 0, 0, 0, 0, 0, 0, 0, 0, 0, 0, 0, 0, 0, 0, 0, 0, 0, 0]"	"[0, 0, 0, 0, 0, 0, 0, 0, 0, 0, 0, 0, 0, 0, 0, 0, 0, 0, 0, 0, 0, 0, 0, 0]"	"[1.0922057999996468, 1.4921770000000834, 1.758882199999789, 2.025433900002099, 2.2505640000017593, 2.492254900000262, 2.7089382000012847, 3.05067710000003, 3.3174341000012646, 3.5838342999995803, 3.8673469999994268, 4.292405600001075, 4.517387899999449, 4.942408499999146, 5.117415900000196, 5.4758671000017785, 6.042583900001773, 6.2426916000003985, 6.442515900002036, 6.734223300001759, 6.934219200000371, 7.117565500000637, 7.309244100000797, 7.775794900000619]"	24	"[1.0869188999968173, 1.4868868999983533, 1.753591199998482, 2.0201510999977472, 2.245272999996814, 2.4869690999985323, 2.7036535999977787, 3.0453985999993165, 3.3121516999999585, 3.578546799999458, 3.862054099998204, 4.2871783999980835, 4.512100399999326, 4.937118799996824, 5.112130699999398, 5.470580399996834, 6.037293800000043, 6.237401799997315, 6.437224399996921, 6.728931899997406, 6.928926399999909, 7.112279099997977, 7.303952399997797, 7.770509599999059]"	"[1.2032357999996748, 1.6115745999995852, 1.8866192999994382, 2.119950999996945, 2.420026099996903, 2.6116612999976496, 2.820077799999126, 3.17837519999739, 3.4450514999989537, 3.72838629999751, 4.0034363999984635, 4.395156799997494, 4.620159999998577, 5.020165599999018, 5.220159599997714, 5.628534199997375, 6.170247799997014, 6.353590099999565, 6.553571999997075, 6.82030289999966, 7.003815500000201, 7.186963000000105, 7.361990899997181, 7.878717299998243]"	271.3570746000005	271.3621854000012	272.854124700003	272.86232290000044								10	03	2024-02-06_16h24.11.531	BART_exp	2023.2.3	119.9472232213704	2024-02-06 16h24.22.736867 +0100	
balloon.png	75	0	18	18	17	272.86232290000044													272.85430800000177	272.86232290000044	272.86232290000044	272.86232290000044	272.86232290000044	272.86232290000044	0.005306899998686276			272.86232290000044	276.9309619000014	10	0.50	False	"[0.06851851851851852, 0.06851851851851852, 0.06851851851851852, 0.06851851851851852, 0.06851851851851852, 0.06851851851851852, 0.06851851851851852, 0.06851851851851852, 0.06851851851851852, 0.06851851851851852, 0.06851851851851852]"	"[-0.3685185185185185, -0.3685185185185185, -0.3685185185185185, -0.3685185185185185, -0.3685185185185185, -0.3685185185185185, -0.3685185185185185, -0.3685185185185185, -0.3685185185185185, -0.3685185185185185, -0.3685185185185185]"	"[1, 1, 1, 1, 1, 1, 1, 1, 1, 1, 0]"	"[0, 0, 0, 0, 0, 0, 0, 0, 0, 0, 0]"	"[0, 0, 0, 0, 0, 0, 0, 0, 0, 0, 1]"	"[0.7254763999990246, 1.1505437999985588, 1.4086975999998685, 1.6671901999980037, 2.100681699997949, 2.5255879999967874, 2.750466299999971, 3.092290499997034, 3.383845599997585, 3.6005100999973365, 4.075741799999378]"	11	"[0.7235894999976153, 1.1486475999990944, 1.4068084999998973, 1.6652986999979476, 2.0987919999970472, 2.5236909999985073, 2.7485706999977992, 3.090396999999939, 3.3819473999974434, 3.5986168999988877, 4.0737854999970295]"	"[0.8232843000005232, 1.264972699998907, 1.5149875999995857, 1.8234284999998636, 2.2067064000002574, 2.631770299998607, 2.8567603999981657, 3.1901238999998895, 3.49014729999908, 3.6902111999988847, 4.073789699999907]"	276.9317525000006	276.9375452000022	278.429485800003	278.4459803000027								10	03	2024-02-06_16h24.11.531	BART_exp	2023.2.3	119.9472232213704	2024-02-06 16h24.22.736867 +0100	
balloon.png	62	0	19	19	14	278.4459803000027													278.42966929999966	278.4459803000027	278.4459803000027	278.4459803000027	278.4459803000027	278.4459803000027	-0.0008519000002706889	-0.0008519000002706889	-0.0008519000002706889	278.4459803000027	282.1314824000001	11	0.55	False	"[0.06851851851851852, 0.06851851851851852, 0.06851851851851852, 0.06851851851851852, 0.06851851851851852, 0.06851851851851852, 0.06851851851851852, 0.06851851851851852, 0.06851851851851852, 0.06851851851851852, 0.06851851851851852, 0.06851851851851852]"	"[-0.3685185185185185, -0.3685185185185185, -0.3685185185185185, -0.3685185185185185, -0.3685185185185185, -0.3685185185185185, -0.3685185185185185, -0.3685185185185185, -0.3685185185185185, -0.3685185185185185, -0.3685185185185185, -0.3685185185185185]"	"[1, 1, 1, 1, 1, 1, 1, 1, 1, 1, 1, 0]"	"[0, 0, 0, 0, 0, 0, 0, 0, 0, 0, 0, 0]"	"[0, 0, 0, 0, 0, 0, 0, 0, 0, 0, 0, 1]"	"[0.3254906000001938, 0.7088640999972995, 0.9422023000006448, 1.31725809999989, 1.525605299997551, 1.7423125999994227, 2.125736499998311, 2.342313599998306, 2.533963300000323, 2.733988699998008, 3.2255217999991146, 3.7008983999985503]"	12	"[0.3184255000014673, 0.7017984999984037, 0.9351406999994651, 1.310197099999641, 1.518539000000601, 1.7352457999986655, 2.118675199999416, 2.3352516000013566, 2.5268921999995655, 2.726923900001566, 3.2184584999995423, 3.6937749999997322]"	"[0.4014997999984189, 0.8014699000013934, 1.0431606999991345, 1.3848894000002474, 1.6015284999994037, 1.8432280000015453, 2.234920399998373, 2.426577800000814, 2.601595299998735, 2.8183070000013686, 3.360048200000165, 3.6937792999997328]"	282.13241689999995	282.1379159999997	283.6299052000031	283.63800620000256								10	03	2024-02-06_16h24.11.531	BART_exp	2023.2.3	119.9472232213704	2024-02-06 16h24.22.736867 +0100	
balloon.png	105	0	20	20	24	283.63800620000256													283.63008770000306	283.63800620000256	283.63800620000256	283.63800620000256	283.63800620000256	283.63800620000256	0.005667800000082934	0.005667800000082934	0.005667800000082934	283.63800620000256	289.1652135000004	20	1.00	False	"[0.06851851851851852, 0.06851851851851852, 0.06851851851851852, 0.06851851851851852, 0.06851851851851852, 0.06851851851851852, 0.06851851851851852, 0.06851851851851852, 0.06851851851851852, 0.06851851851851852, 0.06851851851851852, 0.06851851851851852, 0.06851851851851852, 0.06851851851851852, 0.06851851851851852, 0.06851851851851852, 0.06851851851851852, 0.06851851851851852, 0.06851851851851852, 0.06851851851851852, 0.06851851851851852]"	"[-0.3685185185185185, -0.3685185185185185, -0.3685185185185185, -0.3685185185185185, -0.3685185185185185, -0.3685185185185185, -0.3685185185185185, -0.3685185185185185, -0.3685185185185185, -0.3685185185185185, -0.3685185185185185, -0.3685185185185185, -0.3685185185185185, -0.3685185185185185, -0.3685185185185185, -0.3685185185185185, -0.3685185185185185, -0.3685185185185185, -0.3685185185185185, -0.3685185185185185, -0.3685185185185185]"	"[1, 1, 1, 1, 1, 1, 1, 1, 1, 1, 1, 1, 1, 1, 1, 1, 1, 1, 1, 1, 0]"	"[0, 0, 0, 0, 0, 0, 0, 0, 0, 0, 0, 0, 0, 0, 0, 0, 0, 0, 0, 0, 0]"	"[0, 0, 0, 0, 0, 0, 0, 0, 0, 0, 0, 0, 0, 0, 0, 0, 0, 0, 0, 0, 1]"	"[0.33372610000151326, 0.5669376000005286, 0.75875680000172, 0.9919834000029368, 1.1836164000014833, 1.4003428000032727, 1.6170968000005814, 1.825389700003143, 2.033697300001222, 2.442158500001824, 2.817079600001307, 3.192098600000463, 3.442108000002918, 3.700631000003341, 3.9089828000032867, 4.100640500000736, 4.275663500000519, 4.625698499999999, 4.825550400000793, 5.0340125000002445, 5.534199500001705]"	21	"[0.3318257999999332, 0.5650334000019939, 0.7568523000009009, 0.990130300000601, 1.1817153000010876, 1.3984397999993234, 1.6151938000002701, 1.823483899999701, 2.0317957000006572, 2.4402574000014283, 2.815173800001503, 3.19019230000049, 3.440200500001083, 3.6987264000017603, 3.907079299999168, 4.098732000002201, 4.2737601000008, 4.623793200000364, 4.82364299999972, 5.032107300001371, 5.532236900002317]"	"[0.39817780000157654, 0.6231965000006312, 0.856556400001864, 1.0565925000009884, 1.2899421000001894, 1.4651398000023619, 1.714948299999378, 1.9316244000001461, 2.1399702000016987, 2.55666840000049, 2.915013400001044, 3.2983763000011095, 3.5567355999992287, 3.815083500001492, 3.9901328000014473, 4.206799300001876, 4.381802899999457, 4.715400299999601, 4.906835800000408, 5.073634700002003, 5.532241000000795]"	289.1663036000027	289.1717263000028	290.66366990000097	290.6718412000009								10	03	2024-02-06_16h24.11.531	BART_exp	2023.2.3	119.9472232213704	2024-02-06 16h24.22.736867 +0100	
balloon.png	31	0	21	21	7	290.6718412000009													290.6638711000014	290.6718412000009	290.6718412000009	290.6718412000009	290.6718412000009	290.6718412000009	0.005600399999821093	0.005600399999821093	0.005600399999821093	290.6718412000009	298.9160354000014	32	1.55	True	"[0.06851851851851852, 0.06851851851851852, 0.06851851851851852, 0.06851851851851852, 0.06851851851851852, 0.06851851851851852, 0.06851851851851852, 0.06851851851851852, 0.06851851851851852, 0.06851851851851852, 0.06851851851851852, 0.06851851851851852, 0.06851851851851852, 0.06851851851851852, 0.06851851851851852, 0.06851851851851852, 0.06851851851851852, 0.06851851851851852, 0.06851851851851852, 0.06851851851851852, 0.06851851851851852, 0.06851851851851852, 0.06851851851851852, 0.06851851851851852, 0.06851851851851852, 0.06851851851851852, 0.06851851851851852, 0.06851851851851852, 0.06851851851851852, 0.06851851851851852, 0.06851851851851852, 0.06851851851851852]"	"[-0.3685185185185185, -0.3685185185185185, -0.3685185185185185, -0.3685185185185185, -0.3685185185185185, -0.3685185185185185, -0.3685185185185185, -0.3685185185185185, -0.3685185185185185, -0.3685185185185185, -0.3685185185185185, -0.3685185185185185, -0.3685185185185185, -0.3685185185185185, -0.3685185185185185, -0.3685185185185185, -0.3685185185185185, -0.3685185185185185, -0.3685185185185185, -0.3685185185185185, -0.3685185185185185, -0.3685185185185185, -0.3685185185185185, -0.3685185185185185, -0.3685185185185185, -0.3685185185185185, -0.3685185185185185, -0.3685185185185185, -0.3685185185185185, -0.3685185185185185, -0.3685185185185185, -0.3685185185185185]"	"[1, 1, 1, 1, 1, 1, 1, 1, 1, 1, 1, 1, 1, 1, 1, 1, 1, 1, 1, 1, 1, 1, 1, 1, 1, 1, 1, 1, 1, 1, 1, 1]"	"[0, 0, 0, 0, 0, 0, 0, 0, 0, 0, 0, 0, 0, 0, 0, 0, 0, 0, 0, 0, 0, 0, 0, 0, 0, 0, 0, 0, 0, 0, 0, 0]"	"[0, 0, 0, 0, 0, 0, 0, 0, 0, 0, 0, 0, 0, 0, 0, 0, 0, 0, 0, 0, 0, 0, 0, 0, 0, 0, 0, 0, 0, 0, 0, 0]"	"[0.2754563999988022, 0.49219389999780105, 0.658798399999796, 0.8421329999982845, 1.034080499997799, 1.242346399998496, 1.4255186999980651, 1.617180899997038, 1.8089451999985613, 2.025657599999249, 2.3172830999974394, 2.6923123999986274, 3.000483699997858, 3.3338232999994943, 3.617323899998155, 3.9422104999976, 4.234092200000305, 4.684097399996972, 5.000597999998718, 5.234088499997597, 5.459116499998345, 5.700932299998385, 5.89259519999905, 6.134007399999973, 6.334025799998926, 6.692586299999675, 7.100937899998826, 7.3341040999985125, 7.525863599999866, 7.725783999998384, 7.942476699998224, 8.175912499998958]"	31	"[0.2736000000004424, 0.4903373000015563, 0.6569343000010122, 0.8402750000022934, 1.0322302000022319, 1.2404993000018294, 1.4236569999993662, 1.6153202000023157, 1.8070828000018082, 2.0238005999999586, 2.3154195999995864, 2.690451300000859, 2.998620200000005, 3.331958000002487, 3.6154645000024175, 3.9403447000004235, 4.232236200001353, 4.682233200001065, 5.2322225000025355, 5.457257100002607, 5.699074300002394, 5.890743300002214, 6.132150200002798, 6.332164700001158, 6.690722300001653, 7.099074699999619, 7.332246199999645, 7.523997600001167, 7.723918300001969, 7.940618000000541, 8.174051699999836]"	"[0.3899502999993274, 0.5649665000019013, 0.7566278000012971, 0.939988699999958, 1.1494079000003694, 1.3483430000014778, 1.5233599999992293, 1.715061800001422, 1.8900477999995928, 2.1567405000023427, 2.3901260000020557, 2.8151515999998082, 3.106869800001732, 3.44017950000125, 3.7651624999998603, 4.015251000000717, 4.406911000001855, 5.08194580000054, 5.3236071999999695, 5.57362909999938, 5.782023200001277, 5.998661500001617, 6.190345600000001, 6.407047000000603, 6.7987375000011525, 7.215414400001464, 7.398773000000801, 7.632139200002712, 7.807149899999786, 8.0488170000026, 8.240495199999714]"	298.9173022000032	298.92242110000007	300.4143352000028	300.4224888000026								10	03	2024-02-06_16h24.11.531	BART_exp	2023.2.3	119.9472232213704	2024-02-06 16h24.22.736867 +0100	
balloon.png	49	0	22	22	11	300.4224888000026													300.4145114000021	300.4224888000026	300.4224888000026	300.4224888000026	300.4224888000026	300.4224888000026	0.005244800002401462			300.4224888000026	304.4911570000004	13	0.65	False	"[0.06851851851851852, 0.06851851851851852, 0.06851851851851852, 0.06851851851851852, 0.06851851851851852, 0.06851851851851852, 0.06851851851851852, 0.06851851851851852, 0.06851851851851852, 0.06851851851851852, 0.06851851851851852, 0.06851851851851852, 0.06851851851851852, 0.06851851851851852]"	"[-0.3685185185185185, -0.3685185185185185, -0.3685185185185185, -0.3685185185185185, -0.3685185185185185, -0.3685185185185185, -0.3685185185185185, -0.3685185185185185, -0.3685185185185185, -0.3685185185185185, -0.3685185185185185, -0.3685185185185185, -0.3685185185185185, -0.3685185185185185]"	"[1, 1, 1, 1, 1, 1, 1, 1, 1, 1, 1, 1, 1, 0]"	"[0, 0, 0, 0, 0, 0, 0, 0, 0, 0, 0, 0, 0, 0]"	"[0, 0, 0, 0, 0, 0, 0, 0, 0, 0, 0, 0, 0, 1]"	"[0.35882649999985006, 0.5753165000023728, 0.7753646000019216, 0.9920582000013383, 1.2003975000006903, 1.418372800002544, 1.8004514000022027, 2.392106100000092, 2.583819900002709, 2.7504851000012422, 2.9173195000003034, 3.325736099999631, 3.675684199999523, 4.075747400002001]"	14	"[0.3569447999980184, 0.5734283999991021, 0.7734849999978906, 0.9901806999987457, 1.1985161999982665, 1.4167142000005697, 1.7985654000003706, 2.3902220999989368, 2.5819355999992695, 2.748595999997633, 2.915435399998387, 3.323859199997969, 3.6738000999976066, 4.073806599997624]"	"[0.423312499999156, 0.6497225999992224, 0.8649824999993143, 1.0816964999976335, 1.331691299998056, 1.506703799997922, 1.9483846999974048, 2.481789599998592, 2.6568406999977014, 2.8317960999993375, 3.023462799999834, 3.423528199997236, 3.7819672000005085, 4.073810800000501]"	304.492007300003	304.4978112000026	305.98972050000157	306.006203500001								10	03	2024-02-06_16h24.11.531	BART_exp	2023.2.3	119.9472232213704	2024-02-06 16h24.22.736867 +0100	
balloon.png	92	0	23	23	21	306.006203500001													305.9898981000006	306.006203500001	306.006203500001	306.006203500001	306.006203500001	306.006203500001	-0.00087340000027325	-0.00087340000027325	-0.00087340000027325	306.006203500001	310.12492490000295	11	0.55	False	"[0.06851851851851852, 0.06851851851851852, 0.06851851851851852, 0.06851851851851852, 0.06851851851851852, 0.06851851851851852, 0.06851851851851852, 0.06851851851851852, 0.06851851851851852, 0.06851851851851852, 0.06851851851851852, 0.06851851851851852]"	"[-0.3685185185185185, -0.3685185185185185, -0.3685185185185185, -0.3685185185185185, -0.3685185185185185, -0.3685185185185185, -0.3685185185185185, -0.3685185185185185, -0.3685185185185185, -0.3685185185185185, -0.3685185185185185, -0.3685185185185185]"	"[1, 1, 1, 1, 1, 1, 1, 1, 1, 1, 1, 0]"	"[0, 0, 0, 0, 0, 0, 0, 0, 0, 0, 0, 0]"	"[0, 0, 0, 0, 0, 0, 0, 0, 0, 0, 0, 1]"	"[0.31714970000030007, 0.5338387999981933, 0.8755770999996457, 1.2839262999987113, 1.8004514999993262, 2.183779399998457, 2.850631599998451, 3.0840242999984184, 3.2673274999979185, 3.4757586999985506, 3.6840797000004386, 4.134148599998298]"	12	"[0.3100834000033501, 0.526775300000736, 0.8685078000016802, 1.2768620000024384, 1.7933903000011924, 2.1767112000015914, 2.8435676000008243, 3.076964300002146, 3.260256700003083, 3.4686881000016, 3.677011499999935, 4.127019200001087]"	"[0.3764301000010164, 0.5847924000008788, 1.0098121000009996, 1.3431714000034845, 1.9015472999999474, 2.3349300000008952, 2.9432772000000114, 3.151640400003089, 3.376685900002485, 3.5600273000018205, 3.7600421000024653, 4.127023400000326]"	310.12576150000314	310.1314990000028	311.623515700001	311.63992320000034								10	03	2024-02-06_16h24.11.531	BART_exp	2023.2.3	119.9472232213704	2024-02-06 16h24.22.736867 +0100	
balloon.png	53	0	24	24	12	311.63992320000034													311.6236941999996	311.63992320000034	311.63992320000034	311.63992320000034	311.63992320000034	311.63992320000034	-0.0008162000012816861	-0.0008162000012816861	-0.0008162000012816861	311.63992320000034	318.28371960000004	16	0.80	False	"[0.06851851851851852, 0.06851851851851852, 0.06851851851851852, 0.06851851851851852, 0.06851851851851852, 0.06851851851851852, 0.06851851851851852, 0.06851851851851852, 0.06851851851851852, 0.06851851851851852, 0.06851851851851852, 0.06851851851851852, 0.06851851851851852, 0.06851851851851852, 0.06851851851851852, 0.06851851851851852, 0.06851851851851852]"	"[-0.3685185185185185, -0.3685185185185185, -0.3685185185185185, -0.3685185185185185, -0.3685185185185185, -0.3685185185185185, -0.3685185185185185, -0.3685185185185185, -0.3685185185185185, -0.3685185185185185, -0.3685185185185185, -0.3685185185185185, -0.3685185185185185, -0.3685185185185185, -0.3685185185185185, -0.3685185185185185, -0.3685185185185185]"	"[1, 1, 1, 1, 1, 1, 1, 1, 1, 1, 1, 1, 1, 1, 1, 1, 0]"	"[0, 0, 0, 0, 0, 0, 0, 0, 0, 0, 0, 0, 0, 0, 0, 0, 0]"	"[0, 0, 0, 0, 0, 0, 0, 0, 0, 0, 0, 0, 0, 0, 0, 0, 1]"	"[0.2920942999990075, 0.5087404000005336, 0.6671352000012121, 0.8588003000004392, 1.0754603000023053, 1.2838282000011532, 1.6421464000013657, 1.9005012000015995, 2.275515600002109, 3.1005887999999686, 3.3422132000014244, 3.700608999999531, 4.425627399999939, 5.059048400002212, 5.342279600001348, 5.850875399999495, 6.659124800000427]"	17	"[0.2890843999994104, 0.5057299000000057, 0.6641291999985697, 0.8557904999979655, 1.0724523999997473, 1.2808153000005404, 1.6391373999977077, 1.897496300000057, 2.272505799999635, 3.0975768999996944, 3.3392003000008117, 3.697599999999511, 4.422625600000174, 5.056041699997877, 5.339266499999212, 5.847874399998545, 6.656053200000315]"	"[0.3804534999981115, 0.5637739999983751, 0.772108199998911, 0.9804490999995323, 1.1637880999987829, 1.3888202999987698, 1.7221552999981213, 2.0055174000008265, 2.388887799999793, 3.2056510000002163, 3.4222659999977623, 3.7973514000004798, 4.589078299999528, 5.197552699999505, 5.4390856999998505, 5.964298899998539, 6.6560575000003155]"	318.2845610000004	318.2903810000025	319.7823798000027	319.7988129000005								10	03	2024-02-06_16h24.11.531	BART_exp	2023.2.3	119.9472232213704	2024-02-06 16h24.22.736867 +0100	
balloon.png	40	0	25	25	9	319.7988129000005													319.78256619999956	319.7988129000005	319.7988129000005	319.7988129000005	319.7988129000005	319.7988129000005	-0.0007364999983110465	-0.0007364999983110465	-0.0007364999983110465	319.7988129000005	330.42629840000154	21	1.05	False	"[0.06851851851851852, 0.06851851851851852, 0.06851851851851852, 0.06851851851851852, 0.06851851851851852, 0.06851851851851852, 0.06851851851851852, 0.06851851851851852, 0.06851851851851852, 0.06851851851851852, 0.06851851851851852, 0.06851851851851852, 0.06851851851851852, 0.06851851851851852, 0.06851851851851852, 0.06851851851851852, 0.06851851851851852, 0.06851851851851852, 0.06851851851851852, 0.06851851851851852, 0.06851851851851852, 0.06851851851851852]"	"[-0.3685185185185185, -0.3685185185185185, -0.3685185185185185, -0.3685185185185185, -0.3685185185185185, -0.3685185185185185, -0.3685185185185185, -0.3685185185185185, -0.3685185185185185, -0.3685185185185185, -0.3685185185185185, -0.3685185185185185, -0.3685185185185185, -0.3685185185185185, -0.3685185185185185, -0.3685185185185185, -0.3685185185185185, -0.3685185185185185, -0.3685185185185185, -0.3685185185185185, -0.3685185185185185, -0.3685185185185185]"	"[1, 1, 1, 1, 1, 1, 1, 1, 1, 1, 1, 1, 1, 1, 1, 1, 1, 1, 1, 1, 1, 0]"	"[0, 0, 0, 0, 0, 0, 0, 0, 0, 0, 0, 0, 0, 0, 0, 0, 0, 0, 0, 0, 0, 0]"	"[0, 0, 0, 0, 0, 0, 0, 0, 0, 0, 0, 0, 0, 0, 0, 0, 0, 0, 0, 0, 0, 1]"	"[0.31707019999885233, 0.7752786999990349, 1.175300499999139, 1.7338476999975683, 2.150412899998628, 2.758795399997325, 2.9838155999968876, 3.2087662999983877, 3.8422726999997394, 4.667354699999123, 5.0172236999969755, 5.434044499997981, 6.217333999997209, 6.642564099998708, 7.042571799996949, 7.709253299999546, 8.159157799997047, 8.759167099997285, 9.034280799998669, 9.492745299998205, 10.0597944000001, 10.642806799998652]"	22	"[0.31295329999920796, 0.7711607000019285, 1.1711928000004264, 1.729728199999954, 2.146299200001522, 2.7546774000002188, 2.9797280999991926, 3.204646900001535, 3.8297818999999436, 4.663237799999479, 5.013103299999784, 5.429924799998844, 6.2132218000006105, 6.6384498000006715, 7.038455599998997, 7.705136600001424, 8.155040099998587, 8.755047099999501, 9.030161999999109, 9.4886336999989, 10.055704700000206, 10.638628600001539]"	"[0.42931360000147833, 0.8711293000014848, 1.2710358000003907, 1.8544414999996661, 2.2711563000011665, 2.887805499998649, 3.062824600001477, 3.3628353999993124, 3.971544299998641, 4.829637800001365, 5.137956900001882, 5.57133260000046, 6.3547208000018145, 6.7797551000003295, 7.188116199999058, 7.846474400001171, 8.271545399999013, 8.854885199998535, 9.154922500001703, 9.604965200000152, 10.188312199999928, 10.638632499998494]"	330.4272349000021	330.4328779999996	331.9248293000019	331.94964489999984								10	03	2024-02-06_16h24.11.531	BART_exp	2023.2.3	119.9472232213704	2024-02-06 16h24.22.736867 +0100	
balloon.png	79	0	26	26	18	331.94964489999984													331.925006700003	331.94964489999984	331.94964489999984	331.94964489999984	331.94964489999984	331.94964489999984	-0.000945699997828342	-0.000945699997828342	-0.000945699997828342	331.94964489999984	343.5186912999998	37	1.85	False	"[0.06851851851851852, 0.06851851851851852, 0.06851851851851852, 0.06851851851851852, 0.06851851851851852, 0.06851851851851852, 0.06851851851851852, 0.06851851851851852, 0.06851851851851852, 0.06851851851851852, 0.06851851851851852, 0.06851851851851852, 0.06851851851851852, 0.06851851851851852, 0.06851851851851852, 0.06851851851851852, 0.06851851851851852, 0.06851851851851852, 0.06851851851851852, 0.06851851851851852, 0.06851851851851852, 0.06851851851851852, 0.06851851851851852, 0.06851851851851852, 0.06851851851851852, 0.06851851851851852, 0.06851851851851852, 0.06851851851851852, 0.06851851851851852, 0.06851851851851852, 0.06851851851851852, 0.06851851851851852, 0.06851851851851852, 0.06851851851851852, 0.06851851851851852, 0.06851851851851852, 0.06851851851851852, 0.06851851851851852]"	"[-0.3685185185185185, -0.3685185185185185, -0.3685185185185185, -0.3685185185185185, -0.3685185185185185, -0.3685185185185185, -0.3685185185185185, -0.3685185185185185, -0.3685185185185185, -0.3685185185185185, -0.3685185185185185, -0.3685185185185185, -0.3685185185185185, -0.3685185185185185, -0.3685185185185185, -0.3685185185185185, -0.3685185185185185, -0.3685185185185185, -0.3685185185185185, -0.3685185185185185, -0.3685185185185185, -0.3685185185185185, -0.3685185185185185, -0.3685185185185185, -0.3685185185185185, -0.3685185185185185, -0.3685185185185185, -0.3685185185185185, -0.3685185185185185, -0.3685185185185185, -0.3685185185185185, -0.3685185185185185, -0.3685185185185185, -0.3685185185185185, -0.3685185185185185, -0.3685185185185185, -0.3685185185185185, -0.3685185185185185]"	"[1, 1, 1, 1, 1, 1, 1, 1, 1, 1, 1, 1, 1, 1, 1, 1, 1, 1, 1, 1, 1, 1, 1, 1, 1, 1, 1, 1, 1, 1, 1, 1, 1, 1, 1, 1, 1, 0]"	"[0, 0, 0, 0, 0, 0, 0, 0, 0, 0, 0, 0, 0, 0, 0, 0, 0, 0, 0, 0, 0, 0, 0, 0, 0, 0, 0, 0, 0, 0, 0, 0, 0, 0, 0, 0, 0, 0]"	"[0, 0, 0, 0, 0, 0, 0, 0, 0, 0, 0, 0, 0, 0, 0, 0, 0, 0, 0, 0, 0, 0, 0, 0, 0, 0, 0, 0, 0, 0, 0, 0, 0, 0, 0, 0, 0, 1]"	"[0.30042609999873093, 0.5672400999974343, 0.8170637999974133, 1.033671900000627, 1.258703899999091, 1.5088446999980079, 1.8754805999997188, 2.1088732999996864, 2.375573400000576, 2.6755644000004395, 2.950661700000637, 3.2171424999978626, 3.4590028999991773, 3.6924155999986397, 3.9423668999988877, 4.208871899998485, 4.450540699999692, 4.709105899997667, 4.950770999999804, 5.400642399999924, 5.71751310000036, 5.942543099998147, 6.192350299999816, 6.675860100000136, 6.9592783999978565, 7.142578899998625, 7.359270400000241, 7.5509624000005715, 7.7924566000001505, 8.209138899997924, 8.71768019999945, 9.159387499999866, 9.375912999999855, 9.776095400000486, 10.16778599999816, 10.45100839999941, 10.825993599999492, 11.592743999997765]"	38	"[0.2881935000004887, 0.555012099997839, 0.8048294000000169, 1.0214396999981545, 1.246468699999241, 1.4966165000005276, 1.8549062999991293, 2.0966407999985677, 2.363343099998019, 2.663339399998222, 2.9384284999978263, 3.2049536000013177, 3.446775600001274, 3.6801887000001443, 3.9301384999998845, 4.196639900001173, 4.438305600000604, 4.696875099998579, 4.938536699999531, 5.388405599998805, 5.705281300000934, 5.930310799998551, 6.1801191000013205, 6.6636266999994405, 6.947048099998938, 7.130348899998353, 7.347037499999715, 7.5387293999992835, 7.780225200000132, 8.196902200001205, 8.705454200000531, 9.147155800001201, 9.363680899998144, 9.763862299998436, 10.15555250000034, 10.43877330000032, 10.813763300000574, 11.5804492999996]"	"[0.40457210000022314, 0.6545655000008992, 0.8964059999998426, 1.1212903999985429, 1.3796288000012282, 1.6130258000011963, 1.9713516999981948, 2.1964598999984446, 2.479719099999784, 2.813077200000407, 3.079768100000365, 3.3214788000004773, 3.554779199999757, 3.8382050000000163, 4.046517399998265, 4.304963800001133, 4.580017500000395, 4.813196299997799, 5.04655609999827, 5.496645700000954, 5.763255599998956, 6.021669400000974, 6.296640900000057, 6.780005900000106, 7.021806900000229, 7.230041499999061, 7.421726299999136, 7.6383827999998175, 7.8384512000011455, 8.305112300000474, 8.805149399999209, 9.238517099998717, 9.430192899999383, 9.855273699999088, 10.221899799998937, 10.50525800000105, 10.888609900001029, 11.5804535999996]"	343.5199661000006	343.5254696000011	345.0174050000023	345.02556000000186								10	03	2024-02-06_16h24.11.531	BART_exp	2023.2.3	119.9472232213704	2024-02-06 16h24.22.736867 +0100	
balloon.png	27	0	27	27	6	345.02556000000186													345.017588900002	345.02556000000186	345.02556000000186	345.02556000000186	345.02556000000186	345.02556000000186	0.005658300000504823	0.005658300000504823	0.005658300000504823	345.02556000000186	354.0281560000003	28	1.35	True	"[0.06851851851851852, 0.06851851851851852, 0.06851851851851852, 0.06851851851851852, 0.06851851851851852, 0.06851851851851852, 0.06851851851851852, 0.06851851851851852, 0.06851851851851852, 0.06851851851851852, 0.06851851851851852, 0.06851851851851852, 0.06851851851851852, 0.06851851851851852, 0.06851851851851852, 0.06851851851851852, 0.06851851851851852, 0.06851851851851852, 0.06851851851851852, 0.06851851851851852, 0.06851851851851852, 0.06851851851851852, 0.06851851851851852, 0.06851851851851852, 0.06851851851851852, 0.06851851851851852, 0.06851851851851852, 0.06851851851851852]"	"[-0.3685185185185185, -0.3685185185185185, -0.3685185185185185, -0.3685185185185185, -0.3685185185185185, -0.3685185185185185, -0.3685185185185185, -0.3685185185185185, -0.3685185185185185, -0.3685185185185185, -0.3685185185185185, -0.3685185185185185, -0.3685185185185185, -0.3685185185185185, -0.3685185185185185, -0.3685185185185185, -0.3685185185185185, -0.3685185185185185, -0.3685185185185185, -0.3685185185185185, -0.3685185185185185, -0.3685185185185185, -0.3685185185185185, -0.3685185185185185, -0.3685185185185185, -0.3685185185185185, -0.3685185185185185, -0.3685185185185185]"	"[1, 1, 1, 1, 1, 1, 1, 1, 1, 1, 1, 1, 1, 1, 1, 1, 1, 1, 1, 1, 1, 1, 1, 1, 1, 1, 1, 1]"	"[0, 0, 0, 0, 0, 0, 0, 0, 0, 0, 0, 0, 0, 0, 0, 0, 0, 0, 0, 0, 0, 0, 0, 0, 0, 0, 0, 0]"	"[0, 0, 0, 0, 0, 0, 0, 0, 0, 0, 0, 0, 0, 0, 0, 0, 0, 0, 0, 0, 0, 0, 0, 0, 0, 0, 0, 0]"	"[0.4172056000024895, 0.6338465000008, 0.8421694000026037, 1.0755243000021437, 1.3253642000017862, 1.567174800002249, 1.8005703000017093, 2.042475900001591, 2.325525200001721, 2.5504536000007647, 2.7756308000025456, 2.9923025999996753, 3.283851100000902, 3.6838793999995687, 4.350582499999291, 4.600745100000495, 4.759153099999821, 4.967434600002889, 5.359124000002339, 5.892365800002153, 6.117412300001888, 6.300720600000204, 6.842603200002486, 7.626223400002345, 7.851039100001799, 8.017794900002627, 8.459362699999474, 8.925925499999721]"	28	"[0.41532940000251983, 0.6319594000015059, 0.8402891000005184, 1.0736398000008194, 1.323477300000377, 1.5652889000011783, 1.7986855000017385, 2.0405929000007745, 2.32364150000285, 2.5485694000017247, 2.773746700000629, 2.990422500002751, 3.2819683000016084, 3.681991500001459, 4.348696000000928, 4.598860100002639, 4.75726510000095, 4.965550700002495, 5.357241100002284, 5.89048140000159, 6.115527600002679, 6.298832800002856, 6.8407165000026, 7.624344899999414, 7.849154200001067, 8.015916399999696, 8.457480000000942, 8.924039300000004]"	"[0.4899619000025268, 0.7150252000028559, 0.9483149000006961, 1.1650055999998585, 1.3983377000004111, 1.6567802000026859, 1.9150593000013032, 2.1483993000001647, 2.42340040000272, 2.656756899999891, 2.8817868000005546, 3.131795500001317, 3.390193100000033, 3.8069399000014528, 4.475074900001346, 4.673588500001642, 4.856994900001155, 5.056932100000267, 5.473614200000156, 5.998664599999756, 6.190329799999745, 6.357015900000988, 6.982318700000178, 7.740467600000557, 7.932129500000883, 8.082225300000573, 8.548835699999472, 8.998882700001559]"	354.02924090000306	354.03449030000047	355.5264519000011	355.5346763000016								10	03	2024-02-06_16h24.11.531	BART_exp	2023.2.3	119.9472232213704	2024-02-06 16h24.22.736867 +0100	
balloon.png	114	0	28	28	26	355.5346763000016													355.52663010000106	355.5346763000016	355.5346763000016	355.5346763000016	355.5346763000016	355.5346763000016	0.005495199999131728			355.5346763000016	359.45322339999984	14	0.70	False	"[0.06851851851851852, 0.06851851851851852, 0.06851851851851852, 0.06851851851851852, 0.06851851851851852, 0.06851851851851852, 0.06851851851851852, 0.06851851851851852, 0.06851851851851852, 0.06851851851851852, 0.06851851851851852, 0.06851851851851852, 0.06851851851851852, 0.06851851851851852, 0.06851851851851852]"	"[-0.3685185185185185, -0.3685185185185185, -0.3685185185185185, -0.3685185185185185, -0.3685185185185185, -0.3685185185185185, -0.3685185185185185, -0.3685185185185185, -0.3685185185185185, -0.3685185185185185, -0.3685185185185185, -0.3685185185185185, -0.3685185185185185, -0.3685185185185185, -0.3685185185185185]"	"[1, 1, 1, 1, 1, 1, 1, 1, 1, 1, 1, 1, 1, 1, 0]"	"[0, 0, 0, 0, 0, 0, 0, 0, 0, 0, 0, 0, 0, 0, 0]"	"[0, 0, 0, 0, 0, 0, 0, 0, 0, 0, 0, 0, 0, 0, 1]"	"[0.45048859999951674, 0.6421235000016168, 0.8671815999987302, 1.0755624000012176, 1.2505569999993895, 1.4505269000001135, 1.6421918000014557, 1.8588872000000265, 2.325485600002139, 2.492278500001703, 2.65900270000202, 2.9838732999996864, 3.1755508999995072, 3.5340477999998257, 3.925701600001048]"	15	"[0.44859660000292934, 0.6402308000033372, 0.8652885000010428, 1.073675200001162, 1.2486673000021256, 1.448639500002173, 1.6402966000023298, 1.856994500001747, 2.3235955000018294, 2.4903891000030853, 2.657124700002896, 2.9819788000022527, 3.1736588000021584, 3.532159300000785, 3.923755700001493]"	"[0.5149556000033044, 0.7316305000022112, 0.9483205000033195, 1.1484637000030489, 1.3567107000017131, 1.5400353000004543, 1.7733973000031256, 1.9400564000025042, 2.3817832000022463, 2.548447600001964, 2.748488700002781, 3.0401321000026655, 3.2237638000005973, 3.6568821000000753, 3.9237600000014936]"	359.4540930000003	359.459906600001	360.95185839999976	360.968298900003								10	03	2024-02-06_16h24.11.531	BART_exp	2023.2.3	119.9472232213704	2024-02-06 16h24.22.736867 +0100	
balloon.png	14	0	29	29	3	360.968298900003													360.9520427999996	360.968298900003	360.968298900003	360.968298900003	360.968298900003	360.968298900003	-0.0007761000015307218	-0.0007761000015307218	-0.0007761000015307218	360.968298900003	365.287189900002	15	0.70	True	"[0.06851851851851852, 0.06851851851851852, 0.06851851851851852, 0.06851851851851852, 0.06851851851851852, 0.06851851851851852, 0.06851851851851852, 0.06851851851851852, 0.06851851851851852, 0.06851851851851852, 0.06851851851851852, 0.06851851851851852, 0.06851851851851852, 0.06851851851851852, 0.06851851851851852]"	"[-0.3685185185185185, -0.3685185185185185, -0.3685185185185185, -0.3685185185185185, -0.3685185185185185, -0.3685185185185185, -0.3685185185185185, -0.3685185185185185, -0.3685185185185185, -0.3685185185185185, -0.3685185185185185, -0.3685185185185185, -0.3685185185185185, -0.3685185185185185, -0.3685185185185185]"	"[1, 1, 1, 1, 1, 1, 1, 1, 1, 1, 1, 1, 1, 1, 1]"	"[0, 0, 0, 0, 0, 0, 0, 0, 0, 0, 0, 0, 0, 0, 0]"	"[0, 0, 0, 0, 0, 0, 0, 0, 0, 0, 0, 0, 0, 0, 0]"	"[0.5752611999996589, 0.8504425999999512, 1.0588091000026907, 1.2838078000022506, 1.5336458000019775, 1.775567000000592, 2.0004595999998855, 2.233844100002898, 2.433875700000499, 2.6589230000026873, 2.858971699999529, 3.0839641000020492, 3.6091014000012365, 3.809024000001955, 4.217304100002366]"	15	"[0.5703150000008463, 0.8454901000004611, 1.0538648999972793, 1.2788699999982782, 1.5286985999991884, 1.7706184999988182, 1.9955143999977736, 2.2289000999990094, 2.428925399999571, 2.6539808999987144, 2.8540217999980086, 3.079022999998415, 3.6041508999987855, 3.8040904000008595, 4.212354799998138]"	"[0.6951699999990524, 0.936843499999668, 1.1618707999987237, 1.3785767999979726, 1.6202821000006224, 1.8202406999989762, 2.103596999997535, 2.3119659000003594, 2.5536326999972516, 2.770329299997684, 2.986982899998111, 3.162040299997898, 3.678709699997853, 3.9038000000000466, 4.320422699998744]"	365.2879861000001	365.29359810000096	366.78572189999977	366.7937140000031								10	03	2024-02-06_16h24.11.531	BART_exp	2023.2.3	119.9472232213704	2024-02-06 16h24.22.736867 +0100	
																																														366.78576020000037	366.7937140000031	366.7937140000031	378.9700112999999	space	12.174947399998928	None	10	03	2024-02-06_16h24.11.531	BART_exp	2023.2.3	119.9472232213704	2024-02-06 16h24.22.736867 +0100	
