diceImage	d_number	dice_loop.thisRepN	dice_loop.thisTrialN	dice_loop.thisN	dice_loop.thisIndex	thisRow.t	notes	Start.started	text_start.started	continue_start.started	mouse_start.started	Start.stopped	mouse_start.x	mouse_start.y	mouse_start.leftButton	mouse_start.midButton	mouse_start.rightButton	mouse_start.time	trial.started	box_dice.started	text_dice_header.started	text_gain.started	value_gain.started	text_bank.started	value_bank.started	img_dice_1.started	img_dice_2.started	img_dice_3.started	img_dice_4.started	img_dice_5.started	img_dice_6.started	img_dice_1_2.started	img_dice_3_4.started	img_dice_5_6.started	img_dice_1_2_3.started	img_dice_4_5_6.started	img_dice_1_2_3_4.started	img_dice_2_3_4_5.started	img_dice_3_4_5_6.started	text_value_header.started	text_value_1000.started	text_value_500.started	text_value_200.started	text_value_100.started	mouse_task.started	gain_sound.started	img_dice_throw_trials.started	gain_sound.stopped	img_dice_throw_trials.stopped	trial.stopped	mouse_task.x	mouse_task.y	mouse_task.leftButton	mouse_task.midButton	mouse_task.rightButton	mouse_task.time	choice	gain	loss_sound.started	End.started	text_end.started	key_end.started	End.stopped	key_end.keys	key_end.rt	key_end.duration	participant	session	date	expName	psychopyVersion	frameRate	expStart	
								0.0011844999971799552	0.008294700004626065	0.008294700004626065	0.001510899979621172	36.770245800027624	[0.7157407407407408]	[-0.38425925925925924]	[1]	[0]	[0]	[36.76805710000917]																																																	33	03	2024-02-27_09h48.06.974	GDT_exp	2023.2.3	122.35768575147226	2024-02-27 09h48.18.571060 +0100	
dice_2.png	2	0	0	0	1	36.84559590002755													36.77574720000848	36.84559590002755	36.84559590002755	36.84559590002755	36.84559590002755	36.84559590002755	36.84559590002755	36.84559590002755	36.84559590002755	36.84559590002755	36.84559590002755	36.84559590002755	36.84559590002755	36.84559590002755	36.84559590002755	36.84559590002755	36.84559590002755	36.84559590002755	36.84559590002755	36.84559590002755	36.84559590002755	36.84559590002755	36.84559590002755	36.84559590002755	36.84559590002755	36.84559590002755	0.023284199996851385	9.607249799999408	46.43509649997577	11.119496300001629	47.97326110000722	47.942338399996515	"[-0.16666666666666666, -0.16666666666666666]"	"[-0.325, -0.325]"	"[1, 0]"	"[0, 0]"	"[0, 1]"	"[9.290426200022921, 9.552079200046137]"	4	100									33	03	2024-02-27_09h48.06.974	GDT_exp	2023.2.3	122.35768575147226	2024-02-27 09h48.18.571060 +0100	
dice_3.png	3	0	1	1	2	47.97326110000722													47.94326109997928	47.97326110000722	47.97326110000722	47.97326110000722	47.97326110000722	47.97326110000722	47.97326110000722	47.97326110000722	47.97326110000722	47.97326110000722	47.97326110000722	47.97326110000722	47.97326110000722	47.97326110000722	47.97326110000722	47.97326110000722	47.97326110000722	47.97326110000722	47.97326110000722	47.97326110000722	47.97326110000722	47.97326110000722	47.97326110000722	47.97326110000722	47.97326110000722	47.97326110000722	0.010317599982954562	0.4776270000147633	48.48075390001759	1.9956664000055753	50.02664729999378	49.991430299996864	"[-0.16666666666666666, -0.16666666666666666]"	"[-0.325, -0.325]"	"[1, 0]"	"[0, 0]"	"[0, 1]"	"[0.24369350000051782, 0.4672073000110686]"	4	100									33	03	2024-02-27_09h48.06.974	GDT_exp	2023.2.3	122.35768575147226	2024-02-27 09h48.18.571060 +0100	
dice_6.png	6	0	2	2	5	50.02664729999378													49.99206570000388	50.02664729999378	50.02664729999378	50.02664729999378	50.02664729999378	50.02664729999378	50.02664729999378	50.02664729999378	50.02664729999378	50.02664729999378	50.02664729999378	50.02664729999378	50.02664729999378	50.02664729999378	50.02664729999378	50.02664729999378	50.02664729999378	50.02664729999378	50.02664729999378	50.02664729999378	50.02664729999378	50.02664729999378	50.02664729999378	50.02664729999378	50.02664729999378	50.02664729999378	0.013615700008813292		50.81902210001135		52.36374770000111	52.328773299988825	"[-0.29907407407407405, -0.29907407407407405, -0.29907407407407405]"	"[-0.13055555555555556, -0.13055555555555556, -0.13055555555555556]"	"[1, 0, 1]"	"[0, 0, 0]"	"[0, 1, 0]"	"[0.26067930000135675, 0.7488022000179626, 2.1884547999943607]"	2	-500	0.7624398999614641								33	03	2024-02-27_09h48.06.974	GDT_exp	2023.2.3	122.35768575147226	2024-02-27 09h48.18.571060 +0100	
dice_4.png	4	0	3	3	3	52.36374770000111													52.329337499977555	52.36374770000111	52.36374770000111	52.36374770000111	52.36374770000111	52.36374770000111	52.36374770000111	52.36374770000111	52.36374770000111	52.36374770000111	52.36374770000111	52.36374770000111	52.36374770000111	52.36374770000111	52.36374770000111	52.36374770000111	52.36374770000111	52.36374770000111	52.36374770000111	52.36374770000111	52.36374770000111	52.36374770000111	52.36374770000111	52.36374770000111	52.36374770000111	52.36374770000111	0.012936400016769767	0.8275157000171021	53.211680400010664	2.3484482999774627	54.75815730000613	54.73012259998359	"[-0.2222222222222222, -0.1574074074074074]"	"[-0.14166666666666666, -0.05]"	"[0, 1]"	"[0, 0]"	"[1, 0]"	"[0.8145615999819711, 2.168429200013634]"	2	500									33	03	2024-02-27_09h48.06.974	GDT_exp	2023.2.3	122.35768575147226	2024-02-27 09h48.18.571060 +0100	
dice_5.png	5	0	4	4	4	54.75815730000613													54.73070040001767	54.75815730000613	54.75815730000613	54.75815730000613	54.75815730000613	54.75815730000613	54.75815730000613	54.75815730000613	54.75815730000613	54.75815730000613	54.75815730000613	54.75815730000613	54.75815730000613	54.75815730000613	54.75815730000613	54.75815730000613	54.75815730000613	54.75815730000613	54.75815730000613	54.75815730000613	54.75815730000613	54.75815730000613	54.75815730000613	54.75815730000613	54.75815730000613	54.75815730000613	0.008056000049691647		55.29062330001034		56.83925120002823	56.807309499999974	"[-0.1574074074074074, -0.1574074074074074, -0.3111111111111111]"	"[-0.05, -0.05, -0.008333333333333333]"	"[1, 0, 1]"	"[0, 0, 0]"	"[0, 1, 0]"	"[0.2764898000168614, 0.4912086999975145, 1.0764710999792442]"	1	-1000	0.4994126000092365								33	03	2024-02-27_09h48.06.974	GDT_exp	2023.2.3	122.35768575147226	2024-02-27 09h48.18.571060 +0100	
dice_1.png	1	0	5	5	0	56.83925120002823													56.80791799997678	56.83925120002823	56.83925120002823	56.83925120002823	56.83925120002823	56.83925120002823	56.83925120002823	56.83925120002823	56.83925120002823	56.83925120002823	56.83925120002823	56.83925120002823	56.83925120002823	56.83925120002823	56.83925120002823	56.83925120002823	56.83925120002823	56.83925120002823	56.83925120002823	56.83925120002823	56.83925120002823	56.83925120002823	56.83925120002823	56.83925120002823	56.83925120002823	56.83925120002823	0.010696099954657257		57.33618769998429		58.8826151000103	58.85114839999005	"[-0.022222222222222223, -0.022222222222222223, 0.10277777777777777, 0.10277777777777777]"	"[-0.2675925925925926, -0.2675925925925926, -0.1814814814814815, -0.1638888888888889]"	"[1, 0, 1, 1]"	"[0, 0, 0, 0]"	"[0, 1, 0, 0]"	"[0.08596519997809082, 0.4617376999813132, 1.1696116999955848, 1.9318813999998383]"	3	-200	0.47261639998760074								33	03	2024-02-27_09h48.06.974	GDT_exp	2023.2.3	122.35768575147226	2024-02-27 09h48.18.571060 +0100	
dice_6.png	6	1	0	6	5	58.8826151000103													58.851885400014	58.8826151000103	58.8826151000103	58.8826151000103	58.8826151000103	58.8826151000103	58.8826151000103	58.8826151000103	58.8826151000103	58.8826151000103	58.8826151000103	58.8826151000103	58.8826151000103	58.8826151000103	58.8826151000103	58.8826151000103	58.8826151000103	58.8826151000103	58.8826151000103	58.8826151000103	58.8826151000103	58.8826151000103	58.8826151000103	58.8826151000103	58.8826151000103	58.8826151000103	0.01048550003906712	0.30682990001514554	59.21516830002656	1.8123362000333145	60.75692409998737	60.722301799978595	[0.10277777777777777]	[-0.1638888888888889]	[0]	[0]	[1]	[0.29615509998984635]	2	500									33	03	2024-02-27_09h48.06.974	GDT_exp	2023.2.3	122.35768575147226	2024-02-27 09h48.18.571060 +0100	
dice_2.png	2	1	1	7	1	60.75692409998737													60.72283199999947	60.75692409998737	60.75692409998737	60.75692409998737	60.75692409998737	60.75692409998737	60.75692409998737	60.75692409998737	60.75692409998737	60.75692409998737	60.75692409998737	60.75692409998737	60.75692409998737	60.75692409998737	60.75692409998737	60.75692409998737	60.75692409998737	60.75692409998737	60.75692409998737	60.75692409998737	60.75692409998737	60.75692409998737	60.75692409998737	60.75692409998737	60.75692409998737	60.75692409998737	0.013234300015028566	0.549457400047686	61.329117299988866	2.068878300022334	62.886867900029756	62.85160709999036	"[-0.5916666666666667, -0.5916666666666667, -0.35462962962962963]"	"[-0.3398148148148148, -0.3398148148148148, -0.34814814814814815]"	"[1, 0, 1]"	"[0, 0, 0]"	"[0, 1, 0]"	"[0.23442240001168102, 0.5360686999629252, 1.742456600011792]"	4	100									33	03	2024-02-27_09h48.06.974	GDT_exp	2023.2.3	122.35768575147226	2024-02-27 09h48.18.571060 +0100	
dice_3.png	3	1	2	8	2	62.886867900029756													62.85221620002994	62.886867900029756	62.886867900029756	62.886867900029756	62.886867900029756	62.886867900029756	62.886867900029756	62.886867900029756	62.886867900029756	62.886867900029756	62.886867900029756	62.886867900029756	62.886867900029756	62.886867900029756	62.886867900029756	62.886867900029756	62.886867900029756	62.886867900029756	62.886867900029756	62.886867900029756	62.886867900029756	62.886867900029756	62.886867900029756	62.886867900029756	62.886867900029756	62.886867900029756	0.013629399996716529	1.2426740000373684	64.15794409997761	2.7622671000426635	65.72380279999925	65.69549220002955	"[-0.3537037037037037, -0.3287037037037037, -0.3277777777777778, 0.08796296296296297]"	"[-0.34814814814814815, -0.35, -0.35, -0.3611111111111111]"	"[0, 1, 0, 1]"	"[0, 0, 0, 0]"	"[1, 0, 1, 0]"	"[0.2752531999722123, 0.781521899974905, 1.228860999981407, 2.6582138999947347]"	4	100									33	03	2024-02-27_09h48.06.974	GDT_exp	2023.2.3	122.35768575147226	2024-02-27 09h48.18.571060 +0100	
dice_5.png	5	1	3	9	4	65.72380279999925													65.6961024000193	65.72380279999925	65.72380279999925	65.72380279999925	65.72380279999925	65.72380279999925	65.72380279999925	65.72380279999925	65.72380279999925	65.72380279999925	65.72380279999925	65.72380279999925	65.72380279999925	65.72380279999925	65.72380279999925	65.72380279999925	65.72380279999925	65.72380279999925	65.72380279999925	65.72380279999925	65.72380279999925	65.72380279999925	65.72380279999925	65.72380279999925	65.72380279999925	65.72380279999925	0.008158200012985617	0.5658397999941371	66.31811609998113	2.0850901000085287	67.86737549997633	67.83262120001018	"[0.08796296296296297, 0.08796296296296297]"	"[-0.3611111111111111, -0.3611111111111111]"	"[1, 0]"	"[0, 0]"	"[0, 1]"	"[0.2917363999877125, 0.5575267000240274]"	4	100									33	03	2024-02-27_09h48.06.974	GDT_exp	2023.2.3	122.35768575147226	2024-02-27 09h48.18.571060 +0100	
dice_1.png	1	1	4	10	0	67.86737549997633													67.83320110000204	67.86737549997633	67.86737549997633	67.86737549997633	67.86737549997633	67.86737549997633	67.86737549997633	67.86737549997633	67.86737549997633	67.86737549997633	67.86737549997633	67.86737549997633	67.86737549997633	67.86737549997633	67.86737549997633	67.86737549997633	67.86737549997633	67.86737549997633	67.86737549997633	67.86737549997633	67.86737549997633	67.86737549997633	67.86737549997633	67.86737549997633	67.86737549997633	67.86737549997633	0.013064500002656132		68.72204169997713		70.25150040001608	70.22067070001503	"[0.03148148148148148, 0.03425925925925926]"	"[-0.35, -0.35]"	"[1, 0]"	"[0, 0]"	"[0, 1]"	"[0.554168300004676, 0.818749799975194]"	4	-100	0.8319903999799863								33	03	2024-02-27_09h48.06.974	GDT_exp	2023.2.3	122.35768575147226	2024-02-27 09h48.18.571060 +0100	
dice_4.png	4	1	5	11	3	70.25150040001608													70.22128100000555	70.25150040001608	70.25150040001608	70.25150040001608	70.25150040001608	70.25150040001608	70.25150040001608	70.25150040001608	70.25150040001608	70.25150040001608	70.25150040001608	70.25150040001608	70.25150040001608	70.25150040001608	70.25150040001608	70.25150040001608	70.25150040001608	70.25150040001608	70.25150040001608	70.25150040001608	70.25150040001608	70.25150040001608	70.25150040001608	70.25150040001608	70.25150040001608	70.25150040001608	0.010165499988943338		71.21607850003056		72.77490319998469	72.73894519999158	"[-0.5444444444444444, -0.5333333333333333]"	"[-0.03425925925925926, -0.04722222222222222]"	"[1, 0]"	"[0, 0]"	"[0, 1]"	"[0.5688517999951728, 0.9255215000011958]"	1	-1000	0.9357635999913327								33	03	2024-02-27_09h48.06.974	GDT_exp	2023.2.3	122.35768575147226	2024-02-27 09h48.18.571060 +0100	
dice_1.png	1	2	0	12	0	72.77490319998469													72.7395189999952	72.77490319998469	72.77490319998469	72.77490319998469	72.77490319998469	72.77490319998469	72.77490319998469	72.77490319998469	72.77490319998469	72.77490319998469	72.77490319998469	72.77490319998469	72.77490319998469	72.77490319998469	72.77490319998469	72.77490319998469	72.77490319998469	72.77490319998469	72.77490319998469	72.77490319998469	72.77490319998469	72.77490319998469	72.77490319998469	72.77490319998469	72.77490319998469	72.77490319998469	0.014200799982063472		73.85786200000439		75.38367419998394	75.35288700001547	"[-0.35, -0.35]"	"[-0.05092592592592592, -0.05092592592592592]"	"[1, 0]"	"[0, 0]"	"[0, 1]"	"[0.714881099993363, 1.0441932000103407]"	1	-1000	1.058549800014589								33	03	2024-02-27_09h48.06.974	GDT_exp	2023.2.3	122.35768575147226	2024-02-27 09h48.18.571060 +0100	
dice_2.png	2	2	1	13	1	75.38367419998394													75.3535291000153	75.38367419998394	75.38367419998394	75.38367419998394	75.38367419998394	75.38367419998394	75.38367419998394	75.38367419998394	75.38367419998394	75.38367419998394	75.38367419998394	75.38367419998394	75.38367419998394	75.38367419998394	75.38367419998394	75.38367419998394	75.38367419998394	75.38367419998394	75.38367419998394	75.38367419998394	75.38367419998394	75.38367419998394	75.38367419998394	75.38367419998394	75.38367419998394	75.38367419998394	0.010381000000052154		75.9427162000211		77.48300150001887	77.45254710002337	"[0.004629629629629629, 0.004629629629629629]"	"[-0.04722222222222222, -0.04722222222222222]"	"[1, 0]"	"[0, 0]"	"[0, 1]"	"[0.19423840002855286, 0.519847400020808]"	1	-1000	0.5304245000006631								33	03	2024-02-27_09h48.06.974	GDT_exp	2023.2.3	122.35768575147226	2024-02-27 09h48.18.571060 +0100	
dice_5.png	5	2	2	14	4	77.48300150001887													77.45313179999357	77.48300150001887	77.48300150001887	77.48300150001887	77.48300150001887	77.48300150001887	77.48300150001887	77.48300150001887	77.48300150001887	77.48300150001887	77.48300150001887	77.48300150001887	77.48300150001887	77.48300150001887	77.48300150001887	77.48300150001887	77.48300150001887	77.48300150001887	77.48300150001887	77.48300150001887	77.48300150001887	77.48300150001887	77.48300150001887	77.48300150001887	77.48300150001887	77.48300150001887	0.01036069996189326	0.5921267999801785	78.10228669998469	2.1066067999927327	79.64213009999366	79.61162959999638	"[-0.10648148148148148, -0.10648148148148148]"	"[-0.21666666666666667, -0.2175925925925926]"	"[1, 0]"	"[0, 0]"	"[0, 1]"	"[0.1779730999842286, 0.5815741999540478]"	3	200									33	03	2024-02-27_09h48.06.974	GDT_exp	2023.2.3	122.35768575147226	2024-02-27 09h48.18.571060 +0100	
dice_3.png	3	2	3	15	2	79.64213009999366													79.61223590001464	79.64213009999366	79.64213009999366	79.64213009999366	79.64213009999366	79.64213009999366	79.64213009999366	79.64213009999366	79.64213009999366	79.64213009999366	79.64213009999366	79.64213009999366	79.64213009999366	79.64213009999366	79.64213009999366	79.64213009999366	79.64213009999366	79.64213009999366	79.64213009999366	79.64213009999366	79.64213009999366	79.64213009999366	79.64213009999366	79.64213009999366	79.64213009999366	79.64213009999366	0.010148500034119934		80.63954589999048		82.18703570001526	82.15689949999796	"[0.2, 0.2, 0.010185185185185186, 0.010185185185185186, 0.010185185185185186]"	"[-0.04722222222222222, -0.04722222222222222, -0.040740740740740744, -0.040740740740740744, -0.040740740740740744]"	"[1, 0, 1, 1, 1]"	"[0, 0, 0, 0, 0]"	"[0, 1, 0, 0, 0]"	"[0.6983949999557808, 0.9601110999938101, 1.556304799974896, 1.8376939999870956, 2.1800017999485135]"	1	-1000	0.9704594000359066								33	03	2024-02-27_09h48.06.974	GDT_exp	2023.2.3	122.35768575147226	2024-02-27 09h48.18.571060 +0100	
dice_4.png	4	2	4	16	3	82.18703570001526													82.15749910002341	82.18703570001526	82.18703570001526	82.18703570001526	82.18703570001526	82.18703570001526	82.18703570001526	82.18703570001526	82.18703570001526	82.18703570001526	82.18703570001526	82.18703570001526	82.18703570001526	82.18703570001526	82.18703570001526	82.18703570001526	82.18703570001526	82.18703570001526	82.18703570001526	82.18703570001526	82.18703570001526	82.18703570001526	82.18703570001526	82.18703570001526	82.18703570001526	82.18703570001526	0.010048800031654537		82.65417069999967		84.21119060000638	84.17547600000398	"[0.010185185185185186, 0.010185185185185186, -0.13796296296296295]"	"[-0.040740740740740744, -0.040740740740740744, -0.040740740740740744]"	"[1, 0, 1]"	"[0, 0, 0]"	"[0, 1, 0]"	"[0.1943825000198558, 0.428012199990917, 1.4730016000103205]"	1	-1000	0.4380790999857709								33	03	2024-02-27_09h48.06.974	GDT_exp	2023.2.3	122.35768575147226	2024-02-27 09h48.18.571060 +0100	
dice_6.png	6	2	5	17	5	84.21119060000638													84.17605499998899	84.21119060000638	84.21119060000638	84.21119060000638	84.21119060000638	84.21119060000638	84.21119060000638	84.21119060000638	84.21119060000638	84.21119060000638	84.21119060000638	84.21119060000638	84.21119060000638	84.21119060000638	84.21119060000638	84.21119060000638	84.21119060000638	84.21119060000638	84.21119060000638	84.21119060000638	84.21119060000638	84.21119060000638	84.21119060000638	84.21119060000638	84.21119060000638	84.21119060000638	0.013505499984603375		85.03776600002311		86.55998999997973	86.55525159998797	"[-0.1527777777777778, -0.1527777777777778]"	"[-0.040740740740740744, -0.040740740740740744]"	"[1, 0]"	"[0, 0]"	"[0, 1]"	"[0.3226294999476522, 0.7911967999534681]"	1	-1000	0.8046184999984689								33	03	2024-02-27_09h48.06.974	GDT_exp	2023.2.3	122.35768575147226	2024-02-27 09h48.18.571060 +0100	
																																																												86.55572890001349	86.55998999997973	86.55998999997973	99.39908679999644	space	12.835006600013003	None	33	03	2024-02-27_09h48.06.974	GDT_exp	2023.2.3	122.35768575147226	2024-02-27 09h48.18.571060 +0100	
