image	max_pumps	pump_loop.thisRepN	pump_loop.thisTrialN	pump_loop.thisN	pump_loop.thisIndex	thisRow.t	notes	Start.started	text_start.started	continue_start.started	mouse_start.started	Start.stopped	mouse_start.x	mouse_start.y	mouse_start.leftButton	mouse_start.midButton	mouse_start.rightButton	mouse_start.time	trials.started	stim_balloon.started	stim_balloon_burst.started	stim_balloon_burst.stopped	text_ballon_value.started	text_bank.started	mouse.started	sound_bang.started	sound_bang.stopped	button_balloon.started	trials.stopped	n_pumps	earnings	popped	mouse.x	mouse.y	mouse.leftButton	mouse.midButton	mouse.rightButton	mouse.time	button_balloon.numClicks	button_balloon.timesOn	button_balloon.timesOff	Feedback.started	text_feedback.started	Feedback.stopped	text_feedback.stopped	End.started	text_end.started	key_end.started	End.stopped	key_end.keys	key_end.rt	key_end.duration	participant	session	date	expName	psychopyVersion	frameRate	expStart	
								0.0010397000005468726	0.005415799998445436	0.005415799998445436	0.0013303000014275312	48.15950970000995	[0.7074074074074074]	[-0.3768518518518518]	[1]	[0]	[0]	[48.157497199994395]																																			32	01	2024-02-22_09h15.00.244	BART_exp	2023.2.3	119.99385632365167	2024-02-22 09h15.13.085763 +0100	
balloon.png	88	0	0	0	20	48.24408350000158													48.18428670000867	48.24408350000158	48.24408350000158	48.24408350000158	48.24408350000158	48.24408350000158	0.02649839999503456	0.02649839999503456	0.02649839999503456	48.24408350000158	65.7539303000085	17	0.85	False	"[-0.024074074074074074, -0.025, -0.025, -0.025, -0.025, -0.025, -0.025, -0.025, -0.025, -0.025, -0.025, -0.025, -0.025, -0.025, -0.025, -0.025, -0.025, -0.025]"	"[-0.39166666666666666, -0.39166666666666666, -0.39166666666666666, -0.39166666666666666, -0.39166666666666666, -0.39166666666666666, -0.39166666666666666, -0.39166666666666666, -0.39166666666666666, -0.39166666666666666, -0.39166666666666666, -0.39166666666666666, -0.39166666666666666, -0.39166666666666666, -0.39166666666666666, -0.39166666666666666, -0.39166666666666666, -0.39166666666666666]"	"[1, 1, 1, 1, 1, 1, 1, 1, 1, 1, 1, 1, 1, 1, 1, 1, 1, 0]"	"[0, 0, 0, 0, 0, 0, 0, 0, 0, 0, 0, 0, 0, 0, 0, 0, 0, 0]"	"[0, 0, 0, 0, 0, 0, 0, 0, 0, 0, 0, 0, 0, 0, 0, 0, 0, 1]"	"[2.559140800003661, 3.159214700004668, 4.042680800004746, 5.081780200009234, 5.950687800010201, 6.650665100009064, 7.459201799996663, 8.275872600002913, 9.026098000002094, 9.85933279999881, 10.501097600004869, 11.276132300001336, 11.901212900003884, 13.876222899998538, 14.951523600000655, 16.193357299998752, 17.01826890000666, 17.568406300008064]"	18	"[2.5049836999969557, 3.1050555999972858, 3.9885247999918647, 5.027596400002949, 5.896512499995879, 6.596488199997111, 7.405022799997823, 8.221690399994259, 8.971924299999955, 9.80516269999498, 10.446919199996046, 11.221947500001988, 11.847044299996924, 13.822041499995976, 14.897418900000048, 16.139186400003382, 16.96408700000029, 17.514159700003802]"	"[2.654621900001075, 3.2795575999916764, 4.121756900000037, 5.154861599992728, 6.063108499991358, 6.771359299993492, 7.5465894999942975, 8.346674500004156, 9.07995210000081, 9.946756599994842, 10.596833899995545, 11.388597199998912, 11.97184169999673, 13.938644099995145, 15.063630000004196, 16.25548799999524, 17.055582499990123, 17.514163899992127]"	65.7553695999959	65.76541950000683	67.2603453000047									32	01	2024-02-22_09h15.00.244	BART_exp	2023.2.3	119.99385632365167	2024-02-22 09h15.13.085763 +0100	
balloon.png	57	0	1	1	13	67.27319990000979													67.2605717999977	67.27319990000979	67.27319990000979	67.27319990000979	67.27319990000979	67.27319990000979	0.006589699987671338	0.006589699987671338	0.006589699987671338	67.27319990000979	83.6546737000026	20	1.00	False	"[0.021296296296296296, 0.021296296296296296, 0.021296296296296296, 0.021296296296296296, 0.021296296296296296, 0.021296296296296296, 0.021296296296296296, 0.021296296296296296, 0.021296296296296296, 0.021296296296296296, 0.021296296296296296, 0.021296296296296296, 0.021296296296296296, 0.021296296296296296, 0.021296296296296296, 0.021296296296296296, 0.021296296296296296, 0.021296296296296296, 0.021296296296296296, 0.021296296296296296, 0.15092592592592594]"	"[-0.37777777777777777, -0.37777777777777777, -0.37777777777777777, -0.37777777777777777, -0.37777777777777777, -0.37777777777777777, -0.37777777777777777, -0.37777777777777777, -0.37777777777777777, -0.37777777777777777, -0.37777777777777777, -0.37777777777777777, -0.37777777777777777, -0.37777777777777777, -0.37777777777777777, -0.37777777777777777, -0.37777777777777777, -0.37777777777777777, -0.37777777777777777, -0.37777777777777777, -0.2759259259259259]"	"[1, 1, 1, 1, 1, 1, 1, 1, 1, 1, 1, 1, 1, 1, 1, 1, 1, 1, 1, 1, 0]"	"[0, 0, 0, 0, 0, 0, 0, 0, 0, 0, 0, 0, 0, 0, 0, 0, 0, 0, 0, 0, 0]"	"[0, 0, 0, 0, 0, 0, 0, 0, 0, 0, 0, 0, 0, 0, 0, 0, 0, 0, 0, 0, 1]"	"[1.4756145999999717, 2.4422701000003144, 3.158858800001326, 3.7509450999932596, 4.417314599995734, 5.0423571999999695, 5.633965000000899, 6.275952700001653, 6.892745599994669, 7.634259800004656, 8.23419339999964, 8.801013100004639, 9.350943900004495, 9.976110899995547, 11.31791680000606, 12.47674119999283, 13.251377099993988, 13.959541399992304, 14.130258799996227, 15.034918999997899, 16.393085599993356]"	20	"[1.4682787999918219, 2.4349294999992708, 3.151507300004596, 3.7436871999962023, 4.41002870000375, 5.035013599990634, 5.62663739999698, 6.268612799991388, 6.885418999998365, 7.6269166999991285, 8.226845900004264, 8.793676200002665, 9.343586000002688, 9.968760100004147, 11.31057069999224, 12.469448599993484, 13.244031599999289, 13.952221700004884, 14.122931099991547, 15.027581000002101]"	"[1.6012765999912517, 2.5513228999916464, 3.260149299996556, 3.8514097000006586, 4.543208200004301, 5.1598247999936575, 5.734894900000654, 6.426550000003772, 7.009978899994167, 7.760072899996885, 8.343445799997426, 8.936667499991017, 9.501937499997439, 10.126891399995657, 11.435695399995893, 12.602551100004348, 13.380973999999696, 14.102049099994474, 14.231076399999438, 15.143910700004199]"	83.6558481999964	83.6612407000066	85.15354480000678	85.16381369999726								32	01	2024-02-22_09h15.00.244	BART_exp	2023.2.3	119.99385632365167	2024-02-22 09h15.13.085763 +0100	
balloon.png	14	0	2	2	3	85.16381369999726													85.15375090000452	85.16381369999726	85.16381369999726	85.16381369999726	85.16381369999726	85.16381369999726	-0.0006542999908560887	-0.0006542999908560887	-0.0006542999908560887	85.16381369999726	96.88134429999627	15	0.70	True	"[0.013888888888888888, 0.013888888888888888, 0.013888888888888888, 0.013888888888888888, 0.013888888888888888, 0.013888888888888888, 0.013888888888888888, 0.013888888888888888, 0.013888888888888888, 0.013888888888888888, 0.013888888888888888, 0.013888888888888888, 0.013888888888888888, 0.013888888888888888, 0.013888888888888888]"	"[-0.3972222222222222, -0.3972222222222222, -0.3972222222222222, -0.3972222222222222, -0.3972222222222222, -0.3972222222222222, -0.3972222222222222, -0.3972222222222222, -0.3972222222222222, -0.3972222222222222, -0.3972222222222222, -0.3972222222222222, -0.3972222222222222, -0.3972222222222222, -0.3972222222222222]"	"[1, 1, 1, 1, 1, 1, 1, 1, 1, 1, 1, 1, 1, 1, 1]"	"[0, 0, 0, 0, 0, 0, 0, 0, 0, 0, 0, 0, 0, 0, 0]"	"[0, 0, 0, 0, 0, 0, 0, 0, 0, 0, 0, 0, 0, 0, 0]"	"[1.2266757000033977, 2.49218679999467, 3.167080500003067, 3.89429779999773, 4.575552299997071, 5.283751299997675, 6.208909299995867, 6.90054109999619, 7.5757594000024255, 8.233934100004262, 8.892309599992586, 9.575895799993305, 10.225729800004046, 10.875808400000096, 11.568100899996352]"	15	"[1.221878199998173, 2.487398500001291, 3.162294199995813, 3.8895009999978356, 4.57086100000015, 5.278955900008441, 6.2041179000079865, 6.895762300002389, 7.570982899997034, 8.229140099996584, 8.887517900002422, 9.571112699995865, 10.220936300000176, 10.871013099997072, 11.563331400000607]"	"[1.320312299998477, 2.5953121000056854, 3.320592999996734, 4.041506900000968, 4.703774299996439, 5.412169900009758, 6.328915500009316, 7.028961600008188, 7.7123350000038045, 8.370693899996695, 9.020808600005694, 9.720824999996694, 10.354234500002349, 11.037545700004557, 11.71311290000449]"	96.88234140000714	96.88940820000425	98.38912210000854									32	01	2024-02-22_09h15.00.244	BART_exp	2023.2.3	119.99385632365167	2024-02-22 09h15.13.085763 +0100	
balloon.png	27	0	3	3	6	98.40297570000985													98.38963499999954	98.40297570000985	98.40297570000985	98.40297570000985	98.40297570000985	98.40297570000985	0.009056599999894388	0.009056599999894388	0.009056599999894388	98.40297570000985	114.23381760000484	20	1.00	False	"[0.011111111111111112, 0.021296296296296296, 0.01574074074074074, 0.01574074074074074, 0.01574074074074074, 0.01574074074074074, 0.01574074074074074, 0.01574074074074074, 0.01574074074074074, 0.01574074074074074, 0.01574074074074074, 0.01574074074074074, 0.01574074074074074, 0.01574074074074074, 0.01574074074074074, 0.01574074074074074, 0.01574074074074074, 0.01574074074074074, 0.01574074074074074, 0.01574074074074074, 0.022222222222222223]"	"[-0.3972222222222222, -0.3972222222222222, -0.3962962962962963, -0.3962962962962963, -0.3962962962962963, -0.3962962962962963, -0.3962962962962963, -0.3962962962962963, -0.3962962962962963, -0.3962962962962963, -0.3962962962962963, -0.3962962962962963, -0.3962962962962963, -0.3962962962962963, -0.3962962962962963, -0.3962962962962963, -0.3962962962962963, -0.3962962962962963, -0.3962962962962963, -0.3962962962962963, -0.3851851851851852]"	"[1, 1, 1, 1, 1, 1, 1, 1, 1, 1, 1, 1, 1, 1, 1, 1, 1, 1, 1, 1, 0]"	"[0, 0, 0, 0, 0, 0, 0, 0, 0, 0, 0, 0, 0, 0, 0, 0, 0, 0, 0, 0, 0]"	"[0, 0, 0, 0, 0, 0, 0, 0, 0, 0, 0, 0, 0, 0, 0, 0, 0, 0, 0, 0, 1]"	"[0.9735726999933831, 1.9403620999946725, 3.6401591999892844, 4.751055499989889, 5.223740799992811, 5.7073864999983925, 6.215596499998355, 6.71561029998702, 7.365439199988032, 8.098994199986919, 8.707677899990813, 9.440532499997062, 10.099190499997349, 10.649206699992646, 11.265909499998088, 12.807479899987811, 13.1492661999946, 13.857751999996253, 14.216139299998758, 14.990928199986229, 15.843005799993989]"	21	"[0.9654146999964723, 1.9322028000024147, 3.6319914999912726, 4.742882599995937, 5.21558649999497, 5.699265699993703, 6.2076288999960525, 6.707454899995355, 7.35726849999628, 8.09083030000329, 8.699641500003054, 9.432400099991355, 10.091037799997139, 10.641059699992184, 11.257755300001008, 12.799312799994368, 13.141096799998195, 13.849592899990967, 14.207981200001086, 14.982758500002092, 15.83476640000299]"	"[1.0818063000042457, 2.04002839999157, 3.7652592999947956, 4.865402900002664, 5.348797500002547, 5.848855199990794, 6.332227999999304, 6.840456299993093, 7.52386960000149, 8.249228799992125, 8.932403799990425, 9.540620799991302, 10.240708299999824, 10.79896379999991, 11.407518599997275, 12.899175099999411, 13.249194699994405, 13.96594080000068, 14.332721799990395, 15.107795899995835, 15.834770400004345]"	114.23481180000817	114.23830290000478	115.73062950000167	115.73890229999961								32	01	2024-02-22_09h15.00.244	BART_exp	2023.2.3	119.99385632365167	2024-02-22 09h15.13.085763 +0100	
balloon.png	127	0	4	4	29	115.73890229999961													115.73084430000745	115.73890229999961	115.73890229999961	115.73890229999961	115.73890229999961	115.73890229999961	0.004185199999483302	0.004185199999483302	0.004185199999483302	115.73890229999961	130.03319670000928	20	1.00	False	"[0.008333333333333333, 0.012037037037037037, 0.012037037037037037, 0.012037037037037037, 0.012037037037037037, 0.012037037037037037, 0.012037037037037037, 0.012037037037037037, 0.012037037037037037, 0.012037037037037037, 0.012037037037037037, 0.012037037037037037, 0.012037037037037037, 0.012037037037037037, 0.012037037037037037, 0.012962962962962963, 0.012962962962962963, 0.012962962962962963, 0.012962962962962963, 0.012962962962962963, 0.012962962962962963]"	"[-0.3925925925925926, -0.39166666666666666, -0.39166666666666666, -0.39166666666666666, -0.39166666666666666, -0.39166666666666666, -0.39166666666666666, -0.39166666666666666, -0.39166666666666666, -0.39166666666666666, -0.39166666666666666, -0.39166666666666666, -0.39166666666666666, -0.39166666666666666, -0.39166666666666666, -0.3907407407407407, -0.3907407407407407, -0.3907407407407407, -0.3907407407407407, -0.3907407407407407, -0.38981481481481484]"	"[1, 1, 1, 1, 1, 1, 1, 1, 1, 1, 1, 1, 1, 1, 1, 1, 1, 1, 1, 1, 0]"	"[0, 0, 0, 0, 0, 0, 0, 0, 0, 0, 0, 0, 0, 0, 0, 0, 0, 0, 0, 0, 0]"	"[0, 0, 0, 0, 0, 0, 0, 0, 0, 0, 0, 0, 0, 0, 0, 0, 0, 0, 0, 0, 1]"	"[1.9336896000022534, 2.6418561000027694, 3.267051000002539, 3.883780999996816, 4.492264500004239, 5.083832200005418, 5.650500699994154, 6.217269799992209, 6.825506599998334, 7.392230199999176, 7.909179800000857, 8.56783099999302, 9.142552799996338, 9.700910800005659, 10.300976600003196, 10.884290899994085, 11.467451599994092, 12.11775609999313, 12.75110369999311, 12.92622009999468, 14.301261700005853]"	21	"[1.931410200006212, 2.639572300002328, 3.2647685000119964, 3.881499700000859, 4.490009400004055, 5.081561500002863, 5.648216300003696, 6.214988000006997, 6.823230900001363, 7.389944100010325, 7.906914500010316, 8.565592099999776, 9.140274500008672, 9.698648500008858, 10.29875549999997, 10.882022000005236, 11.465168900002027, 12.11548030000995, 12.74882950000756, 12.923953100005747, 14.29893190000439]"	"[2.081163700000616, 2.764516700000968, 3.414613000000827, 4.014673800003948, 4.656268500009901, 5.239720800003852, 5.789798199999495, 6.348183100009919, 6.948272400011774, 7.548400200001197, 8.139870200000587, 8.723247800007812, 9.306679600005737, 9.87346719999914, 10.481701000011526, 11.056794300006004, 11.615213000011863, 12.290215700006229, 12.907015900011174, 13.006734200011124, 14.29893620000803]"	130.03436669999792	130.0394951000053	131.53179510000336	131.54759719999856								32	01	2024-02-22_09h15.00.244	BART_exp	2023.2.3	119.99385632365167	2024-02-22 09h15.13.085763 +0100	
balloon.png	36	0	5	5	8	131.54759719999856													131.53200530000322	131.54759719999856	131.54759719999856	131.54759719999856	131.54759719999856	131.54759719999856	-0.0008369999995920807	-0.0008369999995920807	-0.0008369999995920807	131.54759719999856	148.77622970000084	23	1.15	False	"[0.010185185185185186, 0.010185185185185186, 0.010185185185185186, 0.010185185185185186, 0.011111111111111112, 0.011111111111111112, 0.011111111111111112, 0.011111111111111112, 0.011111111111111112, 0.011111111111111112, 0.011111111111111112, 0.011111111111111112, 0.011111111111111112, 0.012037037037037037, 0.012037037037037037, 0.012037037037037037, 0.012037037037037037, 0.012037037037037037, 0.012037037037037037, 0.012037037037037037, 0.012037037037037037, 0.012037037037037037, 0.012037037037037037, 0.012037037037037037]"	"[-0.38981481481481484, -0.38981481481481484, -0.38981481481481484, -0.38981481481481484, -0.38981481481481484, -0.38981481481481484, -0.38981481481481484, -0.38981481481481484, -0.38981481481481484, -0.38981481481481484, -0.38981481481481484, -0.38981481481481484, -0.38981481481481484, -0.38796296296296295, -0.38796296296296295, -0.38796296296296295, -0.38796296296296295, -0.38796296296296295, -0.38796296296296295, -0.38796296296296295, -0.38796296296296295, -0.38796296296296295, -0.38796296296296295, -0.38796296296296295]"	"[1, 1, 1, 1, 1, 1, 1, 1, 1, 1, 1, 1, 1, 1, 1, 1, 1, 1, 1, 1, 1, 1, 1, 0]"	"[0, 0, 0, 0, 0, 0, 0, 0, 0, 0, 0, 0, 0, 0, 0, 0, 0, 0, 0, 0, 0, 0, 0, 0]"	"[0, 0, 0, 0, 0, 0, 0, 0, 0, 0, 0, 0, 0, 0, 0, 0, 0, 0, 0, 0, 0, 0, 0, 1]"	"[0.5832931000040844, 1.4167565999960061, 1.9834097999992082, 2.5002967000036733, 3.06682350000483, 3.6214809000084642, 4.133805200006464, 4.667351199997938, 5.1837337000033585, 5.742208600000595, 6.258994600008009, 6.900676100005512, 7.617274799995357, 8.467562400008319, 9.234081500006141, 9.892549299998791, 10.551312399999006, 11.150882600006298, 12.000795100000687, 12.876146800001152, 14.759387400001287, 15.367733400009456, 16.30130079999799, 17.243086300004506]"	24	"[0.5771777000045404, 1.4106418000010308, 1.9773322999972152, 2.494189200006076, 3.060715200001141, 3.615371000007144, 4.127705799997784, 4.66123620000144, 5.177619599999161, 5.7361153999954695, 6.2529041999951005, 6.894574699996156, 7.611166999995476, 8.461493900002097, 9.227976399997715, 9.886445600001025, 10.54526359999727, 11.1448262000049, 11.994719700000132, 12.870074400008889, 14.75328069999523, 15.361634700006107, 16.295192100005806, 17.236930900005973]"	"[0.7857345000084024, 1.5193194000021322, 2.110610400006408, 2.6438970000017434, 3.177327700002934, 3.7607042000017827, 4.268969500000821, 4.827438599997549, 5.335723099997267, 5.9024568000022555, 6.527529800005141, 7.060960900009377, 8.085997400004999, 8.719387300006929, 9.444586199999321, 10.094940900002257, 10.711467100001755, 11.478094999998575, 12.152903700000024, 13.044617699997616, 15.249061800001073, 15.411470000006375, 16.49486489999981, 17.23693510000885]"	148.77730990000418	148.7824108000059	150.27489380000043	150.28343300000415								32	01	2024-02-22_09h15.00.244	BART_exp	2023.2.3	119.99385632365167	2024-02-22 09h15.13.085763 +0100	
balloon.png	123	0	6	6	28	150.28343300000415													150.27510569999868	150.28343300000415	150.28343300000415	150.28343300000415	150.28343300000415	150.28343300000415	-0.0006674999895039946	-0.0006674999895039946	-0.0006674999895039946	150.28343300000415	163.30408430000534	20	1.00	False	"[0.08425925925925926, 0.08425925925925926, 0.0824074074074074, 0.0787037037037037, 0.0787037037037037, 0.0787037037037037, 0.07777777777777778, 0.07777777777777778, 0.07777777777777778, 0.07777777777777778, 0.07777777777777778, 0.07777777777777778, 0.07777777777777778, 0.07777777777777778, 0.07777777777777778, 0.07777777777777778, 0.07777777777777778, 0.07777777777777778, 0.07777777777777778, 0.07777777777777778, 0.07777777777777778]"	"[-0.38796296296296295, -0.38796296296296295, -0.38796296296296295, -0.38796296296296295, -0.38796296296296295, -0.38796296296296295, -0.38796296296296295, -0.38796296296296295, -0.38796296296296295, -0.38796296296296295, -0.38796296296296295, -0.38796296296296295, -0.38796296296296295, -0.38796296296296295, -0.38796296296296295, -0.38796296296296295, -0.38796296296296295, -0.38796296296296295, -0.38796296296296295, -0.38796296296296295, -0.38796296296296295]"	"[1, 1, 1, 1, 1, 1, 1, 1, 1, 1, 1, 1, 1, 1, 1, 1, 1, 1, 1, 1, 0]"	"[0, 0, 0, 0, 0, 0, 0, 0, 0, 0, 0, 0, 0, 0, 0, 0, 0, 0, 0, 0, 0]"	"[0, 0, 0, 0, 0, 0, 0, 0, 0, 0, 0, 0, 0, 0, 0, 0, 0, 0, 0, 0, 1]"	"[1.5504725000064354, 2.249957000007271, 2.9252654000010807, 3.5502665000094566, 4.283569400009583, 4.666817500008619, 5.292113999996218, 5.816912199996295, 6.342214200005401, 6.808723100009956, 7.258733299997402, 7.675459200007026, 8.125737000009394, 8.342404399998486, 9.100635000009788, 9.783788300002925, 10.242384199998924, 10.967266200008453, 11.650678400008474, 12.258955099998275, 13.02714060001017]"	21	"[1.5477668999956222, 2.2471860999939963, 2.9224714000010863, 3.547470200006501, 4.280767200005357, 4.664015600006678, 5.2893329999933485, 5.814115300003323, 6.339412999994238, 6.805923299994902, 7.255939299997408, 7.672658800001955, 8.122957100000349, 8.339633199997479, 9.097845199998119, 9.780980299998191, 10.239611600001808, 10.964471500003128, 11.64787119999528, 12.256156100003864, 13.024457899999106]"	"[1.722013299993705, 2.464110700006131, 3.097176800001762, 3.7471539999969536, 4.555633099997067, 4.7723557999997865, 5.447310000003199, 5.980667900003027, 6.490799999999581, 6.964178700000048, 7.42257249999966, 7.83082529999956, 8.272642700001597, 8.389310500002466, 9.256340000007185, 9.916388800003915, 10.364281000001938, 11.12270300000091, 11.814495700004045, 12.464420799995423, 13.024467399998684]"	163.30548870000348	163.3092733000085	164.8024066000071	164.81285470000876								32	01	2024-02-22_09h15.00.244	BART_exp	2023.2.3	119.99385632365167	2024-02-22 09h15.13.085763 +0100	
balloon.png	79	0	7	7	18	164.81285470000876													164.8027568999969	164.81285470000876	164.81285470000876	164.81285470000876	164.81285470000876	164.81285470000876	-0.0008540999988326803	-0.0008540999988326803	-0.0008540999988326803	164.81285470000876	181.47533529999782	24	1.20	False	"[0.075, 0.075, 0.075, 0.075, 0.075, 0.075, 0.075, 0.075, 0.075, 0.075, 0.075, 0.075, 0.075, 0.075, 0.075, 0.075, 0.075, 0.075, 0.075, 0.075, 0.075, 0.07314814814814814, 0.07314814814814814, 0.07314814814814814, 0.07314814814814814]"	"[-0.3888888888888889, -0.3888888888888889, -0.3888888888888889, -0.3888888888888889, -0.3888888888888889, -0.3888888888888889, -0.3888888888888889, -0.3888888888888889, -0.3888888888888889, -0.3888888888888889, -0.3888888888888889, -0.3888888888888889, -0.3888888888888889, -0.3888888888888889, -0.3888888888888889, -0.3888888888888889, -0.3888888888888889, -0.3888888888888889, -0.38796296296296295, -0.38796296296296295, -0.38796296296296295, -0.387037037037037, -0.387037037037037, -0.387037037037037, -0.387037037037037]"	"[1, 1, 1, 1, 1, 1, 1, 1, 1, 1, 1, 1, 1, 1, 1, 1, 1, 1, 1, 1, 1, 1, 1, 1, 0]"	"[0, 0, 0, 0, 0, 0, 0, 0, 0, 0, 0, 0, 0, 0, 0, 0, 0, 0, 0, 0, 0, 0, 0, 0, 0]"	"[0, 0, 0, 0, 0, 0, 0, 0, 0, 0, 0, 0, 0, 0, 0, 0, 0, 0, 0, 0, 0, 0, 0, 0, 1]"	"[0.8646930999966571, 1.5483941999991657, 2.106652699992992, 2.5316003000043565, 2.9402121000020998, 3.3403977999987546, 3.7238264000043273, 4.090488200003165, 4.448271200002637, 5.131935900004464, 5.573651999991853, 5.973717400003807, 6.356929899993702, 6.698635799999465, 7.033823999998276, 7.890276299993275, 8.532294599994202, 9.08199199999217, 9.873718699993333, 10.232154400000582, 12.51611199999752, 13.682570000004489, 14.59069620000082, 15.616107399997418, 16.671282900002552]"	25	"[0.8599015999934636, 1.5436176999937743, 2.1018607999867527, 2.5268070999882184, 2.935453199999756, 3.3356336999859195, 3.719038899987936, 4.085711799998535, 4.4434867999952985, 5.12715849999222, 5.568967599989264, 5.969001799996477, 6.352178599991021, 6.693842599997879, 7.029020099987974, 7.885484799990081, 8.527526299993042, 9.077198399987537, 9.868937199993525, 10.227362099991296, 12.51134679999086, 13.677806099993177, 14.585911299989675, 15.611421699999482, 16.666451999990386]"	"[0.9931672999955481, 1.7184087999921758, 2.259963299991796, 2.676674299989827, 3.0766573999862885, 3.4767578999890247, 3.8355164999957196, 4.20235869998578, 4.576799299989943, 5.257825399996364, 5.726875499996822, 6.118496899987804, 6.510311299993191, 6.843635199998971, 7.176993399989442, 8.043733399987104, 8.668665899996995, 9.193764399999054, 10.02742609998677, 10.385515699992538, 12.652351899989299, 13.819121799999266, 14.744221999993897, 15.766121999986353, 16.666456399994786]"	181.47653820000414	181.48218790000828	182.9784953000053									32	01	2024-02-22_09h15.00.244	BART_exp	2023.2.3	119.99385632365167	2024-02-22 09h15.13.085763 +0100	
balloon.png	97	0	8	8	22	182.99352669999644													182.97880460000306	182.99352669999644	182.99352669999644	182.99352669999644	182.99352669999644	182.99352669999644	0.003964499992434867	0.003964499992434867	0.003964499992434867	182.99352669999644	203.88975159999973	26	1.30	False	"[0.08796296296296297, 0.08796296296296297, 0.08796296296296297, 0.08796296296296297, 0.08796296296296297, 0.08796296296296297, 0.08796296296296297, 0.08796296296296297, 0.08796296296296297, 0.08796296296296297, 0.08796296296296297, 0.08796296296296297, 0.08796296296296297, 0.08796296296296297, 0.08796296296296297, 0.08796296296296297, 0.08796296296296297, 0.08796296296296297, 0.08796296296296297, 0.08796296296296297, 0.08796296296296297, 0.08796296296296297, 0.08796296296296297, 0.08796296296296297, 0.08796296296296297, 0.08796296296296297, 0.08796296296296297]"	"[-0.3925925925925926, -0.3925925925925926, -0.3925925925925926, -0.3925925925925926, -0.3925925925925926, -0.3925925925925926, -0.3925925925925926, -0.3925925925925926, -0.3925925925925926, -0.3925925925925926, -0.3925925925925926, -0.3925925925925926, -0.3925925925925926, -0.3925925925925926, -0.3925925925925926, -0.3925925925925926, -0.3925925925925926, -0.3925925925925926, -0.3925925925925926, -0.3925925925925926, -0.3925925925925926, -0.3925925925925926, -0.3925925925925926, -0.3925925925925926, -0.3925925925925926, -0.3925925925925926, -0.3925925925925926]"	"[1, 1, 1, 1, 1, 1, 1, 1, 1, 1, 1, 1, 1, 1, 1, 1, 1, 1, 1, 1, 1, 1, 1, 1, 1, 1, 0]"	"[0, 0, 0, 0, 0, 0, 0, 0, 0, 0, 0, 0, 0, 0, 0, 0, 0, 0, 0, 0, 0, 0, 0, 0, 0, 0, 0]"	"[0, 0, 0, 0, 0, 0, 0, 0, 0, 0, 0, 0, 0, 0, 0, 0, 0, 0, 0, 0, 0, 0, 0, 0, 0, 0, 1]"	"[1.0566497999971034, 1.548804599995492, 1.9735658999998122, 2.406764100000146, 2.873477399989497, 4.157091899993247, 4.673601899994537, 5.048754999996163, 5.365584799990756, 5.7155711999948835, 6.7573669999983395, 7.357391400000779, 7.965676499996334, 8.557543899994926, 9.132467099989299, 9.832357099992805, 10.465695999999298, 11.35783999999694, 12.215858299998217, 12.892640599995502, 14.73283709998941, 15.824427699990338, 16.907902399994782, 17.841197099987767, 18.659458599999198, 19.60800829999789, 20.90957519999938]"	27	"[1.0472305000002962, 1.5394110000052024, 1.964142400000128, 2.3973574999981793, 2.8640559000050416, 4.147703800001182, 4.664183500004583, 5.039387500000885, 5.356277700004284, 5.706227999995463, 6.747955300001195, 7.348004700004822, 7.956272900002659, 8.54813589999685, 9.123056399999768, 9.822933999996167, 10.456283599996823, 11.348448300006567, 12.206431300000986, 12.88321719999658, 14.723423800009186, 15.815011400001822, 16.898498700000346, 17.83176889999595, 18.65002670000831, 19.598590699999477, 20.900186900005792]"	"[1.1816454000072554, 1.6805182000098284, 2.105758400008199, 2.5472671000025002, 3.0225859000056516, 4.489437199998065, 4.814052900008392, 5.207624800008489, 5.505880400000024, 5.8394396000076085, 6.914252000002307, 7.497626500000479, 8.097764100006316, 8.70608099999663, 9.297815300000366, 10.006097000004956, 10.61461540000164, 11.572909499998786, 12.399463100009598, 13.049131399995531, 14.831454700004542, 15.98148860000947, 17.04003869999724, 17.96496900000784, 18.823465000008582, 19.731817100007902, 20.9001927000063]"	203.89083060000848	203.8953685000015	205.3869568000082	205.39486169999873								32	01	2024-02-22_09h15.00.244	BART_exp	2023.2.3	119.99385632365167	2024-02-22 09h15.13.085763 +0100	
balloon.png	23	0	9	9	5	205.39486169999873													205.38718839999638	205.39486169999873	205.39486169999873	205.39486169999873	205.39486169999873	205.39486169999873	0.004118999990168959	0.004118999990168959	0.004118999990168959	205.39486169999873	219.87331140000606	24	1.15	True	"[0.08796296296296297, 0.08796296296296297, 0.08796296296296297, 0.08796296296296297, 0.08796296296296297, 0.08796296296296297, 0.08796296296296297, 0.08796296296296297, 0.08796296296296297, 0.08796296296296297, 0.08796296296296297, 0.08796296296296297, 0.08796296296296297, 0.08796296296296297, 0.08796296296296297, 0.08796296296296297, 0.08796296296296297, 0.08796296296296297, 0.08796296296296297, 0.08796296296296297, 0.08796296296296297, 0.08796296296296297, 0.08796296296296297, 0.08796296296296297]"	"[-0.3925925925925926, -0.3925925925925926, -0.3925925925925926, -0.3925925925925926, -0.3925925925925926, -0.3925925925925926, -0.3925925925925926, -0.3925925925925926, -0.3925925925925926, -0.3925925925925926, -0.3925925925925926, -0.3925925925925926, -0.3925925925925926, -0.3925925925925926, -0.3925925925925926, -0.3925925925925926, -0.3925925925925926, -0.3925925925925926, -0.3925925925925926, -0.3925925925925926, -0.3925925925925926, -0.3925925925925926, -0.3925925925925926, -0.3925925925925926]"	"[1, 1, 1, 1, 1, 1, 1, 1, 1, 1, 1, 1, 1, 1, 1, 1, 1, 1, 1, 1, 1, 1, 1, 1]"	"[0, 0, 0, 0, 0, 0, 0, 0, 0, 0, 0, 0, 0, 0, 0, 0, 0, 0, 0, 0, 0, 0, 0, 0]"	"[0, 0, 0, 0, 0, 0, 0, 0, 0, 0, 0, 0, 0, 0, 0, 0, 0, 0, 0, 0, 0, 0, 0, 0]"	"[2.12521860000561, 2.517043600004399, 2.85010450000118, 3.1185325999977067, 3.3506274000101257, 3.5752708000072744, 3.800253800000064, 4.500474400003441, 4.942079000000376, 5.350663100005477, 5.7752687000029255, 6.300645299997996, 6.8420452999998815, 7.4339155000052415, 7.967707400006475, 8.525632400007453, 9.600567100002081, 10.534143500000937, 11.034332399998675, 11.525959300008253, 12.350906899999245, 13.067440600003465, 13.625813200007542, 14.33446460000414]"	24	"[2.122853299995768, 2.5146851999888895, 2.8477192999998806, 3.1161480999871856, 3.3484554999886313, 3.572895899997093, 3.7978738999954658, 4.498132599997916, 4.939704699994763, 5.3483133999980055, 5.772887299986905, 6.298300999987987, 6.839664599989192, 7.431537799988291, 7.965407499999856, 8.523247699995409, 9.598244900000282, 10.531814499991015, 11.032218199994531, 11.52359699999215, 12.348539999991772, 13.065060499997344, 13.623434199995245, 14.33211279999523]"	"[2.272477499995148, 2.6309354999975767, 2.9558349999861093, 3.222569499994279, 3.43920189999335, 3.672576699987985, 3.8977958999894327, 4.6227394999878015, 5.072790799997165, 5.472792599990498, 5.914586499988218, 6.414612999986275, 6.9646843999944394, 7.564801199987414, 8.115107899997383, 8.681936499997391, 9.756445599996368, 10.673144199987291, 11.173970299991197, 11.664850299988757, 12.49818559999403, 13.181561899997178, 13.765011399998912, 14.473507699993206]"	219.87443340000755	219.87900319999608	221.37137520000397	221.37967330000538								32	01	2024-02-22_09h15.00.244	BART_exp	2023.2.3	119.99385632365167	2024-02-22 09h15.13.085763 +0100	
balloon.png	92	0	10	10	21	221.37967330000538													221.37160810000205	221.37967330000538	221.37967330000538	221.37967330000538	221.37967330000538	221.37967330000538	0.0053198000096017495			221.37967330000538	231.00695930000802	20	1.00	False	"[0.08796296296296297, 0.08796296296296297, 0.08796296296296297, 0.08796296296296297, 0.08796296296296297, 0.08796296296296297, 0.08796296296296297, 0.08796296296296297, 0.08796296296296297, 0.08796296296296297, 0.08796296296296297, 0.08796296296296297, 0.08796296296296297, 0.08796296296296297, 0.08796296296296297, 0.08796296296296297, 0.08796296296296297, 0.08796296296296297, 0.08796296296296297, 0.08796296296296297, 0.08796296296296297]"	"[-0.3925925925925926, -0.3925925925925926, -0.3925925925925926, -0.3925925925925926, -0.3925925925925926, -0.3925925925925926, -0.3925925925925926, -0.3925925925925926, -0.3925925925925926, -0.3925925925925926, -0.3925925925925926, -0.3925925925925926, -0.3925925925925926, -0.3925925925925926, -0.3925925925925926, -0.3925925925925926, -0.3925925925925926, -0.3925925925925926, -0.3925925925925926, -0.3925925925925926, -0.3925925925925926]"	"[1, 1, 1, 1, 1, 1, 1, 1, 1, 1, 1, 1, 1, 1, 1, 1, 1, 1, 1, 1, 0]"	"[0, 0, 0, 0, 0, 0, 0, 0, 0, 0, 0, 0, 0, 0, 0, 0, 0, 0, 0, 0, 0]"	"[0, 0, 0, 0, 0, 0, 0, 0, 0, 0, 0, 0, 0, 0, 0, 0, 0, 0, 0, 0, 1]"	"[1.5257148000091547, 2.3753033000102732, 2.908752600007574, 3.3917687000066508, 3.9171338000014657, 4.1668865000101505, 4.391829500003951, 4.633579100001953, 4.841843800008064, 5.041916800008039, 5.266941800000495, 5.467245899999398, 5.687282500002766, 6.292206500002067, 6.6671254000102635, 7.017148300001281, 7.342281900011585, 7.742300500001875, 8.167503300006501, 8.808892500004731, 9.63419640000211]"	21	"[1.523351999989245, 2.3729197999928147, 2.906497499992838, 3.3893563999881735, 3.914715699997032, 4.164443999994546, 4.389380699998583, 4.631130099995062, 4.839401499993983, 5.039470399991842, 5.264508499996737, 5.46482819999801, 5.6848337999981595, 6.289767499998561, 6.664682799993898, 7.01470299999346, 7.339851799988537, 7.739854300001753, 8.165076799996314, 8.806443900000886, 9.631689999994705]"	"[1.6474938999890583, 2.4808973999897717, 3.0225534999917727, 3.5309470999927726, 4.039280099997995, 4.281076999992365, 4.497600599992438, 4.739329199990607, 4.956016999989515, 5.156034499988891, 5.372660499997437, 5.581186499999603, 5.8122338999964995, 6.406143299987889, 6.806280199991306, 7.147991099991486, 7.481325000000652, 7.872921499991207, 8.314774200000102, 8.948162299988326, 9.631694199997582]"	231.00798540000687	231.01309459999902	232.50721680000424	232.52281340000627								32	01	2024-02-22_09h15.00.244	BART_exp	2023.2.3	119.99385632365167	2024-02-22 09h15.13.085763 +0100	
balloon.png	31	0	11	11	7	232.52281340000627													232.507491700002	232.52281340000627	232.52281340000627	232.52281340000627	232.52281340000627	232.52281340000627	0.0010986999986926094	0.0010986999986926094	0.0010986999986926094	232.52281340000627	248.34131340000022	24	1.20	False	"[0.12222222222222222, 0.11666666666666667, 0.11666666666666667, 0.11666666666666667, 0.11666666666666667, 0.11666666666666667, 0.11666666666666667, 0.11666666666666667, 0.11666666666666667, 0.11666666666666667, 0.1111111111111111, 0.1111111111111111, 0.1111111111111111, 0.1111111111111111, 0.1111111111111111, 0.1111111111111111, 0.1111111111111111, 0.1111111111111111, 0.1111111111111111, 0.1111111111111111, 0.1111111111111111, 0.1111111111111111, 0.1111111111111111, 0.11018518518518519, 0.11018518518518519]"	"[-0.3990740740740741, -0.4009259259259259, -0.4009259259259259, -0.4009259259259259, -0.4009259259259259, -0.4009259259259259, -0.4009259259259259, -0.4009259259259259, -0.4009259259259259, -0.4009259259259259, -0.4009259259259259, -0.4009259259259259, -0.4009259259259259, -0.4009259259259259, -0.4009259259259259, -0.4009259259259259, -0.4009259259259259, -0.4009259259259259, -0.4009259259259259, -0.4009259259259259, -0.4009259259259259, -0.4009259259259259, -0.4009259259259259, -0.3990740740740741, -0.3990740740740741]"	"[1, 1, 1, 1, 1, 1, 1, 1, 1, 1, 1, 1, 1, 1, 1, 1, 1, 1, 1, 1, 1, 1, 1, 1, 0]"	"[0, 0, 0, 0, 0, 0, 0, 0, 0, 0, 0, 0, 0, 0, 0, 0, 0, 0, 0, 0, 0, 0, 0, 0, 0]"	"[0, 0, 0, 0, 0, 0, 0, 0, 0, 0, 0, 0, 0, 0, 0, 0, 0, 0, 0, 0, 0, 0, 0, 0, 1]"	"[0.7233028999908129, 1.5232327999983681, 1.9233952999929897, 2.381856099993456, 2.8482261000026483, 3.2820280000014463, 3.7318448000005446, 4.106900799990399, 4.498400600001332, 4.873517300002277, 5.240168399992399, 5.715138699990348, 6.20720760000404, 6.873649699991802, 8.124657499996829, 9.090545400002156, 9.507468299998436, 9.924052299989853, 10.374087699994561, 11.265555099991616, 12.540717900003074, 12.974174100003438, 14.88255159999244, 15.34944479999831, 15.8326323999936]"	25	"[0.7132091999956174, 1.5131238000030862, 1.913294899990433, 2.3718335000012303, 2.8381113999930676, 3.2721787999907974, 3.7217498999962118, 4.096804300002987, 4.488291399989976, 4.863417399988975, 5.230060799993225, 5.705028199998196, 6.197140699994634, 6.863553699993645, 8.11478889999853, 9.080514499990386, 9.497735400000238, 9.913967000000412, 10.364047199997003, 11.255450600001495, 12.530610200003139, 12.964065799998934, 14.872462400002405, 15.339351100003114, 15.822478100002627]"	"[0.8295771999983117, 1.6712621999904513, 2.0712562999979127, 2.504801299990504, 2.979765600000974, 3.4380287999956636, 3.8714312999945832, 4.238205499990727, 4.6215366999967955, 4.979929099994479, 5.371585000000778, 5.8382986999931745, 6.363375000000815, 7.055039599988959, 8.254341899999417, 9.188488799991319, 9.638504199989256, 10.055238899993128, 10.521949200003291, 11.405337199990754, 12.672151999999187, 13.096999999994296, 15.005675699998392, 15.455732499991427, 15.822482499992475]"	248.34244550000585	248.347649000003	249.84025490000204	249.85355929999787								32	01	2024-02-22_09h15.00.244	BART_exp	2023.2.3	119.99385632365167	2024-02-22 09h15.13.085763 +0100	
balloon.png	66	0	12	12	15	249.85355929999787													249.84066319999692	249.85355929999787	249.85355929999787	249.85355929999787	249.85355929999787	249.85355929999787	4.0099999750964344e-05	4.0099999750964344e-05	4.0099999750964344e-05	249.85355929999787	273.8596461999987	30	1.50	False	"[0.0787037037037037, 0.07685185185185185, 0.07685185185185185, 0.07685185185185185, 0.07685185185185185, 0.07685185185185185, 0.07685185185185185, 0.07685185185185185, 0.07685185185185185, 0.07685185185185185, 0.07685185185185185, 0.07685185185185185, 0.07685185185185185, 0.07685185185185185, 0.07685185185185185, 0.07592592592592592, 0.07592592592592592, 0.075, 0.075, 0.0712962962962963, 0.0712962962962963, 0.0712962962962963, 0.0712962962962963, 0.0712962962962963, 0.0712962962962963, 0.0712962962962963, 0.0712962962962963, 0.0712962962962963, 0.0712962962962963, 0.0712962962962963, 0.0712962962962963]"	"[-0.38796296296296295, -0.3888888888888889, -0.3861111111111111, -0.3861111111111111, -0.3861111111111111, -0.3861111111111111, -0.3861111111111111, -0.3861111111111111, -0.3861111111111111, -0.3861111111111111, -0.3861111111111111, -0.3861111111111111, -0.3861111111111111, -0.3861111111111111, -0.3861111111111111, -0.3861111111111111, -0.3861111111111111, -0.3861111111111111, -0.3861111111111111, -0.3861111111111111, -0.3861111111111111, -0.3861111111111111, -0.3861111111111111, -0.3861111111111111, -0.3861111111111111, -0.3861111111111111, -0.3861111111111111, -0.3861111111111111, -0.3861111111111111, -0.3861111111111111, -0.3861111111111111]"	"[1, 1, 1, 1, 1, 1, 1, 1, 1, 1, 1, 1, 1, 1, 1, 1, 1, 1, 1, 1, 1, 1, 1, 1, 1, 1, 1, 1, 1, 1, 0]"	"[0, 0, 0, 0, 0, 0, 0, 0, 0, 0, 0, 0, 0, 0, 0, 0, 0, 0, 0, 0, 0, 0, 0, 0, 0, 0, 0, 0, 0, 0, 0]"	"[0, 0, 0, 0, 0, 0, 0, 0, 0, 0, 0, 0, 0, 0, 0, 0, 0, 0, 0, 0, 0, 0, 0, 0, 0, 0, 0, 0, 0, 0, 1]"	"[2.5246796999999788, 3.1498245000111638, 3.758157400006894, 4.324897300000885, 4.883184300007997, 5.825275400013197, 6.241905000002589, 6.641961200002697, 6.975371400010772, 7.316693200002192, 7.658479900012026, 8.008796400012216, 8.333399300012388, 9.301575900011812, 9.933697600004962, 10.44213480000326, 10.93359140001121, 11.742099100010819, 12.50866560000577, 13.100485700007994, 14.117126100012683, 14.98414000000048, 15.80916000000434, 17.0257077000133, 17.909037100005662, 18.952982900009374, 19.926101600009133, 20.976146300003165, 22.19303020001098, 23.101154400006635, 24.01784580000094]"	31	"[2.5173242000018945, 3.142470400009188, 3.750810300000012, 4.317540600008215, 4.875822400004836, 5.817938599997433, 6.234568500003661, 6.634633499998017, 6.968049000002793, 7.309336999998777, 7.651118800000404, 8.00144320000254, 8.326037400009227, 9.294423500003177, 9.926344799998333, 10.434865200004424, 10.926244700007373, 11.734768199996324, 12.501302600008785, 13.093126399995526, 14.10975750000216, 14.976791699999012, 15.801823600006173, 17.01834380000946, 17.901674299995648, 18.945745100005297, 19.918761399996583, 20.968798400004744, 22.18570909999835, 23.09379009999975, 24.01041719999921]"	"[2.6839145999983884, 3.308773500000825, 3.90886060000048, 4.46735869999975, 5.042355199999292, 5.984208199995919, 6.392505399999209, 6.775855600004434, 7.109173600008944, 7.4425640999979805, 7.775986200009356, 8.125919400001294, 8.451336300000548, 9.434691600006772, 10.042691399998148, 10.567818800001987, 11.084436899996945, 11.894138700008625, 12.634519200000796, 13.259687199999462, 14.21918280000682, 15.12656469999638, 15.93486860000121, 17.15154770000663, 18.04359719999775, 19.084882499999367, 20.060023300000466, 21.1101450999995, 22.318670200009365, 23.239723499995307, 24.01042150000285]"	273.860845800009	273.86609809999936	275.35841990000335	275.3731048000045								32	01	2024-02-22_09h15.00.244	BART_exp	2023.2.3	119.99385632365167	2024-02-22 09h15.13.085763 +0100	
balloon.png	71	0	13	13	16	275.3731048000045													275.358656299999	275.3731048000045	275.3731048000045	275.3731048000045	275.3731048000045	275.3731048000045	-0.0005862999969394878	-0.0005862999969394878	-0.0005862999969394878	275.3731048000045	294.1030724000011	29	1.45	False	"[-0.001851851851851852, 0.007407407407407408, 0.007407407407407408, 0.006481481481481481, 0.006481481481481481, 0.006481481481481481, 0.006481481481481481, 0.006481481481481481, 0.006481481481481481, 0.006481481481481481, 0.006481481481481481, 0.006481481481481481, 0.006481481481481481, 0.006481481481481481, 0.006481481481481481, 0.006481481481481481, 0.006481481481481481, 0.006481481481481481, 0.006481481481481481, 0.006481481481481481, 0.006481481481481481, 0.006481481481481481, 0.006481481481481481, 0.006481481481481481, 0.006481481481481481, 0.006481481481481481, 0.006481481481481481, 0.006481481481481481, 0.006481481481481481, 0.006481481481481481]"	"[-0.40925925925925927, -0.4046296296296296, -0.4046296296296296, -0.4046296296296296, -0.4046296296296296, -0.4046296296296296, -0.4046296296296296, -0.4046296296296296, -0.4046296296296296, -0.4046296296296296, -0.4046296296296296, -0.4046296296296296, -0.4046296296296296, -0.4046296296296296, -0.4046296296296296, -0.4046296296296296, -0.4046296296296296, -0.4046296296296296, -0.4046296296296296, -0.4046296296296296, -0.4046296296296296, -0.4046296296296296, -0.4046296296296296, -0.4046296296296296, -0.4046296296296296, -0.4046296296296296, -0.4046296296296296, -0.4046296296296296, -0.4046296296296296, -0.4046296296296296]"	"[1, 1, 1, 1, 1, 1, 1, 1, 1, 1, 1, 1, 1, 1, 1, 1, 1, 1, 1, 1, 1, 1, 1, 1, 1, 1, 1, 1, 1, 0]"	"[0, 0, 0, 0, 0, 0, 0, 0, 0, 0, 0, 0, 0, 0, 0, 0, 0, 0, 0, 0, 0, 0, 0, 0, 0, 0, 0, 0, 0, 0]"	"[0, 0, 0, 0, 0, 0, 0, 0, 0, 0, 0, 0, 0, 0, 0, 0, 0, 0, 0, 0, 0, 0, 0, 0, 0, 0, 0, 0, 0, 1]"	"[1.542921500004013, 2.1419027999945683, 2.650348600000143, 3.2670559999969555, 3.875377699994715, 4.392044399995939, 5.000697299998137, 5.5086906000069575, 6.017347600005451, 6.517142700002296, 7.058998900000006, 7.575469400006114, 8.000965900006122, 8.475751100006164, 8.95075380000344, 9.38441490000696, 9.801389800006291, 10.358999899995979, 10.609297899995, 10.851199099997757, 11.075786000001244, 11.875765200005844, 12.867475399994873, 13.642791000005673, 14.409605699998792, 14.967727499999455, 15.901019600001746, 16.659740999995847, 17.443187199998647, 18.74333110000589]"	29	"[1.533942299996852, 2.132906200000434, 2.641334800006007, 3.2580300999979954, 3.866352099998039, 4.383019700006116, 4.991711800001212, 5.4996593999967445, 6.0083252000040375, 6.508112499999697, 7.0499716000049375, 7.991955899997265, 8.466731799999252, 8.941739600006258, 9.37541219999548, 9.792383000007248, 10.349965500005055, 10.600277799996547, 10.84222000000591, 11.066753300008713, 11.86673160000646, 12.858451899999636, 13.633765499995206, 14.400622100001783, 14.958689899998717, 15.892002399996272, 16.65072620000865, 17.434182800003327, 18.734237600001507]"	"[1.6496272000076715, 2.249651200007065, 2.782751599996118, 3.4161645999993198, 3.9911461000010604, 4.541198200007784, 5.132834999996703, 5.657970200001728, 6.174596600001678, 6.666273099996033, 7.699673099996289, 8.141526699997485, 8.633095900004264, 9.091649599999073, 9.50847149999754, 9.908562700002221, 10.458545400004368, 10.725148800003808, 10.949902699998347, 11.17508529999759, 11.99998069999856, 13.008344900008524, 13.775074599994696, 14.517021999999997, 15.075208700000076, 16.02528539999912, 16.783737000005203, 17.592045700002927, 18.734241800004384]"	294.1044397000078	294.10938680000254	295.6034703000041	295.612787799997								32	01	2024-02-22_09h15.00.244	BART_exp	2023.2.3	119.99385632365167	2024-02-22 09h15.13.085763 +0100	
balloon.png	18	0	14	14	4	295.612787799997													295.6037687000062	295.612787799997	295.612787799997	295.612787799997	295.612787799997	295.612787799997	0.0009022999875014648	0.0009022999875014648	0.0009022999875014648	295.612787799997	306.8554535000003	19	0.90	True	"[0.06666666666666667, 0.06111111111111111, 0.05925925925925926, 0.053703703703703705, 0.05, 0.04814814814814815, 0.04722222222222222, 0.04722222222222222, 0.04722222222222222, 0.04722222222222222, 0.04722222222222222, 0.04722222222222222, 0.04722222222222222, 0.04722222222222222, 0.04814814814814815, 0.04814814814814815, 0.04814814814814815, 0.04814814814814815, 0.04814814814814815]"	"[-0.38055555555555554, -0.36203703703703705, -0.375, -0.37962962962962965, -0.38333333333333336, -0.38333333333333336, -0.387037037037037, -0.387037037037037, -0.387037037037037, -0.387037037037037, -0.387037037037037, -0.387037037037037, -0.387037037037037, -0.387037037037037, -0.387037037037037, -0.387037037037037, -0.387037037037037, -0.387037037037037, -0.387037037037037]"	"[1, 1, 1, 1, 1, 1, 1, 1, 1, 1, 1, 1, 1, 1, 1, 1, 1, 1, 1]"	"[0, 0, 0, 0, 0, 0, 0, 0, 0, 0, 0, 0, 0, 0, 0, 0, 0, 0, 0]"	"[0, 0, 0, 0, 0, 0, 0, 0, 0, 0, 0, 0, 0, 0, 0, 0, 0, 0, 0]"	"[1.9981195000000298, 2.6897190999879967, 3.78990979999071, 4.239846899989061, 4.881560099995113, 5.206885499996133, 5.515244599999278, 5.890192399994703, 6.340256099996623, 6.733979399999953, 7.081709399993997, 7.4570221999892965, 7.807262699992862, 8.498380299992277, 8.94079559999227, 9.38179179999861, 9.873458799993386, 10.2986213999975, 11.090231999987736]"	19	"[1.9942936999868834, 2.68588349998754, 3.786075699987123, 4.236005699989619, 4.87772559998848, 5.203080099992803, 5.511438999994425, 5.88638899999205, 6.336431199990329, 6.730301599993254, 7.077866199993878, 7.4531879999995, 7.803438799994183, 8.494544399989536, 8.937052599998424, 9.377958099998068, 9.869660699987435, 10.294779099989682, 11.08639189999667]"	"[2.1273234999971464, 2.8273209999897517, 3.9025180999888107, 4.335876400000416, 5.002650399997947, 5.3275529999955324, 5.644340899991221, 6.019393099995796, 6.452800599989132, 6.894453000000794, 7.219677099987166, 7.59441789999255, 7.953165499988245, 8.627807500000927, 9.094562999991467, 9.52786709999782, 9.977969899991876, 10.402880699999514, 11.236261300000479]"	306.8565113000077	306.8600660000084	308.3523336000071	308.3686710000038								32	01	2024-02-22_09h15.00.244	BART_exp	2023.2.3	119.99385632365167	2024-02-22 09h15.13.085763 +0100	
balloon.png	53	0	15	15	12	308.3686710000038													308.35256440000376	308.3686710000038	308.3686710000038	308.3686710000038	308.3686710000038	308.3686710000038	0.012249299994437024			308.3686710000038	336.8141109999997	34	1.70	False	"[0.04351851851851852, 0.04259259259259259, 0.04259259259259259, 0.04259259259259259, 0.04259259259259259, 0.04259259259259259, 0.04259259259259259, 0.04259259259259259, 0.04259259259259259, 0.04259259259259259, 0.04259259259259259, 0.04259259259259259, 0.04259259259259259, 0.04259259259259259, 0.04259259259259259, 0.04259259259259259, 0.04259259259259259, 0.04259259259259259, 0.04259259259259259, 0.04259259259259259, 0.04259259259259259, 0.04259259259259259, 0.04259259259259259, 0.04259259259259259, 0.04259259259259259, 0.04259259259259259, 0.04259259259259259, 0.04259259259259259, 0.04259259259259259, 0.04259259259259259, 0.04259259259259259, 0.04259259259259259, 0.04259259259259259, 0.04259259259259259, 0.04259259259259259]"	"[-0.38796296296296295, -0.38796296296296295, -0.38796296296296295, -0.38796296296296295, -0.38796296296296295, -0.38796296296296295, -0.38796296296296295, -0.38796296296296295, -0.38796296296296295, -0.38796296296296295, -0.38796296296296295, -0.38796296296296295, -0.38796296296296295, -0.38796296296296295, -0.38796296296296295, -0.38796296296296295, -0.38796296296296295, -0.38796296296296295, -0.38796296296296295, -0.38796296296296295, -0.38796296296296295, -0.38796296296296295, -0.38796296296296295, -0.38796296296296295, -0.38796296296296295, -0.38796296296296295, -0.38796296296296295, -0.38796296296296295, -0.38796296296296295, -0.38796296296296295, -0.38796296296296295, -0.38796296296296295, -0.38796296296296295, -0.38796296296296295, -0.38796296296296295]"	"[1, 1, 1, 1, 1, 1, 1, 1, 1, 1, 1, 1, 1, 1, 1, 1, 1, 1, 1, 1, 1, 1, 1, 1, 1, 1, 1, 1, 1, 1, 1, 1, 1, 1, 0]"	"[0, 0, 0, 0, 0, 0, 0, 0, 0, 0, 0, 0, 0, 0, 0, 0, 0, 0, 0, 0, 0, 0, 0, 0, 0, 0, 0, 0, 0, 0, 0, 0, 0, 0, 0]"	"[0, 0, 0, 0, 0, 0, 0, 0, 0, 0, 0, 0, 0, 0, 0, 0, 0, 0, 0, 0, 0, 0, 0, 0, 0, 0, 0, 0, 0, 0, 0, 0, 0, 0, 1]"	"[0.6668771999975434, 1.466940699989209, 1.9504505999939283, 2.441826599999331, 2.9003446999995504, 3.6174844999914058, 4.025282699993113, 4.392219399989699, 4.742314399991301, 5.075391299993498, 5.3673616999876685, 5.667262499991921, 5.992281300001196, 6.4504708999884315, 6.992414199994528, 7.450449699987075, 8.58407709999301, 9.502680399993551, 10.459152299998095, 11.209499099990353, 12.459497099989676, 13.659195599990198, 15.892676399991615, 16.7930028999981, 19.126569699990796, 19.676407199993264, 20.803763099989737, 21.218372599993018, 22.268673300000955, 22.910110599987092, 24.051619299993035, 25.435047599996324, 27.010412999996333, 27.793934099987382, 28.460439299989957]"	35	"[0.6644661000027554, 1.464518799999496, 1.9480482999933884, 2.4393988999945577, 2.897930199993425, 3.6150815000000875, 4.022861699995701, 4.389822800003458, 4.739921999993385, 5.072970799999894, 5.365082300006179, 5.6649895000009565, 5.989862699992955, 6.448049700004049, 6.990003300001263, 7.448021999996854, 8.581660399999237, 9.500283500005025, 10.456729099998483, 11.207071900003939, 12.45707059999404, 13.656769299996085, 15.890253100005793, 16.790583699999843, 19.124164299995755, 19.6739918999956, 20.8013454000029, 21.215953599996283, 22.266285699995933, 22.907697000002372, 24.049236100006965, 25.432624699998996, 27.007989399993676, 27.79153089999454, 28.457955000005313]"	"[0.8309372999938205, 1.5976992000069004, 2.0892815999977756, 2.5415351999981795, 2.9978417999955127, 3.7437737000000197, 4.172749000004842, 4.489553799998248, 4.84793499999796, 5.164660099995672, 5.482702299996163, 5.797898200005875, 6.131253100000322, 6.597892299992964, 7.147948199999519, 7.60826989999623, 8.77316329999303, 9.666521599996486, 10.606903599997167, 11.369297199998982, 12.607049300000654, 13.81508240000403, 16.0568956000061, 16.948651300001075, 19.257137499997043, 19.798996500001522, 20.949083400002564, 21.35733359999722, 22.416066200006753, 23.04930630000308, 24.190868399993633, 25.565889399993466, 27.1327472999983, 27.907810000004247, 28.4579592999944]"	336.81553669999994	336.8205820000003	338.3127658000012	338.3207937999978								32	01	2024-02-22_09h15.00.244	BART_exp	2023.2.3	119.99385632365167	2024-02-22 09h15.13.085763 +0100	
balloon.png	118	0	16	16	27	338.3207937999978													338.31298499999684	338.3207937999978	338.3207937999978	338.3207937999978	338.3207937999978	338.3207937999978	0.005331299995305017	0.005331299995305017	0.005331299995305017	338.3207937999978	360.89083770000434	26	1.30	False	"[0.049074074074074076, 0.049074074074074076, 0.04814814814814815, 0.04814814814814815, 0.04814814814814815, 0.04814814814814815, 0.04814814814814815, 0.04814814814814815, 0.04814814814814815, 0.04814814814814815, 0.04814814814814815, 0.046296296296296294, 0.04259259259259259, 0.023148148148148147, 0.005555555555555556, 0.005555555555555556, 0.005555555555555556, 0.005555555555555556, 0.004629629629629629, 0.004629629629629629, 0.003703703703703704, 0.001851851851851852, 0.000925925925925926, 0.000925925925925926, 0.0, 0.0, 0.0]"	"[-0.38425925925925924, -0.38425925925925924, -0.387037037037037, -0.387037037037037, -0.387037037037037, -0.387037037037037, -0.387037037037037, -0.387037037037037, -0.387037037037037, -0.387037037037037, -0.387037037037037, -0.3888888888888889, -0.38981481481481484, -0.3925925925925926, -0.3990740740740741, -0.3990740740740741, -0.3990740740740741, -0.3990740740740741, -0.3990740740740741, -0.3990740740740741, -0.3990740740740741, -0.3990740740740741, -0.3990740740740741, -0.3990740740740741, -0.4, -0.4, -0.4]"	"[1, 1, 1, 1, 1, 1, 1, 1, 1, 1, 1, 1, 1, 1, 1, 1, 1, 1, 1, 1, 1, 1, 1, 1, 1, 1, 0]"	"[0, 0, 0, 0, 0, 0, 0, 0, 0, 0, 0, 0, 0, 0, 0, 0, 0, 0, 0, 0, 0, 0, 0, 0, 0, 0, 0]"	"[0, 0, 0, 0, 0, 0, 0, 0, 0, 0, 0, 0, 0, 0, 0, 0, 0, 0, 0, 0, 0, 0, 0, 0, 0, 0, 1]"	"[2.083736800006591, 3.225237999999081, 3.9588785999949323, 4.750523099995917, 5.492134700005408, 6.075417400003062, 6.617323600003147, 7.342504300002474, 7.858988699998008, 8.367449099998339, 8.90906599999289, 9.459294400003273, 10.025844699994195, 11.042648999995436, 12.0842008000036, 13.017590699993889, 13.817680599997402, 14.451113500006613, 15.034481800001231, 16.01784339999722, 17.067966100003105, 17.576506299999892, 18.41825859999517, 18.885087799993926, 20.284763200004818, 20.89311999999336, 22.576746000006096]"	27	"[2.0814729999983683, 3.2228860000032, 3.9565332000056515, 4.74816479999572, 5.489767399994889, 6.073057000001427, 6.614967300003627, 7.340148000002955, 7.856629400004749, 8.365091900006519, 8.906702200009022, 9.456934600006207, 10.023482500007958, 11.040317699997104, 12.081840600003488, 13.015232300007483, 13.815318299995852, 14.448749899995164, 15.032122000004165, 16.015480900008697, 17.06560270000773, 17.57414910000807, 18.415902699998696, 18.882744700007606, 20.282461700000567, 20.89075469999807, 22.574322300002677]"	"[2.1978536999959033, 3.3643787000037264, 4.108888999995543, 4.906306400007452, 5.614665300003253, 6.247839899995597, 6.764790700006415, 7.506470000007539, 8.01474660000531, 8.498294200006058, 9.064870100002736, 9.606898400001228, 10.181561599994893, 11.181656400003703, 12.215078799999901, 13.165134599999874, 13.940133900003275, 14.56532999999763, 15.165298799998709, 16.115425900003174, 17.16551619999518, 17.69887849999941, 18.557161300006555, 19.00716900000407, 20.4072884000052, 20.940674099998432, 22.574326400004793]"	360.89201680000406	360.8971397999994	362.3893922999996	362.4030094000045								32	01	2024-02-22_09h15.00.244	BART_exp	2023.2.3	119.99385632365167	2024-02-22 09h15.13.085763 +0100	
balloon.png	44	0	17	17	10	362.4030094000045													362.38960910000606	362.4030094000045	362.4030094000045	362.4030094000045	362.4030094000045	362.4030094000045	-0.0009041000012075529	-0.0009041000012075529	-0.0009041000012075529	362.4030094000045	396.61865340000077	40	2.00	False	"[-0.005555555555555556, -0.005555555555555556, -0.005555555555555556, -0.005555555555555556, -0.005555555555555556, -0.005555555555555556, -0.005555555555555556, -0.005555555555555556, -0.005555555555555556, -0.005555555555555556, -0.005555555555555556, -0.005555555555555556, -0.005555555555555556, -0.005555555555555556, -0.005555555555555556, -0.005555555555555556, -0.005555555555555556, -0.005555555555555556, -0.005555555555555556, -0.005555555555555556, -0.005555555555555556, -0.005555555555555556, -0.005555555555555556, -0.005555555555555556, -0.005555555555555556, -0.005555555555555556, -0.005555555555555556, -0.005555555555555556, -0.005555555555555556, -0.005555555555555556, -0.005555555555555556, -0.005555555555555556, -0.005555555555555556, -0.005555555555555556, -0.005555555555555556, -0.005555555555555556, -0.005555555555555556, -0.005555555555555556, -0.005555555555555556, -0.005555555555555556, -0.005555555555555556]"	"[-0.40185185185185185, -0.40185185185185185, -0.40185185185185185, -0.40185185185185185, -0.40185185185185185, -0.40185185185185185, -0.40185185185185185, -0.40185185185185185, -0.40185185185185185, -0.40185185185185185, -0.40185185185185185, -0.40185185185185185, -0.40185185185185185, -0.40185185185185185, -0.40185185185185185, -0.40185185185185185, -0.40185185185185185, -0.40185185185185185, -0.40185185185185185, -0.40185185185185185, -0.40185185185185185, -0.40185185185185185, -0.40185185185185185, -0.40185185185185185, -0.40185185185185185, -0.40185185185185185, -0.40185185185185185, -0.40185185185185185, -0.40185185185185185, -0.40185185185185185, -0.40185185185185185, -0.40185185185185185, -0.40185185185185185, -0.40185185185185185, -0.40185185185185185, -0.40185185185185185, -0.40185185185185185, -0.40185185185185185, -0.40185185185185185, -0.40185185185185185, -0.40185185185185185]"	"[1, 1, 1, 1, 1, 1, 1, 1, 1, 1, 1, 1, 1, 1, 1, 1, 1, 1, 1, 1, 1, 1, 1, 1, 1, 1, 1, 1, 1, 1, 1, 1, 1, 1, 1, 1, 1, 1, 1, 1, 0]"	"[0, 0, 0, 0, 0, 0, 0, 0, 0, 0, 0, 0, 0, 0, 0, 0, 0, 0, 0, 0, 0, 0, 0, 0, 0, 0, 0, 0, 0, 0, 0, 0, 0, 0, 0, 0, 0, 0, 0, 0, 0]"	"[0, 0, 0, 0, 0, 0, 0, 0, 0, 0, 0, 0, 0, 0, 0, 0, 0, 0, 0, 0, 0, 0, 0, 0, 0, 0, 0, 0, 0, 0, 0, 0, 0, 0, 0, 0, 0, 0, 0, 0, 1]"	"[0.9168848999979673, 1.8753559999895515, 2.6085697999951662, 3.188268199999584, 3.6842646000004606, 4.0588246999977855, 4.442249999992782, 4.767085300001781, 5.125419999996666, 5.458939000003738, 5.800669699994614, 6.175519199998234, 6.567069299999275, 6.867387499994948, 7.3005448999902, 7.758953399999882, 8.10069680000015, 8.467434099991806, 8.908965700000408, 9.775794499990297, 10.659480599992094, 11.434356700003264, 12.384227299990016, 13.186625699992874, 14.461306800003513, 15.326153599991812, 16.5345951999916, 17.526222000000416, 18.843254699997487, 20.409991900000023, 21.7098457999964, 22.959978999992018, 24.360093099996448, 25.54346689999511, 26.893579700001283, 28.352020299993455, 29.602290599999833, 30.944650799996452, 32.202555399999255, 33.30242670000007, 34.22769459999108]"	41	"[0.9087692000030074, 1.8672432000021217, 2.6004493000073126, 3.180172300009872, 3.6761553000105778, 4.050708399998257, 4.434134399998584, 4.758989100009785, 5.117299200006528, 5.450823000006494, 5.792608100004145, 6.167394100004458, 6.558954400010407, 6.8592744000052335, 7.292417300006491, 7.750827800002298, 8.092572499997914, 8.459309500001837, 8.900838200002909, 9.767682000005152, 10.65137790000881, 11.42623409999942, 12.376114300001063, 13.17849859999842, 14.45318500000576, 15.318028499998036, 16.526469400007045, 17.51809540000977, 18.835141600007773, 20.40188030000718, 21.701716800002032, 22.95185380001203, 24.351975800003856, 25.535340900009032, 26.885454400005983, 28.343896400008816, 29.59418500000902, 30.93660090000776, 32.194444799999474, 33.29430200000934, 34.219514600001276]"	"[1.0419916000100784, 2.0040302999987034, 2.7254699000041, 3.2965490000060527, 3.7836895000073127, 4.159207600008813, 4.575801200000569, 4.908941900008358, 5.2338589999999385, 5.567190000001574, 5.950608900006046, 6.308836100011831, 6.683978800007026, 6.984019399998942, 7.425602800009074, 7.884076600006665, 8.208993500011275, 8.63416000000143, 9.042437000010977, 9.89254549999896, 10.801022900006501, 11.584462700004224, 12.501490900001954, 13.368108499998925, 14.651173400008702, 15.601193100010278, 16.692982599997777, 17.676324300002307, 19.034808399999747, 20.568225499999244, 21.868354300007923, 23.118378900006064, 24.4934290000092, 25.69352300000901, 27.010348399999202, 28.485641200008104, 29.76052910000726, 31.07727390000946, 32.35245980000764, 33.4274934999994, 34.219518900004914]"	396.6207637000043	396.6248484000098	398.11686989999725	398.12479509999685								32	01	2024-02-22_09h15.00.244	BART_exp	2023.2.3	119.99385632365167	2024-02-22 09h15.13.085763 +0100	
balloon.png	84	0	18	18	19	398.12479509999685													398.1171036000014	398.12479509999685	398.12479509999685	398.12479509999685	398.12479509999685	398.12479509999685	0.004105299987713806	0.004105299987713806	0.004105299987713806	398.12479509999685	439.09682790000807	50	2.50	False	"[0.006481481481481481, 0.006481481481481481, 0.006481481481481481, 0.006481481481481481, 0.006481481481481481, 0.006481481481481481, 0.006481481481481481, 0.006481481481481481, 0.006481481481481481, 0.006481481481481481, 0.006481481481481481, 0.006481481481481481, 0.006481481481481481, 0.006481481481481481, 0.006481481481481481, 0.006481481481481481, 0.006481481481481481, 0.006481481481481481, 0.007407407407407408, 0.009259259259259259, 0.009259259259259259, 0.009259259259259259, 0.009259259259259259, 0.009259259259259259, 0.009259259259259259, 0.009259259259259259, 0.009259259259259259, 0.009259259259259259, 0.009259259259259259, 0.009259259259259259, 0.009259259259259259, 0.009259259259259259, 0.009259259259259259, 0.010185185185185186, 0.010185185185185186, 0.010185185185185186, 0.010185185185185186, 0.011111111111111112, 0.011111111111111112, 0.011111111111111112, 0.012037037037037037, 0.012037037037037037, 0.012037037037037037, 0.012037037037037037, 0.012037037037037037, 0.012037037037037037, 0.012037037037037037, 0.012037037037037037, 0.012037037037037037, 0.012037037037037037, 0.012037037037037037]"	"[-0.40185185185185185, -0.40185185185185185, -0.40185185185185185, -0.40185185185185185, -0.40185185185185185, -0.40185185185185185, -0.40185185185185185, -0.40185185185185185, -0.40185185185185185, -0.40185185185185185, -0.40185185185185185, -0.40185185185185185, -0.40185185185185185, -0.40185185185185185, -0.40185185185185185, -0.40185185185185185, -0.40185185185185185, -0.40185185185185185, -0.40185185185185185, -0.40185185185185185, -0.40185185185185185, -0.40185185185185185, -0.40185185185185185, -0.40185185185185185, -0.40185185185185185, -0.40185185185185185, -0.40185185185185185, -0.40185185185185185, -0.40185185185185185, -0.40185185185185185, -0.40185185185185185, -0.40185185185185185, -0.40185185185185185, -0.40185185185185185, -0.40185185185185185, -0.40185185185185185, -0.40185185185185185, -0.40185185185185185, -0.40185185185185185, -0.40185185185185185, -0.4027777777777778, -0.4027777777777778, -0.4027777777777778, -0.4027777777777778, -0.4027777777777778, -0.4027777777777778, -0.4027777777777778, -0.4027777777777778, -0.4027777777777778, -0.4027777777777778, -0.40370370370370373]"	"[1, 1, 1, 1, 1, 1, 1, 1, 1, 1, 1, 1, 1, 1, 1, 1, 1, 1, 1, 1, 1, 1, 1, 1, 1, 1, 1, 1, 1, 1, 1, 1, 1, 1, 1, 1, 1, 1, 1, 1, 1, 1, 1, 1, 1, 1, 1, 1, 1, 1, 0]"	"[0, 0, 0, 0, 0, 0, 0, 0, 0, 0, 0, 0, 0, 0, 0, 0, 0, 0, 0, 0, 0, 0, 0, 0, 0, 0, 0, 0, 0, 0, 0, 0, 0, 0, 0, 0, 0, 0, 0, 0, 0, 0, 0, 0, 0, 0, 0, 0, 0, 0, 0]"	"[0, 0, 0, 0, 0, 0, 0, 0, 0, 0, 0, 0, 0, 0, 0, 0, 0, 0, 0, 0, 0, 0, 0, 0, 0, 0, 0, 0, 0, 0, 0, 0, 0, 0, 0, 0, 0, 0, 0, 0, 0, 0, 0, 0, 0, 0, 0, 0, 0, 0, 1]"	"[2.2255587999970885, 3.483852300007129, 4.100305800006026, 4.459296800006996, 4.817033900006209, 5.150384599997778, 5.758801100004348, 6.167156700001215, 6.5171456999960355, 6.8254360999999335, 7.167380400002003, 7.508881100002327, 7.850915999995777, 8.558873600006336, 9.109205400003702, 9.634294500006945, 10.13426010000694, 10.734201600003871, 11.601129700007732, 12.10127719999582, 12.525876500003505, 12.942583500000183, 13.284912699993583, 13.651484899994102, 14.218278900007135, 14.717628900005366, 15.192714499993599, 15.68460039999627, 16.10108570000739, 16.601141399994958, 17.10962030000519, 17.63481760000286, 19.151360200005, 20.626806200001738, 23.277338400002918, 25.226958600003854, 26.18552389999968, 26.98544750000292, 28.41055790000246, 28.918871200003196, 30.98659210000187, 31.969071200001054, 32.777419799997006, 33.41095230000792, 34.35427480000362, 35.294226900005015, 36.686172100002295, 37.46111489999748, 38.21136309999565, 38.70273869999801, 40.9784168000042]"	51	"[2.223238999999012, 3.481491200000164, 4.0979379000054905, 4.456982000003336, 4.814660500007449, 5.148012800011202, 5.756475900008809, 6.164791200004402, 6.514775200004806, 6.823075400010566, 7.1650067000009585, 7.506509800005006, 7.8485479000082705, 8.5564990999992, 9.106847300005029, 9.63193930000125, 10.131891299999552, 10.731835300000967, 11.59878440000466, 12.098926999999094, 12.523517800000263, 12.940219800002524, 13.282536600003368, 13.649159100008546, 14.21611340000527, 14.715250499997637, 15.190358799998648, 15.682232300008764, 16.098714100007783, 16.598764700000174, 17.10737599999993, 17.63245430000825, 19.148984700004803, 20.62444549999782, 23.275110800008406, 25.22458780001034, 26.183176100006676, 26.983083400002215, 28.408189499998116, 28.916505200002575, 30.98426290000498, 31.966742900011013, 32.77504790000967, 33.40861830000358, 34.352167600009125, 35.29185639999923, 36.683847599997534, 37.458749700002954, 38.20900719999918, 38.70037140000204, 40.97609050000028]"	"[2.3895505999971647, 3.614487300001201, 4.206942500008154, 4.573151500007953, 4.914568200008944, 5.256423500002711, 5.864658000005875, 6.2813397999998415, 6.622971600008896, 6.931429100004607, 7.281501600009506, 7.664872499997728, 7.998234800004866, 8.715090900004725, 9.25650790000509, 9.806606300000567, 10.28996460000053, 10.881751599998097, 11.765170300001046, 12.232040900009451, 12.640095599999768, 13.04018840000208, 13.40700829999696, 13.790189600011217, 14.365397100002156, 14.831978500005789, 15.331935299996985, 15.806973900005687, 16.265385899998364, 16.748728300008224, 17.273838200009777, 17.790538800007198, 19.282277899998007, 20.75745440000901, 23.44094000000041, 25.374237600000924, 26.374359000008553, 27.124441300009494, 28.57457730000897, 29.03305170001113, 31.11689330000081, 32.150109399997746, 32.90816910000285, 33.524967000004835, 34.724996500008274, 35.43330309999874, 37.10012290001032, 37.6086484999978, 38.35025420000602, 38.850267100002384, 40.97609480000392]"	439.09846140000445	439.1025861000089	440.59680719999596	440.61274740000954								32	01	2024-02-22_09h15.00.244	BART_exp	2023.2.3	119.99385632365167	2024-02-22 09h15.13.085763 +0100	
balloon.png	114	0	19	19	26	440.61274740000954													440.59725200000685	440.61274740000954	440.61274740000954	440.61274740000954	440.61274740000954	440.61274740000954	0.0009264000109396875	0.0009264000109396875	0.0009264000109396875	440.61274740000954	462.9228943000053	40	2.00	False	"[0.008333333333333333, 0.006481481481481481, 0.006481481481481481, 0.006481481481481481, 0.006481481481481481, 0.006481481481481481, 0.006481481481481481, 0.006481481481481481, 0.006481481481481481, 0.006481481481481481, 0.006481481481481481, 0.006481481481481481, 0.006481481481481481, 0.006481481481481481, 0.006481481481481481, 0.006481481481481481, 0.006481481481481481, 0.006481481481481481, 0.006481481481481481, 0.006481481481481481, 0.006481481481481481, 0.006481481481481481, 0.006481481481481481, 0.006481481481481481, 0.006481481481481481, 0.007407407407407408, 0.007407407407407408, 0.008333333333333333, 0.008333333333333333, 0.008333333333333333, 0.008333333333333333, 0.008333333333333333, 0.008333333333333333, 0.008333333333333333, 0.008333333333333333, 0.008333333333333333, 0.008333333333333333, 0.008333333333333333, 0.008333333333333333, 0.008333333333333333, 0.009259259259259259]"	"[-0.4009259259259259, -0.4009259259259259, -0.4009259259259259, -0.4009259259259259, -0.4009259259259259, -0.4009259259259259, -0.4009259259259259, -0.4009259259259259, -0.4009259259259259, -0.4009259259259259, -0.4009259259259259, -0.4009259259259259, -0.4009259259259259, -0.4009259259259259, -0.4009259259259259, -0.4009259259259259, -0.4009259259259259, -0.4009259259259259, -0.4009259259259259, -0.4009259259259259, -0.4009259259259259, -0.4009259259259259, -0.4009259259259259, -0.4009259259259259, -0.4009259259259259, -0.4009259259259259, -0.4009259259259259, -0.3990740740740741, -0.3990740740740741, -0.3990740740740741, -0.3990740740740741, -0.3990740740740741, -0.3990740740740741, -0.3990740740740741, -0.3990740740740741, -0.3990740740740741, -0.3990740740740741, -0.3990740740740741, -0.3990740740740741, -0.39814814814814814, -0.3972222222222222]"	"[1, 1, 1, 1, 1, 1, 1, 1, 1, 1, 1, 1, 1, 1, 1, 1, 1, 1, 1, 1, 1, 1, 1, 1, 1, 1, 1, 1, 1, 1, 1, 1, 1, 1, 1, 1, 1, 1, 1, 1, 0]"	"[0, 0, 0, 0, 0, 0, 0, 0, 0, 0, 0, 0, 0, 0, 0, 0, 0, 0, 0, 0, 0, 0, 0, 0, 0, 0, 0, 0, 0, 0, 0, 0, 0, 0, 0, 0, 0, 0, 0, 0, 0]"	"[0, 0, 0, 0, 0, 0, 0, 0, 0, 0, 0, 0, 0, 0, 0, 0, 0, 0, 0, 0, 0, 0, 0, 0, 0, 0, 0, 0, 0, 0, 0, 0, 0, 0, 0, 0, 0, 0, 0, 0, 1]"	"[1.8807935999939218, 2.847421599988593, 3.539411599995219, 4.3563259999937145, 4.972701399994548, 5.539629499995499, 6.081196599989198, 6.397676399996271, 6.6736658999871, 6.906643499998609, 7.464379699988058, 7.71461479998834, 7.939768099997309, 8.131301699992036, 8.339750799990725, 8.564560099999653, 9.247934099999839, 9.481504799987306, 10.09814479999477, 10.557753399989451, 11.29830929999298, 11.548291399987647, 11.789699699991615, 12.023068799986504, 12.264870099999825, 12.798182499987888, 13.233260699998937, 13.515205899995635, 13.765116999988095, 14.465265299993916, 18.248614299998735, 18.490409699996235, 18.698690499993972, 18.907147799996892, 19.150625199996284, 19.373617299992475, 19.823731500000576, 20.240385400000378, 20.748651299989433, 21.39049229999364, 22.323912399995606]"	40	"[1.8710827999893809, 2.837699600000633, 3.5297149999969406, 4.346645899990108, 4.962982799988822, 5.529920299988589, 6.071475599994301, 6.38795140000002, 6.66399219998857, 6.896972699993057, 7.454654399989522, 7.704895699993358, 7.930175699992105, 8.121583100000862, 8.330130999995163, 8.554839799995534, 9.238207699992927, 9.471800499988603, 10.08843179998803, 10.548256299996865, 11.288607899987255, 11.538593699995545, 11.779972799995448, 12.013346699997783, 12.788463299992145, 13.223542599997018, 13.50552439999592, 13.755424699993455, 14.45557999999437, 18.238907099992502, 18.480704299989156, 18.68897429999197, 18.897457099999883, 19.14100969998981, 19.363903699995717, 19.81401219998952, 20.230663299997104, 20.73892979999073, 21.38077269999485, 22.314127899997402]"	"[2.012684499990428, 3.0042643999913707, 3.8043166999996174, 4.537781099992571, 5.137743799990858, 5.696358299988788, 6.229922099999385, 6.4966393999930006, 6.763383599987719, 7.013203700000304, 7.579944999990403, 7.821293999993941, 8.029722899998887, 8.237875499995425, 8.429782099992735, 8.662943499992252, 9.338287399994442, 9.571389299992006, 10.221508499991614, 10.654857000001357, 11.429834399998072, 11.638259999992442, 11.879969399989932, 12.379945599997882, 12.905060699995374, 13.33845250000013, 13.621796999999788, 13.855168999987654, 14.572174299988546, 18.338612299994566, 18.538649900001474, 18.763733999992837, 19.02191289998882, 19.221992499995395, 19.455353299999842, 19.9139232999878, 20.338818299991544, 20.863892499997746, 21.49900599999819, 22.31413210000028]"	462.92426620000333	462.92917309999757	464.4216882000037	464.43283689999953								32	01	2024-02-22_09h15.00.244	BART_exp	2023.2.3	119.99385632365167	2024-02-22 09h15.13.085763 +0100	
balloon.png	1	0	20	20	0	464.43283689999953													464.421912100006	464.43283689999953	464.43283689999953	464.43283689999953	464.43283689999953	464.43283689999953	-0.000720199997886084	-0.000720199997886084	-0.000720199997886084	464.43283689999953	466.23184140000376	2	0.05	True	"[0.017592592592592594, 0.017592592592592594]"	"[-0.4, -0.4]"	"[1, 1]"	"[0, 0]"	"[0, 0]"	"[1.4019750000006752, 1.6915915999998106]"	2	"[1.3963392000005115, 1.68598049999855]"	"[1.5109478999947896, 1.796624900001916]"	466.2324665000051	466.23774080000294	467.730049699996	467.7425079000095								32	01	2024-02-22_09h15.00.244	BART_exp	2023.2.3	119.99385632365167	2024-02-22 09h15.13.085763 +0100	
balloon.png	101	0	21	21	23	467.7425079000095													467.7302600999974	467.7425079000095	467.7425079000095	467.7425079000095	467.7425079000095	467.7425079000095	-0.0006241999944904819	-0.0006241999944904819	-0.0006241999944904819	467.7425079000095	544.8784537000029	92	4.60	False	"[0.017592592592592594, 0.017592592592592594, 0.017592592592592594, 0.017592592592592594, 0.017592592592592594, 0.017592592592592594, 0.017592592592592594, 0.017592592592592594, 0.017592592592592594, 0.017592592592592594, 0.017592592592592594, 0.017592592592592594, 0.017592592592592594, 0.017592592592592594, 0.017592592592592594, 0.017592592592592594, 0.017592592592592594, 0.016666666666666666, 0.016666666666666666, 0.016666666666666666, 0.012962962962962963, 0.012962962962962963, 0.011111111111111112, 0.011111111111111112, 0.011111111111111112, 0.011111111111111112, 0.011111111111111112, 0.011111111111111112, 0.011111111111111112, 0.011111111111111112, 0.011111111111111112, 0.011111111111111112, 0.011111111111111112, 0.011111111111111112, 0.011111111111111112, 0.011111111111111112, 0.011111111111111112, 0.011111111111111112, 0.011111111111111112, 0.011111111111111112, 0.011111111111111112, 0.011111111111111112, 0.011111111111111112, 0.011111111111111112, 0.011111111111111112, 0.011111111111111112, 0.011111111111111112, 0.011111111111111112, 0.011111111111111112, 0.011111111111111112, 0.011111111111111112, 0.011111111111111112, 0.011111111111111112, 0.011111111111111112, 0.011111111111111112, 0.011111111111111112, 0.011111111111111112, 0.011111111111111112, 0.011111111111111112, 0.011111111111111112, 0.011111111111111112, 0.011111111111111112, 0.011111111111111112, 0.011111111111111112, 0.011111111111111112, 0.011111111111111112, 0.011111111111111112, 0.011111111111111112, 0.011111111111111112, 0.011111111111111112, 0.011111111111111112, 0.011111111111111112, 0.011111111111111112, 0.011111111111111112, 0.011111111111111112, 0.011111111111111112, 0.011111111111111112, 0.011111111111111112, 0.011111111111111112, 0.011111111111111112, 0.011111111111111112, 0.011111111111111112, 0.011111111111111112, 0.011111111111111112, 0.011111111111111112, 0.011111111111111112, 0.011111111111111112, 0.011111111111111112, 0.011111111111111112, 0.011111111111111112, 0.011111111111111112, 0.011111111111111112, 0.011111111111111112]"	"[-0.4, -0.4, -0.4, -0.4, -0.4, -0.4, -0.4, -0.4, -0.4, -0.4, -0.4, -0.4, -0.4, -0.4, -0.4, -0.4, -0.4, -0.4, -0.4, -0.4, -0.3990740740740741, -0.3990740740740741, -0.3990740740740741, -0.3990740740740741, -0.3990740740740741, -0.3990740740740741, -0.3990740740740741, -0.3990740740740741, -0.3990740740740741, -0.3990740740740741, -0.3990740740740741, -0.3990740740740741, -0.3990740740740741, -0.3990740740740741, -0.3990740740740741, -0.3990740740740741, -0.3990740740740741, -0.3990740740740741, -0.3990740740740741, -0.3990740740740741, -0.3990740740740741, -0.3990740740740741, -0.3990740740740741, -0.3990740740740741, -0.3990740740740741, -0.3990740740740741, -0.3990740740740741, -0.3990740740740741, -0.3990740740740741, -0.3990740740740741, -0.3990740740740741, -0.3990740740740741, -0.3990740740740741, -0.3990740740740741, -0.3990740740740741, -0.3990740740740741, -0.3990740740740741, -0.3990740740740741, -0.3990740740740741, -0.3990740740740741, -0.3990740740740741, -0.3990740740740741, -0.3990740740740741, -0.3990740740740741, -0.3990740740740741, -0.3990740740740741, -0.3990740740740741, -0.3990740740740741, -0.3990740740740741, -0.3990740740740741, -0.3990740740740741, -0.3990740740740741, -0.3990740740740741, -0.3990740740740741, -0.3990740740740741, -0.3990740740740741, -0.3990740740740741, -0.3990740740740741, -0.3990740740740741, -0.3990740740740741, -0.3990740740740741, -0.3990740740740741, -0.3990740740740741, -0.3990740740740741, -0.3990740740740741, -0.3990740740740741, -0.3990740740740741, -0.3990740740740741, -0.3990740740740741, -0.3990740740740741, -0.3990740740740741, -0.3990740740740741, -0.3990740740740741]"	"[1, 1, 1, 1, 1, 1, 1, 1, 1, 1, 1, 1, 1, 1, 1, 1, 1, 1, 1, 1, 1, 1, 1, 1, 1, 1, 1, 1, 1, 1, 1, 1, 1, 1, 1, 1, 1, 1, 1, 1, 1, 1, 1, 1, 1, 1, 1, 1, 1, 1, 1, 1, 1, 1, 1, 1, 1, 1, 1, 1, 1, 1, 1, 1, 1, 1, 1, 1, 1, 1, 1, 1, 1, 1, 1, 1, 1, 1, 1, 1, 1, 1, 1, 1, 1, 1, 1, 1, 1, 1, 1, 1, 0]"	"[0, 0, 0, 0, 0, 0, 0, 0, 0, 0, 0, 0, 0, 0, 0, 0, 0, 0, 0, 0, 0, 0, 0, 0, 0, 0, 0, 0, 0, 0, 0, 0, 0, 0, 0, 0, 0, 0, 0, 0, 0, 0, 0, 0, 0, 0, 0, 0, 0, 0, 0, 0, 0, 0, 0, 0, 0, 0, 0, 0, 0, 0, 0, 0, 0, 0, 0, 0, 0, 0, 0, 0, 0, 0, 0, 0, 0, 0, 0, 0, 0, 0, 0, 0, 0, 0, 0, 0, 0, 0, 0, 0, 0]"	"[0, 0, 0, 0, 0, 0, 0, 0, 0, 0, 0, 0, 0, 0, 0, 0, 0, 0, 0, 0, 0, 0, 0, 0, 0, 0, 0, 0, 0, 0, 0, 0, 0, 0, 0, 0, 0, 0, 0, 0, 0, 0, 0, 0, 0, 0, 0, 0, 0, 0, 0, 0, 0, 0, 0, 0, 0, 0, 0, 0, 0, 0, 0, 0, 0, 0, 0, 0, 0, 0, 0, 0, 0, 0, 0, 0, 0, 0, 0, 0, 0, 0, 0, 0, 0, 0, 0, 0, 0, 0, 0, 0, 1]"	"[0.9003624000033597, 1.2583644999976968, 1.583536499994807, 1.8670329000015045, 2.108865899994271, 2.3587760999944294, 2.616901899993536, 2.858580799991614, 3.09192289999919, 3.333876799995778, 3.592023099990911, 3.841983499994967, 4.108836999992491, 4.383977399993455, 5.025396700002602, 5.5009183999936795, 5.951025000002119, 6.351210699998774, 6.792159999997239, 7.325716899998952, 7.934209200000623, 8.767499499997939, 9.375727599996026, 9.917489899991779, 10.50088870000036, 11.050815700000385, 11.642534700004035, 12.234361900002114, 12.826006499992218, 13.392728499995428, 14.009450300000026, 14.726888899996993, 15.277015500003472, 16.117964099990786, 16.4011376999988, 16.73467150000215, 17.34307619999163, 17.834649099997478, 18.442981200001668, 18.959696199992322, 19.401546099994448, 20.42648559999361, 21.35184339999978, 22.16835039999569, 23.4520746999915, 24.35998069999914, 25.51027499999327, 26.635192899993854, 27.6103415999969, 28.6186069999967, 29.652218999995966, 30.81061210000189, 31.935792699994636, 33.185644400000456, 34.35242969999672, 35.3193753999949, 36.47769210000115, 37.70294419999118, 39.00282110000262, 40.26978049999161, 42.46147729999211, 43.43637270000181, 44.553063700004714, 45.65329999999085, 46.653377399998135, 47.611747399991145, 48.428716199996416, 49.278719900001306, 50.186809499995434, 51.055771600003936, 52.020489999995334, 53.03947909999988, 54.37874220000231, 55.60444460000144, 56.47911380000005, 57.279153399998904, 58.195859999992535, 59.15433109999867, 60.25434509999468, 61.19613430000027, 62.3709516999952, 63.69616870000027, 64.54624460000196, 65.67980189999798, 66.69640020000224, 67.77141049999045, 69.33021230000304, 70.45510710000235, 71.60526529999333, 73.0053712999943, 74.06350789999124, 76.22225619999517, 77.14710339999874]"	93	"[0.8934057000005851, 1.2513719000126002, 1.5765504000009969, 1.8600450000085402, 2.1018903000076534, 2.3518017000023974, 2.609917400011909, 2.851587200013455, 3.0849499000032665, 3.32691670001077, 3.5850303000042913, 3.834994300006656, 4.1019463000120595, 4.377020400002948, 5.018414100006339, 5.493970400013495, 5.944057900007465, 6.344254700001329, 6.78517250000732, 7.3187268000037875, 7.927322300005471, 8.760538500006078, 9.368756100011524, 9.910502300001099, 10.493915600003675, 11.043826600012835, 11.635544000004302, 12.227385500009404, 12.819013500004075, 13.385739300007117, 14.00247410000884, 14.719948800004204, 15.270067400007974, 16.110978400000022, 16.39415320000262, 16.727683000004617, 17.33613460000197, 17.827656600013142, 18.435990600002697, 18.952708100012387, 19.394573100013076, 20.419493700013845, 21.34489670000039, 22.161361700011184, 23.445117800001753, 24.352989600010915, 25.50328580000496, 26.62820580000698, 27.603355100000044, 28.611612500011688, 29.645232500013663, 30.803620900012902, 31.92881270000362, 33.17865440000605, 34.34544110001298, 35.31241760001285, 36.47070010000607, 37.69598490001226, 38.99584340000001, 40.26280170000973, 42.45449240000744, 43.429383200011216, 44.54607120000583, 45.64630670000042, 46.646391400005086, 47.60476230000495, 48.42175510000379, 49.271747100006905, 50.17982020000636, 51.04878500000632, 52.013505300012184, 53.0324849000026, 54.37175109999953, 55.59753990000172, 56.472128800000064, 57.272166500013554, 58.18887640000321, 59.14734690000478, 60.247366800002055, 61.18916770000942, 62.36397410000791, 63.68917380001221, 64.53926090001187, 65.67282290000003, 66.68943290000607, 67.76441660001001, 69.32324280000466, 70.44812600000296, 71.59832490001281, 72.99841230000311, 74.05652340000961, 76.2152885000105, 77.14004730001034]"	"[1.034613600000739, 1.3597449000080815, 1.6764670000120532, 1.9680214000109117, 2.234757400001399, 2.476480299999821, 2.7182624000124633, 2.959905300012906, 3.2015420000097947, 3.4432951000053436, 3.701561900001252, 3.960006700013764, 4.2348822000058135, 4.493388400005642, 5.168297100011841, 5.651800999999978, 6.077182300010463, 6.485127300009481, 6.951696700009052, 7.485111500005587, 8.101846000005025, 8.893457800004398, 9.48531320001348, 10.068810400000075, 10.626943700000993, 11.143776900004013, 11.752120700009982, 12.360507400007918, 12.952274499999476, 13.543900500008021, 14.093974900009925, 14.843979500001296, 15.393978600011906, 16.23607980000088, 16.51916060000076, 16.827449100004742, 17.49417700000049, 17.977565000008326, 18.552476700002444, 19.09432650000963, 19.511005899999873, 20.611047500002314, 21.486110700003337, 22.26946740000858, 23.57822210001177, 24.503032600012375, 25.644730100000743, 26.80313610000303, 27.753224600004614, 28.770120200002566, 29.794986700013396, 30.93682990000525, 32.061925100002554, 33.43726560000505, 34.47014650001074, 35.46207440001308, 36.61214140000811, 37.89563800000178, 39.13717010000255, 40.38743760000216, 42.579503200002364, 43.60430120000092, 44.68773630000942, 45.85456310000154, 46.796282300012535, 47.746284500011825, 48.57965900001, 49.43811010000354, 50.30498179999995, 51.19646280001325, 52.15508650000265, 53.17170350000379, 54.53003040001204, 55.71358680000412, 56.58850960001291, 57.39701570000034, 58.35533700000087, 59.28867630001332, 60.380752900004154, 61.34725240000989, 62.522386000011466, 63.830641900000046, 64.68919020000612, 65.79753820000042, 66.80597780000244, 67.89764600001217, 69.43255990000034, 70.58121290001145, 71.71464240000932, 73.13155040000856, 74.17309990001377, 76.34831810000469, 77.14005140001245]"	544.8809590000019	544.8860729000007	546.3853584000026									32	01	2024-02-22_09h15.00.244	BART_exp	2023.2.3	119.99385632365167	2024-02-22 09h15.13.085763 +0100	
balloon.png	5	0	22	22	1	546.4022296000039													546.3856546000025	546.4022296000039	546.4022296000039	546.4022296000039	546.4022296000039	546.4022296000039	0.006599499989533797	0.006599499989533797	0.006599499989533797	546.4022296000039	551.1127853000071	6	0.25	True	"[0.011111111111111112, 0.011111111111111112, 0.011111111111111112, 0.011111111111111112, 0.011111111111111112, 0.011111111111111112]"	"[-0.3990740740740741, -0.3990740740740741, -0.3990740740740741, -0.3990740740740741, -0.3990740740740741, -0.3990740740740741]"	"[1, 1, 1, 1, 1, 1]"	"[0, 0, 0, 0, 0, 0]"	"[0, 0, 0, 0, 0, 0]"	"[2.3086408999952255, 3.0086905999924056, 3.4980556999944383, 3.9755549999972573, 4.333753199985949, 4.625326099994709]"	6	"[2.297499499996775, 2.9975250999996206, 3.486884799989639, 3.964418499992462, 4.322590099996887, 4.614163999998709]"	"[2.4055668999935733, 3.143696599989198, 3.613947799996822, 4.0888947999919765, 4.439002699989942, 4.705656299993279]"	551.1134923000063	551.1186195000046	552.610990000001	552.6228284000099								32	01	2024-02-22_09h15.00.244	BART_exp	2023.2.3	119.99385632365167	2024-02-22 09h15.13.085763 +0100	
balloon.png	10	0	23	23	2	552.6228284000099													552.61121860001	552.6228284000099	552.6228284000099	552.6228284000099	552.6228284000099	552.6228284000099	-0.0007065999961923808	-0.0007065999961923808	-0.0007065999961923808	552.6228284000099	555.8303682999976	11	0.50	True	"[0.008333333333333333, 0.008333333333333333, 0.008333333333333333, 0.008333333333333333, 0.008333333333333333, 0.008333333333333333, 0.008333333333333333, 0.007407407407407408, 0.007407407407407408, 0.007407407407407408, 0.007407407407407408]"	"[-0.3972222222222222, -0.3972222222222222, -0.3972222222222222, -0.3972222222222222, -0.3972222222222222, -0.3972222222222222, -0.3972222222222222, -0.3972222222222222, -0.3972222222222222, -0.3972222222222222, -0.3972222222222222]"	"[1, 1, 1, 1, 1, 1, 1, 1, 1, 1, 1]"	"[0, 0, 0, 0, 0, 0, 0, 0, 0, 0, 0]"	"[0, 0, 0, 0, 0, 0, 0, 0, 0, 0, 0]"	"[0.6583162000024458, 1.0083452999970177, 1.2503812999930233, 1.467145199989318, 1.7006910999916727, 1.9583780999964802, 2.158431899995776, 2.3917445999977645, 2.6503639000002295, 2.8753032999957213, 3.0920304999890504]"	11	"[0.6520283999998355, 1.0020409999997355, 1.2440958999941358, 1.4608734999928856, 1.6943984999961685, 1.9520766999921761, 2.1521299999876646, 2.3854475999978604, 2.6440736999938963, 2.8690014999883715, 3.085732499996084]"	"[0.7685758999868995, 1.0937579999881564, 1.3352738999965368, 1.5606391999899643, 1.794045399990864, 2.052016499990714, 2.244248699993477, 2.493976699988707, 2.7354211999918334, 2.977253099990776, 3.2020632999920053]"	555.831394599998	555.8356558000087	557.329748300006	557.3422847000038								32	01	2024-02-22_09h15.00.244	BART_exp	2023.2.3	119.99385632365167	2024-02-22 09h15.13.085763 +0100	
balloon.png	62	0	24	24	14	557.3422847000038													557.3301613000076	557.3422847000038	557.3422847000038	557.3422847000038	557.3422847000038	557.3422847000038	0.0008907000010367483	0.0008907000010367483	0.0008907000010367483	557.3422847000038	572.6813491000066	26	1.30	False	"[0.007407407407407408, 0.007407407407407408, 0.007407407407407408, 0.007407407407407408, 0.007407407407407408, 0.007407407407407408, 0.007407407407407408, 0.007407407407407408, 0.010185185185185186, 0.011111111111111112, 0.011111111111111112, 0.011111111111111112, 0.010185185185185186, 0.010185185185185186, 0.010185185185185186, 0.010185185185185186, 0.010185185185185186, 0.010185185185185186, 0.009259259259259259, 0.009259259259259259, 0.009259259259259259, 0.009259259259259259, 0.009259259259259259, 0.009259259259259259, 0.009259259259259259, 0.009259259259259259, 0.009259259259259259]"	"[-0.3972222222222222, -0.3972222222222222, -0.3972222222222222, -0.3972222222222222, -0.3972222222222222, -0.3972222222222222, -0.3972222222222222, -0.3972222222222222, -0.39814814814814814, -0.39166666666666666, -0.39166666666666666, -0.39166666666666666, -0.3907407407407407, -0.3907407407407407, -0.3907407407407407, -0.3907407407407407, -0.3907407407407407, -0.3907407407407407, -0.38981481481481484, -0.38981481481481484, -0.38981481481481484, -0.38981481481481484, -0.3907407407407407, -0.38981481481481484, -0.38981481481481484, -0.38981481481481484, -0.38981481481481484]"	"[1, 1, 1, 1, 1, 1, 1, 1, 1, 1, 1, 1, 1, 1, 1, 1, 1, 1, 1, 1, 1, 1, 1, 1, 1, 1, 0]"	"[0, 0, 0, 0, 0, 0, 0, 0, 0, 0, 0, 0, 0, 0, 0, 0, 0, 0, 0, 0, 0, 0, 0, 0, 0, 0, 0]"	"[0, 0, 0, 0, 0, 0, 0, 0, 0, 0, 0, 0, 0, 0, 0, 0, 0, 0, 0, 0, 0, 0, 0, 0, 0, 0, 1]"	"[0.4974281000031624, 1.2808839999925112, 1.8975642000004882, 2.589682999998331, 3.4230210999958217, 4.206477300002007, 5.0311709999950835, 5.740084599994589, 6.414594699992449, 7.081309000001056, 7.8148915999918245, 8.456380299990997, 9.023115099989809, 9.498182600000291, 9.923123500004294, 10.373396099996171, 10.798501600002055, 11.2234019000025, 11.665020500004175, 12.031763099992531, 12.448477400001138, 12.940254799992545, 13.373612099996535, 14.150243500000215, 14.56567830000131, 14.92380299999786, 15.349463499995181]"	27	"[0.4910170999937691, 1.2743780000018887, 1.891047700002673, 2.583210800003144, 3.416541300000972, 4.200005000006058, 5.024655100001837, 5.733594999997877, 6.408084599999711, 7.074796100001549, 7.808400399997481, 8.449902599997586, 9.016602399991825, 9.491682199994102, 9.916610200001742, 10.366886799994973, 10.791998700005934, 11.216889300005278, 11.658506899999338, 12.025243900003261, 12.441967299993848, 12.933746700000484, 13.367101099996944, 14.143721600004937, 14.559198300004937, 14.917307099996833, 15.342918700000155]"	"[0.5742030999972485, 1.3576854999992065, 1.9994824000023073, 2.7077332000044407, 3.5744556999998167, 4.3412113999947906, 5.174563799999305, 5.900020600005519, 6.550264499994228, 7.216589899995597, 7.941499399996246, 8.575141299996176, 9.141598400005023, 9.616533499996876, 10.024912699998822, 10.499886999998125, 10.916593100002501, 11.341666599997552, 11.766679399996065, 12.158505999992485, 12.550123299995903, 13.041996700005257, 13.483594899997115, 14.266893899999559, 14.70023940000101, 15.033684699999867, 15.342923000003793]"	572.6825224000058	572.6867746000062	574.1790956000041	574.1925081000081								32	01	2024-02-22_09h15.00.244	BART_exp	2023.2.3	119.99385632365167	2024-02-22 09h15.13.085763 +0100	
balloon.png	110	0	25	25	25	574.1925081000081													574.1793343000027	574.1925081000081	574.1925081000081	574.1925081000081	574.1925081000081	574.1925081000081	-0.0009122000046772882	-0.0009122000046772882	-0.0009122000046772882	574.1925081000081	589.9565052999969	30	1.50	False	"[-0.007407407407407408, -0.007407407407407408, -0.008333333333333333, -0.009259259259259259, -0.009259259259259259, -0.009259259259259259, -0.009259259259259259, -0.009259259259259259, -0.009259259259259259, -0.009259259259259259, -0.009259259259259259, -0.009259259259259259, -0.009259259259259259, -0.012037037037037037, -0.012962962962962963, -0.012962962962962963, -0.012962962962962963, -0.012962962962962963, -0.012962962962962963, -0.012962962962962963, -0.012962962962962963, -0.012962962962962963, -0.012962962962962963, -0.012962962962962963, -0.012962962962962963, -0.012962962962962963, -0.013888888888888888, -0.013888888888888888, -0.013888888888888888, -0.013888888888888888, -0.013888888888888888]"	"[-0.38333333333333336, -0.38333333333333336, -0.3851851851851852, -0.3851851851851852, -0.3851851851851852, -0.3851851851851852, -0.3851851851851852, -0.3851851851851852, -0.3851851851851852, -0.3851851851851852, -0.3851851851851852, -0.3851851851851852, -0.3851851851851852, -0.3851851851851852, -0.3851851851851852, -0.3851851851851852, -0.3851851851851852, -0.3851851851851852, -0.3851851851851852, -0.3851851851851852, -0.3851851851851852, -0.3851851851851852, -0.3851851851851852, -0.3851851851851852, -0.3851851851851852, -0.3851851851851852, -0.3851851851851852, -0.3851851851851852, -0.3851851851851852, -0.3851851851851852, -0.3851851851851852]"	"[1, 1, 1, 1, 1, 1, 1, 1, 1, 1, 1, 1, 1, 1, 1, 1, 1, 1, 1, 1, 1, 1, 1, 1, 1, 1, 1, 1, 1, 1, 0]"	"[0, 0, 0, 0, 0, 0, 0, 0, 0, 0, 0, 0, 0, 0, 0, 0, 0, 0, 0, 0, 0, 0, 0, 0, 0, 0, 0, 0, 0, 0, 0]"	"[0, 0, 0, 0, 0, 0, 0, 0, 0, 0, 0, 0, 0, 0, 0, 0, 0, 0, 0, 0, 0, 0, 0, 0, 0, 0, 0, 0, 0, 0, 1]"	"[0.4584756000112975, 0.9251765000080923, 1.333563400010462, 1.7832996000070125, 2.1917637000005925, 2.633410200010985, 3.041884600010235, 3.4836690000083763, 3.9336539000069024, 4.40849660000822, 4.883772600005614, 5.366920700005721, 5.875615000011749, 6.392173500003992, 6.87594209999952, 7.342950100006419, 7.892942300008144, 8.392245600000024, 8.858845400012797, 9.392213900006027, 9.808806700006244, 10.309361900013755, 10.800688400006038, 11.25095760000113, 11.692524199999752, 12.359092200000305, 12.859353900013957, 13.734448900009738, 14.242559400008759, 14.9843794000044, 15.77598880000005]"	31	"[0.4506219000031706, 0.9173281999974279, 1.3257046999933664, 1.7754232000006596, 2.1838945999916177, 2.625542800000403, 3.0340158000035444, 3.4758058000006713, 3.925785999992513, 4.4006287999945926, 4.87591760000214, 5.359050400002161, 5.867771399993217, 6.3843029999989085, 6.868070399999851, 7.335119099996518, 7.885150699992664, 8.384412600003998, 8.842720899992855, 9.38442020000366, 9.800936799991177, 10.301548899995396, 10.792819900001632, 11.243116400000872, 11.684668000001693, 12.351236899994547, 12.851504199992632, 13.726590099991881, 14.23468789999606, 14.976504599995678, 15.768051299994113]"	"[0.5584751999995206, 1.0419514999957755, 1.4419597999949474, 1.883622599998489, 2.3171004000032553, 2.733836600003997, 3.150849300000118, 3.5921690999966813, 4.0339432999899145, 4.517324100001133, 4.99227499999688, 5.475811099997372, 5.975676499991096, 6.50905559999228, 6.984056200002669, 7.4679149000003235, 8.009185000002617, 8.492468900003587, 8.959258299990324, 9.492473399994196, 9.909350899994024, 10.417608399991877, 10.892669799999567, 11.327837999997428, 11.801055000003544, 12.46781619999092, 12.984537999989698, 13.84448230000271, 14.376364499999909, 15.101352999990922, 15.768055399996229]"	589.9578302000009	589.9630971000006	591.4553376999975	591.4723785999959								32	01	2024-02-22_09h15.00.244	BART_exp	2023.2.3	119.99385632365167	2024-02-22 09h15.13.085763 +0100	
balloon.png	75	0	26	26	17	591.4723785999959													591.4555495999957	591.4723785999959	591.4723785999959	591.4723785999959	591.4723785999959	591.4723785999959	-0.0007404999923892319	-0.0007404999923892319	-0.0007404999923892319	591.4723785999959	610.9834781999962	32	1.60	False	"[-0.013888888888888888, -0.013888888888888888, -0.013888888888888888, -0.013888888888888888, -0.013888888888888888, -0.013888888888888888, -0.013888888888888888, -0.013888888888888888, -0.013888888888888888, -0.013888888888888888, -0.013888888888888888, -0.013888888888888888, -0.013888888888888888, -0.013888888888888888, -0.013888888888888888, -0.013888888888888888, -0.013888888888888888, -0.013888888888888888, -0.013888888888888888, -0.013888888888888888, -0.013888888888888888, -0.013888888888888888, -0.013888888888888888, -0.013888888888888888, -0.013888888888888888, -0.013888888888888888, -0.013888888888888888, -0.013888888888888888, -0.013888888888888888, -0.013888888888888888, -0.013888888888888888, -0.013888888888888888, -0.013888888888888888]"	"[-0.3851851851851852, -0.3851851851851852, -0.3851851851851852, -0.3851851851851852, -0.3851851851851852, -0.3851851851851852, -0.3851851851851852, -0.3851851851851852, -0.3851851851851852, -0.3851851851851852, -0.3851851851851852, -0.3851851851851852, -0.3851851851851852, -0.3851851851851852, -0.3851851851851852, -0.3851851851851852, -0.3851851851851852, -0.3851851851851852, -0.3851851851851852, -0.3851851851851852, -0.3851851851851852, -0.3851851851851852, -0.3851851851851852, -0.3851851851851852, -0.3851851851851852, -0.3851851851851852, -0.3851851851851852, -0.3851851851851852, -0.3851851851851852, -0.3851851851851852, -0.3851851851851852, -0.3851851851851852, -0.3851851851851852]"	"[1, 1, 1, 1, 1, 1, 1, 1, 1, 1, 1, 1, 1, 1, 1, 1, 1, 1, 1, 1, 1, 1, 1, 1, 1, 1, 1, 1, 1, 1, 1, 1, 0]"	"[0, 0, 0, 0, 0, 0, 0, 0, 0, 0, 0, 0, 0, 0, 0, 0, 0, 0, 0, 0, 0, 0, 0, 0, 0, 0, 0, 0, 0, 0, 0, 0, 0]"	"[0, 0, 0, 0, 0, 0, 0, 0, 0, 0, 0, 0, 0, 0, 0, 0, 0, 0, 0, 0, 0, 0, 0, 0, 0, 0, 0, 0, 0, 0, 0, 0, 1]"	"[0.4833014999894658, 1.0169151000009151, 1.516796500000055, 2.0835074999922654, 2.608651699993061, 3.158452899995609, 3.6751615999964997, 4.154624299990246, 4.6922667999897385, 5.417324800000642, 6.000716399998055, 6.625648899993394, 7.317188699991675, 7.884286200001952, 8.53459809999913, 9.534023200001684, 10.45906749999267, 11.776151799989748, 12.242595199990319, 12.717452799988678, 13.1934365999914, 13.692703599997913, 14.17625049999333, 14.659442399992258, 15.217861600001925, 16.06773219999741, 16.509906999999657, 16.943692699991516, 17.40143349999562, 17.843301899993094, 18.234545100000105, 18.65131729999848, 19.526564200001303]"	33	"[0.47181329999875743, 1.0052779999969061, 1.505148399999598, 2.0718617999955313, 2.5970116999960737, 3.1468059000035282, 3.66351329999452, 4.142978000003495, 4.680640899998252, 5.4056973999977345, 5.989093399999547, 6.614011300000129, 7.3055387000058545, 7.872638200002257, 8.523018399995635, 9.522455800004536, 10.447427499995683, 11.764580000002752, 12.230958100000862, 12.705805499994312, 13.182001399996807, 13.681055499997456, 14.164636899993639, 14.647797400000854, 15.206223600005615, 16.05608609999763, 16.49828489999345, 16.932079699996393, 17.389802699995926, 17.831746199997724, 18.222893800004385, 18.63967170000251, 19.514893200001097]"	"[0.5800444000051357, 1.146637700003339, 1.6466428999992786, 2.2133184999984223, 2.746693699999014, 3.2885019999957876, 3.780082199999015, 4.3021587999974145, 4.838657400003285, 5.530247599992435, 6.138769400000456, 6.780383699995582, 7.447468200000003, 8.039167199996882, 8.705855399995926, 9.697206700002425, 10.622300699993502, 11.924070599998231, 12.372343800001545, 12.864232099993387, 13.330869199999142, 13.805829499993706, 14.322563399997307, 14.797708400001284, 15.372602699993877, 16.181214800002635, 16.64817519999633, 17.072603199994774, 17.514795399998548, 17.95607569999993, 18.341445199999725, 18.764639799992437, 19.514898099994753]"	610.9851018000045	610.9894491000014	612.4833884999971	612.4920831000054								32	01	2024-02-22_09h15.00.244	BART_exp	2023.2.3	119.99385632365167	2024-02-22 09h15.13.085763 +0100	
balloon.png	40	0	27	27	9	612.4920831000054													612.4836747000081	612.4920831000054	612.4920831000054	612.4920831000054	612.4920831000054	612.4920831000054	0.000941699996474199	0.000941699996474199	0.000941699996474199	612.4920831000054	634.9435953000066	28	1.40	False	"[-0.013888888888888888, -0.013888888888888888, -0.013888888888888888, -0.013888888888888888, -0.013888888888888888, -0.026851851851851852, -0.023148148148148147, -0.023148148148148147, -0.022222222222222223, -0.022222222222222223, -0.022222222222222223, -0.024074074074074074, -0.024074074074074074, -0.027777777777777776, -0.028703703703703703, -0.028703703703703703, -0.028703703703703703, -0.028703703703703703, -0.028703703703703703, -0.028703703703703703, -0.028703703703703703, -0.028703703703703703, -0.028703703703703703, -0.028703703703703703, -0.028703703703703703, -0.028703703703703703, -0.028703703703703703, -0.028703703703703703, -0.028703703703703703]"	"[-0.3851851851851852, -0.3851851851851852, -0.3851851851851852, -0.3851851851851852, -0.3851851851851852, -0.3787037037037037, -0.3851851851851852, -0.387037037037037, -0.387037037037037, -0.387037037037037, -0.387037037037037, -0.38796296296296295, -0.38796296296296295, -0.3907407407407407, -0.3907407407407407, -0.3907407407407407, -0.3907407407407407, -0.3907407407407407, -0.3907407407407407, -0.3907407407407407, -0.3907407407407407, -0.3907407407407407, -0.3907407407407407, -0.3907407407407407, -0.3907407407407407, -0.3907407407407407, -0.3907407407407407, -0.3907407407407407, -0.3907407407407407]"	"[1, 1, 1, 1, 1, 1, 1, 1, 1, 1, 1, 1, 1, 1, 1, 1, 1, 1, 1, 1, 1, 1, 1, 1, 1, 1, 1, 1, 0]"	"[0, 0, 0, 0, 0, 0, 0, 0, 0, 0, 0, 0, 0, 0, 0, 0, 0, 0, 0, 0, 0, 0, 0, 0, 0, 0, 0, 0, 0]"	"[0, 0, 0, 0, 0, 0, 0, 0, 0, 0, 0, 0, 0, 0, 0, 0, 0, 0, 0, 0, 0, 0, 0, 0, 0, 0, 0, 0, 1]"	"[0.5568516000057571, 1.2066396000009263, 2.031699300001492, 2.656830699997954, 3.181896499998402, 3.9238618000090355, 5.665234000000055, 6.132151800004067, 6.673676200007321, 7.1820086000079755, 7.69893330000923, 8.16543079999974, 8.723920100004761, 9.223843400002806, 9.682487700003549, 10.315839100003359, 10.740809900002205, 11.307594300000346, 12.832548100006534, 13.590833099995507, 15.716229500001646, 16.032592800009297, 16.332790400003432, 16.599391700001433, 16.899620800002594, 17.507991300008143, 18.63279610000609, 19.283065099996747, 22.458635899994988]"	29	"[0.5536916999990353, 1.2034520000015618, 2.0285127999959514, 2.6536428999970667, 3.1787119999935385, 3.92068609999842, 5.662048199999845, 6.128971400001319, 6.670543200001703, 7.1788374000025215, 7.695760899994639, 8.162248900000122, 8.720728600004804, 9.220650799994473, 9.679319200004102, 10.312656099995365, 10.737631600000896, 11.304426799993962, 12.829366999998456, 13.587651599998935, 15.713145899993833, 16.02944070000376, 16.32963999999629, 16.596205499998177, 16.89645919999748, 17.504811599996174, 18.62960369999928, 19.279890299992985, 22.45539899999858]"	"[0.7200365000026068, 1.3201009000040358, 2.1784191000042483, 2.79513539999607, 3.3118204999918817, 4.045164700000896, 5.7372996999911265, 6.2705333000048995, 6.7871124999946915, 7.32034510000085, 7.820511099998839, 8.278826499998104, 8.862215400004061, 9.328999299992574, 9.812274099997012, 10.42899000000034, 10.895713099991553, 11.462491700003739, 12.97925540000142, 13.712902999992366, 15.82941910000227, 16.137696199992206, 16.437729400000535, 16.68777209999098, 17.029347100004088, 17.654500299991923, 18.76285289999214, 19.404630799996085, 22.45540340000298]"	634.9448086000048	634.9494302000094	636.4418466000061	636.4522393000079								32	01	2024-02-22_09h15.00.244	BART_exp	2023.2.3	119.99385632365167	2024-02-22 09h15.13.085763 +0100	
