diceImage	d_number	dice_loop.thisRepN	dice_loop.thisTrialN	dice_loop.thisN	dice_loop.thisIndex	thisRow.t	notes	Start.started	text_start.started	continue_start.started	mouse_start.started	Start.stopped	mouse_start.x	mouse_start.y	mouse_start.leftButton	mouse_start.midButton	mouse_start.rightButton	mouse_start.time	trial.started	box_dice.started	text_dice_header.started	text_gain.started	value_gain.started	text_bank.started	value_bank.started	img_dice_1.started	img_dice_2.started	img_dice_3.started	img_dice_4.started	img_dice_5.started	img_dice_6.started	img_dice_1_2.started	img_dice_3_4.started	img_dice_5_6.started	img_dice_1_2_3.started	img_dice_4_5_6.started	img_dice_1_2_3_4.started	img_dice_2_3_4_5.started	img_dice_3_4_5_6.started	text_value_header.started	text_value_1000.started	text_value_500.started	text_value_200.started	text_value_100.started	mouse_task.started	gain_sound.started	img_dice_throw_trials.started	gain_sound.stopped	img_dice_throw_trials.stopped	trial.stopped	mouse_task.x	mouse_task.y	mouse_task.leftButton	mouse_task.midButton	mouse_task.rightButton	mouse_task.time	choice	gain	loss_sound.started	End.started	text_end.started	key_end.started	End.stopped	key_end.keys	key_end.rt	key_end.duration	participant	session	date	expName	psychopyVersion	frameRate	expStart	
								0.0423828000202775	0.05268880003131926	0.05268880003131926	0.04271870001684874	65.80782900005579	[0.6657407407407407]	[-0.41574074074074074]	[1]	[0]	[0]	[65.76452570001129]																																																	24	01	2024-02-15_13h32.27.143	GDT_exp	2023.2.3	119.81758970732787	2024-02-15 13h32.36.796574 +0100	
dice_6.png	6	0	0	0	5	65.89070740004536													65.81275469996035	65.89070740004536	65.89070740004536	65.89070740004536	65.89070740004536	65.89070740004536	65.89070740004536	65.89070740004536	65.89070740004536	65.89070740004536	65.89070740004536	65.89070740004536	65.89070740004536	65.89070740004536	65.89070740004536	65.89070740004536	65.89070740004536	65.89070740004536	65.89070740004536	65.89070740004536	65.89070740004536	65.89070740004536	65.89070740004536	65.89070740004536	65.89070740004536	65.89070740004536	0.022765400004573166	2.449668899993412	68.324211500003	3.950029900064692	69.90766130003612	69.86029410001356	"[0.10925925925925926, 0.10925925925925926]"	"[-0.1574074074074074, -0.1574074074074074]"	"[1, 0]"	"[0, 0]"	"[0, 1]"	"[1.5789071000181139, 2.395597300026566]"	2	500									24	01	2024-02-15_13h32.27.143	GDT_exp	2023.2.3	119.81758970732787	2024-02-15 13h32.36.796574 +0100	
dice_3.png	3	0	1	1	2	69.90766130003612													69.86110340000596	69.90766130003612	69.90766130003612	69.90766130003612	69.90766130003612	69.90766130003612	69.90766130003612	69.90766130003612	69.90766130003612	69.90766130003612	69.90766130003612	69.90766130003612	69.90766130003612	69.90766130003612	69.90766130003612	69.90766130003612	69.90766130003612	69.90766130003612	69.90766130003612	69.90766130003612	69.90766130003612	69.90766130003612	69.90766130003612	69.90766130003612	69.90766130003612	69.90766130003612	0.01763430004939437		73.49960900004953		75.04972650005948	75.00233250006568	"[-0.12407407407407407, -0.12407407407407407]"	"[-0.23981481481481481, -0.23981481481481481]"	"[1, 0]"	"[0, 0]"	"[0, 1]"	"[2.9792337000835687, 3.537451400072314]"	3	-200	3.555305300047621								24	01	2024-02-15_13h32.27.143	GDT_exp	2023.2.3	119.81758970732787	2024-02-15 13h32.36.796574 +0100	
dice_4.png	4	0	2	2	3	75.04972650005948													75.00291220005602	75.04972650005948	75.04972650005948	75.04972650005948	75.04972650005948	75.04972650005948	75.04972650005948	75.04972650005948	75.04972650005948	75.04972650005948	75.04972650005948	75.04972650005948	75.04972650005948	75.04972650005948	75.04972650005948	75.04972650005948	75.04972650005948	75.04972650005948	75.04972650005948	75.04972650005948	75.04972650005948	75.04972650005948	75.04972650005948	75.04972650005948	75.04972650005948	75.04972650005948	0.018025500001385808	3.288818300003186	78.35839229996782	4.813994799973443	79.9166935000103	79.87747579999268	"[-0.10185185185185185, -0.10185185185185185]"	"[-0.262037037037037, -0.262037037037037]"	"[1, 0]"	"[0, 0]"	"[0, 1]"	"[2.728841800009832, 3.2705389000475407]"	3	200									24	01	2024-02-15_13h32.27.143	GDT_exp	2023.2.3	119.81758970732787	2024-02-15 13h32.36.796574 +0100	
dice_1.png	1	0	3	3	0	79.9166935000103													79.87804920005146	79.9166935000103	79.9166935000103	79.9166935000103	79.9166935000103	79.9166935000103	79.9166935000103	79.9166935000103	79.9166935000103	79.9166935000103	79.9166935000103	79.9166935000103	79.9166935000103	79.9166935000103	79.9166935000103	79.9166935000103	79.9166935000103	79.9166935000103	79.9166935000103	79.9166935000103	79.9166935000103	79.9166935000103	79.9166935000103	79.9166935000103	79.9166935000103	79.9166935000103	0.014568899990990758		81.70851050002966		83.275270299986	83.23605379997753	"[-0.23425925925925925, -0.23425925925925925]"	"[-0.1648148148148148, -0.1648148148148148]"	"[1, 0]"	"[0, 0]"	"[0, 1]"	"[1.0992912000510842, 1.7407707000384107]"	2	-500	1.7555847000330687								24	01	2024-02-15_13h32.27.143	GDT_exp	2023.2.3	119.81758970732787	2024-02-15 13h32.36.796574 +0100	
dice_5.png	5	0	4	4	4	83.275270299986													83.23658280004747	83.275270299986	83.275270299986	83.275270299986	83.275270299986	83.275270299986	83.275270299986	83.275270299986	83.275270299986	83.275270299986	83.275270299986	83.275270299986	83.275270299986	83.275270299986	83.275270299986	83.275270299986	83.275270299986	83.275270299986	83.275270299986	83.275270299986	83.275270299986	83.275270299986	83.275270299986	83.275270299986	83.275270299986	83.275270299986	0.01501620002090931		86.95898790005594		88.50897570000961	88.46139640000183	"[-0.3990740740740741, -0.3990740740740741]"	"[-0.2462962962962963, -0.24444444444444444]"	"[1, 0]"	"[0, 0]"	"[0, 1]"	"[2.0569526000181213, 3.6403995000291616]"	3	-200	3.6557436999864876								24	01	2024-02-15_13h32.27.143	GDT_exp	2023.2.3	119.81758970732787	2024-02-15 13h32.36.796574 +0100	
dice_2.png	2	0	5	5	1	88.50897570000961													88.46196950005833	88.50897570000961	88.50897570000961	88.50897570000961	88.50897570000961	88.50897570000961	88.50897570000961	88.50897570000961	88.50897570000961	88.50897570000961	88.50897570000961	88.50897570000961	88.50897570000961	88.50897570000961	88.50897570000961	88.50897570000961	88.50897570000961	88.50897570000961	88.50897570000961	88.50897570000961	88.50897570000961	88.50897570000961	88.50897570000961	88.50897570000961	88.50897570000961	88.50897570000961	0.017695499933324754	1.2972940999316052	89.82572820002679	2.8224461999488994	91.3925145000685	91.35313429997768	"[-0.3990740740740741, -0.3990740740740741]"	"[-0.24444444444444444, -0.24444444444444444]"	"[1, 0]"	"[0, 0]"	"[0, 1]"	"[0.4709724000422284, 1.2793528999900445]"	3	200									24	01	2024-02-15_13h32.27.143	GDT_exp	2023.2.3	119.81758970732787	2024-02-15 13h32.36.796574 +0100	
dice_3.png	3	1	0	6	2	91.3925145000685													91.3536763000302	91.3925145000685	91.3925145000685	91.3925145000685	91.3925145000685	91.3925145000685	91.3925145000685	91.3925145000685	91.3925145000685	91.3925145000685	91.3925145000685	91.3925145000685	91.3925145000685	91.3925145000685	91.3925145000685	91.3925145000685	91.3925145000685	91.3925145000685	91.3925145000685	91.3925145000685	91.3925145000685	91.3925145000685	91.3925145000685	91.3925145000685	91.3925145000685	91.3925145000685	0.014686100068502128		93.18443530006334		94.73440960003063	94.69493410002906	"[-0.1574074074074074, -0.1574074074074074]"	"[-0.037037037037037035, -0.037037037037037035]"	"[1, 0]"	"[0, 0]"	"[0, 1]"	"[1.224170699948445, 1.7491830999497324]"	1	-1000	1.7640945001039654								24	01	2024-02-15_13h32.27.143	GDT_exp	2023.2.3	119.81758970732787	2024-02-15 13h32.36.796574 +0100	
dice_2.png	2	1	1	7	1	94.73440960003063													94.69551079999655	94.73440960003063	94.73440960003063	94.73440960003063	94.73440960003063	94.73440960003063	94.73440960003063	94.73440960003063	94.73440960003063	94.73440960003063	94.73440960003063	94.73440960003063	94.73440960003063	94.73440960003063	94.73440960003063	94.73440960003063	94.73440960003063	94.73440960003063	94.73440960003063	94.73440960003063	94.73440960003063	94.73440960003063	94.73440960003063	94.73440960003063	94.73440960003063	94.73440960003063	0.014842099975794554		96.65954270004295		98.20965079998132	98.16221480001695	"[-0.23333333333333334, -0.23333333333333334]"	"[-0.15555555555555556, -0.15555555555555556]"	"[1, 0]"	"[0, 0]"	"[0, 1]"	"[1.3408008000114933, 1.8825947999721393]"	2	-500	1.897529299953021								24	01	2024-02-15_13h32.27.143	GDT_exp	2023.2.3	119.81758970732787	2024-02-15 13h32.36.796574 +0100	
dice_1.png	1	1	2	8	0	98.20965079998132													98.16274669999257	98.20965079998132	98.20965079998132	98.20965079998132	98.20965079998132	98.20965079998132	98.20965079998132	98.20965079998132	98.20965079998132	98.20965079998132	98.20965079998132	98.20965079998132	98.20965079998132	98.20965079998132	98.20965079998132	98.20965079998132	98.20965079998132	98.20965079998132	98.20965079998132	98.20965079998132	98.20965079998132	98.20965079998132	98.20965079998132	98.20965079998132	98.20965079998132	98.20965079998132	0.018117700004950166		99.82642830000259		101.36820729996543	101.32881940004881	"[-0.2222222222222222, -0.2222222222222222]"	"[-0.33611111111111114, -0.33611111111111114]"	"[1, 0]"	"[0, 0]"	"[0, 1]"	"[1.0120039000175893, 1.5706041000084952]"	4	-100	1.588862600037828								24	01	2024-02-15_13h32.27.143	GDT_exp	2023.2.3	119.81758970732787	2024-02-15 13h32.36.796574 +0100	
dice_6.png	6	1	3	9	5	101.36820729996543													101.3293977000285	101.36820729996543	101.36820729996543	101.36820729996543	101.36820729996543	101.36820729996543	101.36820729996543	101.36820729996543	101.36820729996543	101.36820729996543	101.36820729996543	101.36820729996543	101.36820729996543	101.36820729996543	101.36820729996543	101.36820729996543	101.36820729996543	101.36820729996543	101.36820729996543	101.36820729996543	101.36820729996543	101.36820729996543	101.36820729996543	101.36820729996543	101.36820729996543	101.36820729996543	0.017728400067426264		102.45996849995572		104.02672289998736	103.97924410004634	"[-0.20833333333333334, -0.20833333333333334]"	"[-0.3416666666666667, -0.3416666666666667]"	"[1, 0]"	"[0, 0]"	"[0, 1]"	"[0.41278379992581904, 1.0462351999012753]"	4	-100	1.0640333000337705								24	01	2024-02-15_13h32.27.143	GDT_exp	2023.2.3	119.81758970732787	2024-02-15 13h32.36.796574 +0100	
dice_4.png	4	1	4	10	3	104.02672289998736													103.97981429996435	104.02672289998736	104.02672289998736	104.02672289998736	104.02672289998736	104.02672289998736	104.02672289998736	104.02672289998736	104.02672289998736	104.02672289998736	104.02672289998736	104.02672289998736	104.02672289998736	104.02672289998736	104.02672289998736	104.02672289998736	104.02672289998736	104.02672289998736	104.02672289998736	104.02672289998736	104.02672289998736	104.02672289998736	104.02672289998736	104.02672289998736	104.02672289998736	104.02672289998736	0.01762519998010248	1.0471514000091702	105.1019506000448	2.563940400024876	106.65206910006236	106.61250339995604	"[0.040740740740740744, 0.040740740740740744]"	"[-0.36203703703703705, -0.36203703703703705]"	"[1, 0]"	"[0, 0]"	"[0, 1]"	"[0.47927120001986623, 1.0293953000800684]"	4	100									24	01	2024-02-15_13h32.27.143	GDT_exp	2023.2.3	119.81758970732787	2024-02-15 13h32.36.796574 +0100	
dice_5.png	5	1	5	11	4	106.65206910006236													106.61302910000086	106.65206910006236	106.65206910006236	106.65206910006236	106.65206910006236	106.65206910006236	106.65206910006236	106.65206910006236	106.65206910006236	106.65206910006236	106.65206910006236	106.65206910006236	106.65206910006236	106.65206910006236	106.65206910006236	106.65206910006236	106.65206910006236	106.65206910006236	106.65206910006236	106.65206910006236	106.65206910006236	106.65206910006236	106.65206910006236	106.65206910006236	106.65206910006236	106.65206910006236	0.014709100010804832	2.580871299956925	109.26876790006645	4.106038799975067	110.82720549998339	110.77985260006972	"[-0.028703703703703703, -0.028703703703703703]"	"[-0.262037037037037, -0.262037037037037]"	"[1, 0]"	"[0, 0]"	"[0, 1]"	"[2.099108599941246, 2.565969999996014]"	3	200									24	01	2024-02-15_13h32.27.143	GDT_exp	2023.2.3	119.81758970732787	2024-02-15 13h32.36.796574 +0100	
dice_5.png	5	2	0	12	4	110.82720549998339													110.7803780999966	110.82720549998339	110.82720549998339	110.82720549998339	110.82720549998339	110.82720549998339	110.82720549998339	110.82720549998339	110.82720549998339	110.82720549998339	110.82720549998339	110.82720549998339	110.82720549998339	110.82720549998339	110.82720549998339	110.82720549998339	110.82720549998339	110.82720549998339	110.82720549998339	110.82720549998339	110.82720549998339	110.82720549998339	110.82720549998339	110.82720549998339	110.82720549998339	110.82720549998339	0.018157899961806834	2.7305439999327064	113.58573960000649	4.263999199960381	115.15253399999347	115.11350970005151	"[-0.30092592592592593, -0.30092592592592593]"	"[-0.36203703703703705, -0.3611111111111111]"	"[1, 0]"	"[0, 0]"	"[0, 1]"	"[2.0536946000065655, 2.712445400073193]"	4	100									24	01	2024-02-15_13h32.27.143	GDT_exp	2023.2.3	119.81758970732787	2024-02-15 13h32.36.796574 +0100	
dice_2.png	2	2	1	13	1	115.15253399999347													115.11404260003474	115.15253399999347	115.15253399999347	115.15253399999347	115.15253399999347	115.15253399999347	115.15253399999347	115.15253399999347	115.15253399999347	115.15253399999347	115.15253399999347	115.15253399999347	115.15253399999347	115.15253399999347	115.15253399999347	115.15253399999347	115.15253399999347	115.15253399999347	115.15253399999347	115.15253399999347	115.15253399999347	115.15253399999347	115.15253399999347	115.15253399999347	115.15253399999347	115.15253399999347	0.015255700098350644	1.4054017000598833	116.59429549996275	2.9222487000515684	118.13605490000919	118.09697700000834	"[-0.3888888888888889, -0.3888888888888889]"	"[-0.26944444444444443, -0.26944444444444443]"	"[1, 0]"	"[0, 0]"	"[0, 1]"	"[0.7064279000042006, 1.3898637000238523]"	3	200									24	01	2024-02-15_13h32.27.143	GDT_exp	2023.2.3	119.81758970732787	2024-02-15 13h32.36.796574 +0100	
dice_3.png	3	2	2	14	2	118.13605490000919													118.09756010002457	118.13605490000919	118.13605490000919	118.13605490000919	118.13605490000919	118.13605490000919	118.13605490000919	118.13605490000919	118.13605490000919	118.13605490000919	118.13605490000919	118.13605490000919	118.13605490000919	118.13605490000919	118.13605490000919	118.13605490000919	118.13605490000919	118.13605490000919	118.13605490000919	118.13605490000919	118.13605490000919	118.13605490000919	118.13605490000919	118.13605490000919	118.13605490000919	118.13605490000919	0.014644299983046949	1.3388390000909567	119.51949940004852	2.8555900000501424	121.06139409996103	121.0220968000358	"[-0.562037037037037, -0.5611111111111111]"	"[-0.3435185185185185, -0.3425925925925926]"	"[1, 0]"	"[0, 0]"	"[0, 1]"	"[0.7738436999497935, 1.3239574000472203]"	4	100									24	01	2024-02-15_13h32.27.143	GDT_exp	2023.2.3	119.81758970732787	2024-02-15 13h32.36.796574 +0100	
dice_6.png	6	2	3	15	5	121.06139409996103													121.02262169995811	121.06139409996103	121.06139409996103	121.06139409996103	121.06139409996103	121.06139409996103	121.06139409996103	121.06139409996103	121.06139409996103	121.06139409996103	121.06139409996103	121.06139409996103	121.06139409996103	121.06139409996103	121.06139409996103	121.06139409996103	121.06139409996103	121.06139409996103	121.06139409996103	121.06139409996103	121.06139409996103	121.06139409996103	121.06139409996103	121.06139409996103	121.06139409996103	121.06139409996103	0.014688899973407388		122.13636400003452		123.69496390002314	123.65564500004984	"[-0.30277777777777776, -0.30277777777777776]"	"[-0.16944444444444445, -0.16944444444444445]"	"[1, 0]"	"[0, 0]"	"[0, 1]"	"[0.44897219992708415, 1.032423899974674]"	2	-500	1.0473257000558078								24	01	2024-02-15_13h32.27.143	GDT_exp	2023.2.3	119.81758970732787	2024-02-15 13h32.36.796574 +0100	
dice_4.png	4	2	4	16	3	123.69496390002314													123.65621719998308	123.69496390002314	123.69496390002314	123.69496390002314	123.69496390002314	123.69496390002314	123.69496390002314	123.69496390002314	123.69496390002314	123.69496390002314	123.69496390002314	123.69496390002314	123.69496390002314	123.69496390002314	123.69496390002314	123.69496390002314	123.69496390002314	123.69496390002314	123.69496390002314	123.69496390002314	123.69496390002314	123.69496390002314	123.69496390002314	123.69496390002314	123.69496390002314	123.69496390002314	0.016676300088874996		125.04487209999934		126.5867846000474	126.54781250003725	"[-0.37962962962962965, -0.37962962962962965]"	"[-0.22777777777777777, -0.22777777777777777]"	"[1, 0]"	"[0, 0]"	"[0, 1]"	"[0.5549901000922546, 1.3051985000493005]"	3	-200	1.3221311999950558								24	01	2024-02-15_13h32.27.143	GDT_exp	2023.2.3	119.81758970732787	2024-02-15 13h32.36.796574 +0100	
dice_1.png	1	2	5	17	0	126.5867846000474													126.54838809999637	126.5867846000474	126.5867846000474	126.5867846000474	126.5867846000474	126.5867846000474	126.5867846000474	126.5867846000474	126.5867846000474	126.5867846000474	126.5867846000474	126.5867846000474	126.5867846000474	126.5867846000474	126.5867846000474	126.5867846000474	126.5867846000474	126.5867846000474	126.5867846000474	126.5867846000474	126.5867846000474	126.5867846000474	126.5867846000474	126.5867846000474	126.5867846000474	126.5867846000474	0.014557000016793609	0.9551808000542223	127.5785276000388	2.48043230001349	129.1035053000087	129.089630600065	"[-0.39166666666666666, -0.39166666666666666]"	"[-0.25277777777777777, -0.25277777777777777]"	"[1, 0]"	"[0, 0]"	"[0, 1]"	"[0.4569634000072256, 0.9403608000138775]"	3	200									24	01	2024-02-15_13h32.27.143	GDT_exp	2023.2.3	119.81758970732787	2024-02-15 13h32.36.796574 +0100	
																																																												129.0900683000218	129.1035053000087	129.1035053000087	136.8962078000186	space	7.792084899963811	None	24	01	2024-02-15_13h32.27.143	GDT_exp	2023.2.3	119.81758970732787	2024-02-15 13h32.36.796574 +0100	
