"diceImage"	"d_number"	"dice_loop.thisRepN"	"dice_loop.thisTrialN"	"dice_loop.thisN"	"dice_loop.thisIndex"	"thisRow.t"	"notes"	"Start.started"	"text_start.started"	"continue_start.started"	"mouse_start.started"	"Start.stopped"	"mouse_start.x"	"mouse_start.y"	"mouse_start.leftButton"	"mouse_start.midButton"	"mouse_start.rightButton"	"mouse_start.time"	"trial.started"	"box_dice.started"	"text_dice_header.started"	"text_gain.started"	"value_gain.started"	"text_bank.started"	"value_bank.started"	"img_dice_1.started"	"img_dice_2.started"	"img_dice_3.started"	"img_dice_4.started"	"img_dice_5.started"	"img_dice_6.started"	"img_dice_1_2.started"	"img_dice_3_4.started"	"img_dice_5_6.started"	"img_dice_1_2_3.started"	"img_dice_4_5_6.started"	"img_dice_1_2_3_4.started"	"img_dice_2_3_4_5.started"	"img_dice_3_4_5_6.started"	"text_value_header.started"	"text_value_1000.started"	"text_value_500.started"	"text_value_200.started"	"text_value_100.started"	"mouse_task.started"	"gain_sound.started"	"img_dice_throw_trials.started"	"gain_sound.stopped"	"img_dice_throw_trials.stopped"	"trial.stopped"	"mouse_task.x"	"mouse_task.y"	"mouse_task.leftButton"	"mouse_task.midButton"	"mouse_task.rightButton"	"mouse_task.time"	"choice"	"gain"	"loss_sound.started"	"End.started"	"text_end.started"	"key_end.started"	"End.stopped"	"key_end.keys"	"key_end.rt"	"key_end.duration"	"participant"	"session"	"date"	"expName"	"psychopyVersion"	"frameRate"	"expStart"	"...75"
NA	NA	NA	NA	NA	NA	NA	NA	0.038433299981989	0.0481564999790862	0.0481564999790862	0.0388065999140963	33.4843978000572	"[0.7083333333333334]"	"[-0.41203703703703703]"	"[1]"	"[0]"	"[0]"	"[33.445004699984565]"	NA	NA	NA	NA	NA	NA	NA	NA	NA	NA	NA	NA	NA	NA	NA	NA	NA	NA	NA	NA	NA	NA	NA	NA	NA	NA	NA	NA	NA	NA	NA	NA	NA	NA	NA	NA	NA	NA	NA	NA	NA	NA	NA	NA	NA	NA	NA	NA	26	"03"	"2024-02-16_15h52.57.630"	"GDT_exp"	"2023.2.3"	119.958878174461	"2024-02-16 15h53.19.813522 +0100"	NA
"dice_4.png"	4	0	0	0	3	33.5671493000118	NA	NA	NA	NA	NA	NA	NA	NA	NA	NA	NA	NA	33.4891728999792	33.5671493000118	33.5671493000118	33.5671493000118	33.5671493000118	33.5671493000118	33.5671493000118	33.5671493000118	33.5671493000118	33.5671493000118	33.5671493000118	33.5671493000118	33.5671493000118	33.5671493000118	33.5671493000118	33.5671493000118	33.5671493000118	33.5671493000118	33.5671493000118	33.5671493000118	33.5671493000118	33.5671493000118	33.5671493000118	33.5671493000118	33.5671493000118	33.5671493000118	0.0225748000666499	5.14137309999205	38.6925201000413	6.64993299997877	40.2426290999865	40.2036541999551	"[-0.20555555555555555, -0.4722222222222222, 0.08148148148148149, 0.16203703703703703]"	"[-0.34629629629629627, -0.3611111111111111, -0.3148148148148148, -0.28055555555555556]"	"[1, 1, 1, 0]"	"[0, 0, 0, 0]"	"[0, 0, 0, 1]"	"[2.118830500054173, 3.7355945000890642, 4.393880799994804, 5.08546450000722]"	4	100	NA	NA	NA	NA	NA	NA	NA	NA	26	"03"	"2024-02-16_15h52.57.630"	"GDT_exp"	"2023.2.3"	119.958878174461	"2024-02-16 15h53.19.813522 +0100"	NA
"dice_2.png"	2	0	1	1	1	40.2426290999865	NA	NA	NA	NA	NA	NA	NA	NA	NA	NA	NA	NA	40.204472500016	40.2426290999865	40.2426290999865	40.2426290999865	40.2426290999865	40.2426290999865	40.2426290999865	40.2426290999865	40.2426290999865	40.2426290999865	40.2426290999865	40.2426290999865	40.2426290999865	40.2426290999865	40.2426290999865	40.2426290999865	40.2426290999865	40.2426290999865	40.2426290999865	40.2426290999865	40.2426290999865	40.2426290999865	40.2426290999865	40.2426290999865	40.2426290999865	40.2426290999865	0.0148944999091327	NA	42.9844611999579	NA	44.5429013000103	44.4956671000691	"[-0.2638888888888889, -0.22870370370370371]"	"[-0.15555555555555556, -0.24259259259259258]"	"[1, 0]"	"[0, 0]"	"[0, 1]"	"[2.24846119992435, 2.6898727999068797]"	2	-500	2.70513549994212	NA	NA	NA	NA	NA	NA	NA	26	"03"	"2024-02-16_15h52.57.630"	"GDT_exp"	"2023.2.3"	119.958878174461	"2024-02-16 15h53.19.813522 +0100"	NA
"dice_3.png"	3	0	2	2	2	44.5429013000103	NA	NA	NA	NA	NA	NA	NA	NA	NA	NA	NA	NA	44.4962558000116	44.5429013000103	44.5429013000103	44.5429013000103	44.5429013000103	44.5429013000103	44.5429013000103	44.5429013000103	44.5429013000103	44.5429013000103	44.5429013000103	44.5429013000103	44.5429013000103	44.5429013000103	44.5429013000103	44.5429013000103	44.5429013000103	44.5429013000103	44.5429013000103	44.5429013000103	44.5429013000103	44.5429013000103	44.5429013000103	44.5429013000103	44.5429013000103	44.5429013000103	0.0195460999384522	0.646865799906664	45.2096348999767	2.16365229990333	46.7680565000046	46.7206954000285	"[-0.5703703703703704, -0.47962962962962963]"	"[-0.3398148148148148, -0.3398148148148148]"	"[1, 0]"	"[0, 0]"	"[0, 1]"	"[0.1936724999686703, 0.6270780999911949]"	4	100	NA	NA	NA	NA	NA	NA	NA	NA	26	"03"	"2024-02-16_15h52.57.630"	"GDT_exp"	"2023.2.3"	119.958878174461	"2024-02-16 15h53.19.813522 +0100"	NA
"dice_5.png"	5	0	3	3	4	46.7680565000046	NA	NA	NA	NA	NA	NA	NA	NA	NA	NA	NA	NA	46.7212344000582	46.7680565000046	46.7680565000046	46.7680565000046	46.7680565000046	46.7680565000046	46.7680565000046	46.7680565000046	46.7680565000046	46.7680565000046	46.7680565000046	46.7680565000046	46.7680565000046	46.7680565000046	46.7680565000046	46.7680565000046	46.7680565000046	46.7680565000046	46.7680565000046	46.7680565000046	46.7680565000046	46.7680565000046	46.7680565000046	46.7680565000046	46.7680565000046	46.7680565000046	0.018294999958016	NA	48.9182100000326	NA	50.4851285000332	50.4456548000453	"[-0.5277777777777778, -0.44814814814814813]"	"[-0.3685185185185185, -0.3425925925925926]"	"[1, 0]"	"[0, 0]"	"[0, 1]"	"[1.603417900041677, 2.0964950000634417]"	4	-100	2.11380539997481	NA	NA	NA	NA	NA	NA	NA	26	"03"	"2024-02-16_15h52.57.630"	"GDT_exp"	"2023.2.3"	119.958878174461	"2024-02-16 15h53.19.813522 +0100"	NA
"dice_6.png"	6	0	4	4	5	50.4851285000332	NA	NA	NA	NA	NA	NA	NA	NA	NA	NA	NA	NA	50.4462317000143	50.4851285000332	50.4851285000332	50.4851285000332	50.4851285000332	50.4851285000332	50.4851285000332	50.4851285000332	50.4851285000332	50.4851285000332	50.4851285000332	50.4851285000332	50.4851285000332	50.4851285000332	50.4851285000332	50.4851285000332	50.4851285000332	50.4851285000332	50.4851285000332	50.4851285000332	50.4851285000332	50.4851285000332	50.4851285000332	50.4851285000332	50.4851285000332	50.4851285000332	0.014636900043115	NA	51.993460000027	NA	53.5685648999643	53.5207935000071	"[-0.35462962962962963, -0.4064814814814815]"	"[-0.35, -0.3509259259259259]"	"[1, 0]"	"[0, 0]"	"[0, 1]"	"[0.9659258999163285, 1.4574669998837635]"	4	-100	1.47232960001566	NA	NA	NA	NA	NA	NA	NA	26	"03"	"2024-02-16_15h52.57.630"	"GDT_exp"	"2023.2.3"	119.958878174461	"2024-02-16 15h53.19.813522 +0100"	NA
"dice_1.png"	1	0	5	5	0	53.5685648999643	NA	NA	NA	NA	NA	NA	NA	NA	NA	NA	NA	NA	53.5213556999806	53.5685648999643	53.5685648999643	53.5685648999643	53.5685648999643	53.5685648999643	53.5685648999643	53.5685648999643	53.5685648999643	53.5685648999643	53.5685648999643	53.5685648999643	53.5685648999643	53.5685648999643	53.5685648999643	53.5685648999643	53.5685648999643	53.5685648999643	53.5685648999643	53.5685648999643	53.5685648999643	53.5685648999643	53.5685648999643	53.5685648999643	53.5685648999643	53.5685648999643	0.0175166999688372	1.41408509993926	55.0020070000319	2.93923080002423	56.5604093000293	56.5210844000103	"[-0.4101851851851852, -0.2777777777777778]"	"[-0.23333333333333334, -0.24537037037037038]"	"[1, 0]"	"[0, 0]"	"[0, 1]"	"[0.762978499988094, 1.3963327000383288]"	3	200	NA	NA	NA	NA	NA	NA	NA	NA	26	"03"	"2024-02-16_15h52.57.630"	"GDT_exp"	"2023.2.3"	119.958878174461	"2024-02-16 15h53.19.813522 +0100"	NA
"dice_4.png"	4	1	0	6	3	56.5604093000293	NA	NA	NA	NA	NA	NA	NA	NA	NA	NA	NA	NA	56.5216198000126	56.5604093000293	56.5604093000293	56.5604093000293	56.5604093000293	56.5604093000293	56.5604093000293	56.5604093000293	56.5604093000293	56.5604093000293	56.5604093000293	56.5604093000293	56.5604093000293	56.5604093000293	56.5604093000293	56.5604093000293	56.5604093000293	56.5604093000293	56.5604093000293	56.5604093000293	56.5604093000293	56.5604093000293	56.5604093000293	56.5604093000293	56.5604093000293	56.5604093000293	0.01468769996427	3.21415429993067	59.8106395000359	4.71430899994448	61.3774172000121	61.3297151000006	"[0.07962962962962963, 0.11666666666666667]"	"[-0.34629629629629627, -0.2796296296296296]"	"[1, 0]"	"[0, 0]"	"[0, 1]"	"[2.3990605999715626, 3.199151400011033]"	4	100	NA	NA	NA	NA	NA	NA	NA	NA	26	"03"	"2024-02-16_15h52.57.630"	"GDT_exp"	"2023.2.3"	119.958878174461	"2024-02-16 15h53.19.813522 +0100"	NA
"dice_3.png"	3	1	1	7	2	61.3774172000121	NA	NA	NA	NA	NA	NA	NA	NA	NA	NA	NA	NA	61.3302919999696	61.3774172000121	61.3774172000121	61.3774172000121	61.3774172000121	61.3774172000121	61.3774172000121	61.3774172000121	61.3774172000121	61.3774172000121	61.3774172000121	61.3774172000121	61.3774172000121	61.3774172000121	61.3774172000121	61.3774172000121	61.3774172000121	61.3774172000121	61.3774172000121	61.3774172000121	61.3774172000121	61.3774172000121	61.3774172000121	61.3774172000121	61.3774172000121	61.3774172000121	0.0176421999931335	NA	65.4943741000025	NA	67.069483099971	67.030435099965	"[-0.12407407407407407, -0.06296296296296296]"	"[-0.25555555555555554, -0.34074074074074073]"	"[1, 0]"	"[0, 0]"	"[0, 1]"	"[3.4546804999699816, 4.079652799991891]"	3	-200	4.09754940005951	NA	NA	NA	NA	NA	NA	NA	26	"03"	"2024-02-16_15h52.57.630"	"GDT_exp"	"2023.2.3"	119.958878174461	"2024-02-16 15h53.19.813522 +0100"	NA
"dice_5.png"	5	1	2	8	4	67.069483099971	NA	NA	NA	NA	NA	NA	NA	NA	NA	NA	NA	NA	67.0310137000633	67.069483099971	67.069483099971	67.069483099971	67.069483099971	67.069483099971	67.069483099971	67.069483099971	67.069483099971	67.069483099971	67.069483099971	67.069483099971	67.069483099971	67.069483099971	67.069483099971	67.069483099971	67.069483099971	67.069483099971	67.069483099971	67.069483099971	67.069483099971	67.069483099971	67.069483099971	67.069483099971	67.069483099971	67.069483099971	0.0148702999576926	2.49713160004467	69.6030011000112	4.01394149998669	71.1447661999846	71.105509200017	"[-0.13518518518518519, -0.08703703703703704]"	"[-0.25092592592592594, -0.3509259259259259]"	"[1, 0]"	"[0, 0]"	"[0, 1]"	"[1.0569800999946892, 2.4820059000048786]"	3	200	NA	NA	NA	NA	NA	NA	NA	NA	26	"03"	"2024-02-16_15h52.57.630"	"GDT_exp"	"2023.2.3"	119.958878174461	"2024-02-16 15h53.19.813522 +0100"	NA
"dice_6.png"	6	1	3	9	5	71.1447661999846	NA	NA	NA	NA	NA	NA	NA	NA	NA	NA	NA	NA	71.1060910000233	71.1447661999846	71.1447661999846	71.1447661999846	71.1447661999846	71.1447661999846	71.1447661999846	71.1447661999846	71.1447661999846	71.1447661999846	71.1447661999846	71.1447661999846	71.1447661999846	71.1447661999846	71.1447661999846	71.1447661999846	71.1447661999846	71.1447661999846	71.1447661999846	71.1447661999846	71.1447661999846	71.1447661999846	71.1447661999846	71.1447661999846	71.1447661999846	71.1447661999846	0.014967399998568	NA	73.0615696000168	NA	74.6035066000186	74.5642399999779	"[-0.5314814814814814, -0.4601851851851852]"	"[-0.34814814814814815, -0.34629629629629627]"	"[1, 0]"	"[0, 0]"	"[0, 1]"	"[1.2905865999637172, 1.8739238999551162]"	4	-100	1.88897390000056	NA	NA	NA	NA	NA	NA	NA	26	"03"	"2024-02-16_15h52.57.630"	"GDT_exp"	"2023.2.3"	119.958878174461	"2024-02-16 15h53.19.813522 +0100"	NA
"dice_1.png"	1	1	4	10	0	74.6035066000186	NA	NA	NA	NA	NA	NA	NA	NA	NA	NA	NA	NA	74.5648293000413	74.6035066000186	74.6035066000186	74.6035066000186	74.6035066000186	74.6035066000186	74.6035066000186	74.6035066000186	74.6035066000186	74.6035066000186	74.6035066000186	74.6035066000186	74.6035066000186	74.6035066000186	74.6035066000186	74.6035066000186	74.6035066000186	74.6035066000186	74.6035066000186	74.6035066000186	74.6035066000186	74.6035066000186	74.6035066000186	74.6035066000186	74.6035066000186	74.6035066000186	0.0147096998989582	1.4637901999522	76.1117878999794	2.98060669994447	77.686923100031	77.6478074999759	"[-0.5740740740740741, -0.4740740740740741]"	"[-0.33425925925925926, -0.3314814814814815]"	"[1, 0]"	"[0, 0]"	"[0, 1]"	"[0.6154960000421852, 1.4489125000545755]"	4	100	NA	NA	NA	NA	NA	NA	NA	NA	26	"03"	"2024-02-16_15h52.57.630"	"GDT_exp"	"2023.2.3"	119.958878174461	"2024-02-16 15h53.19.813522 +0100"	NA
"dice_2.png"	2	1	5	11	1	77.686923100031	NA	NA	NA	NA	NA	NA	NA	NA	NA	NA	NA	NA	77.6483889999799	77.686923100031	77.686923100031	77.686923100031	77.686923100031	77.686923100031	77.686923100031	77.686923100031	77.686923100031	77.686923100031	77.686923100031	77.686923100031	77.686923100031	77.686923100031	77.686923100031	77.686923100031	77.686923100031	77.686923100031	77.686923100031	77.686923100031	77.686923100031	77.686923100031	77.686923100031	77.686923100031	77.686923100031	77.686923100031	0.0145265000173822	NA	83.4289874000242	NA	85.0041002000216	84.9568953000708	"[-0.35462962962962963, -0.23796296296296296]"	"[-0.049074074074074076, -0.04259259259259259]"	"[1, 0]"	"[0, 0]"	"[0, 1]"	"[5.190942700020969, 5.6909739000257105]"	1	-1000	5.70572660001926	NA	NA	NA	NA	NA	NA	NA	26	"03"	"2024-02-16_15h52.57.630"	"GDT_exp"	"2023.2.3"	119.958878174461	"2024-02-16 15h53.19.813522 +0100"	NA
"dice_6.png"	6	2	0	12	5	85.0041002000216	NA	NA	NA	NA	NA	NA	NA	NA	NA	NA	NA	NA	84.957642900059	85.0041002000216	85.0041002000216	85.0041002000216	85.0041002000216	85.0041002000216	85.0041002000216	85.0041002000216	85.0041002000216	85.0041002000216	85.0041002000216	85.0041002000216	85.0041002000216	85.0041002000216	85.0041002000216	85.0041002000216	85.0041002000216	85.0041002000216	85.0041002000216	85.0041002000216	85.0041002000216	85.0041002000216	85.0041002000216	85.0041002000216	85.0041002000216	85.0041002000216	0.0196338000241667	3.23851330007892	88.2709832000546	4.74699090002105	89.8462107999949	89.8066834000638	"[-0.05092592592592592, -0.06388888888888888]"	"[-0.2611111111111111, -0.33796296296296297]"	"[1, 0]"	"[0, 0]"	"[0, 1]"	"[2.7353032999671996, 3.2187151999678463]"	3	200	NA	NA	NA	NA	NA	NA	NA	NA	26	"03"	"2024-02-16_15h52.57.630"	"GDT_exp"	"2023.2.3"	119.958878174461	"2024-02-16 15h53.19.813522 +0100"	NA
"dice_5.png"	5	2	1	13	4	89.8462107999949	NA	NA	NA	NA	NA	NA	NA	NA	NA	NA	NA	NA	89.8072596000275	89.8462107999949	89.8462107999949	89.8462107999949	89.8462107999949	89.8462107999949	89.8462107999949	89.8462107999949	89.8462107999949	89.8462107999949	89.8462107999949	89.8462107999949	89.8462107999949	89.8462107999949	89.8462107999949	89.8462107999949	89.8462107999949	89.8462107999949	89.8462107999949	89.8462107999949	89.8462107999949	89.8462107999949	89.8462107999949	89.8462107999949	89.8462107999949	89.8462107999949	0.014563399949111	2.72250269993674	92.5962745000143	4.23930289992131	94.1547133000568	94.115298400051	"[-0.3111111111111111, -0.2611111111111111]"	"[-0.33611111111111114, -0.24814814814814815]"	"[1, 0]"	"[0, 0]"	"[0, 1]"	"[2.266012500040233, 2.707700200029649]"	4	100	NA	NA	NA	NA	NA	NA	NA	NA	26	"03"	"2024-02-16_15h52.57.630"	"GDT_exp"	"2023.2.3"	119.958878174461	"2024-02-16 15h53.19.813522 +0100"	NA
"dice_1.png"	1	2	2	14	0	94.1547133000568	NA	NA	NA	NA	NA	NA	NA	NA	NA	NA	NA	NA	94.1158558999887	94.1547133000568	94.1547133000568	94.1547133000568	94.1547133000568	94.1547133000568	94.1547133000568	94.1547133000568	94.1547133000568	94.1547133000568	94.1547133000568	94.1547133000568	94.1547133000568	94.1547133000568	94.1547133000568	94.1547133000568	94.1547133000568	94.1547133000568	94.1547133000568	94.1547133000568	94.1547133000568	94.1547133000568	94.1547133000568	94.1547133000568	94.1547133000568	94.1547133000568	0.0143853999907151	NA	100.071819700068	NA	101.621915200027	101.582676799968	"[0.18703703703703703, 0.20092592592592592, 0.14166666666666666, 0.1287037037037037, 0.14074074074074075]"	"[-0.04351851851851852, -0.18611111111111112, -0.2962962962962963, -0.3351851851851852, -0.2638888888888889]"	"[1, 1, 1, 1, 0]"	"[0, 0, 0, 0, 0]"	"[0, 0, 0, 0, 1]"	"[3.1510430000489578, 4.424905700027011, 4.8332958000246435, 5.158125599962659, 5.858193599968217]"	4	-100	5.87277320004068	NA	NA	NA	NA	NA	NA	NA	26	"03"	"2024-02-16_15h52.57.630"	"GDT_exp"	"2023.2.3"	119.958878174461	"2024-02-16 15h53.19.813522 +0100"	NA
"dice_3.png"	3	2	3	15	2	101.621915200027	NA	NA	NA	NA	NA	NA	NA	NA	NA	NA	NA	NA	101.583240200067	101.621915200027	101.621915200027	101.621915200027	101.621915200027	101.621915200027	101.621915200027	101.621915200027	101.621915200027	101.621915200027	101.621915200027	101.621915200027	101.621915200027	101.621915200027	101.621915200027	101.621915200027	101.621915200027	101.621915200027	101.621915200027	101.621915200027	101.621915200027	101.621915200027	101.621915200027	101.621915200027	101.621915200027	101.621915200027	0.0147514999844134	1.83060260000639	103.488867799984	3.33929610007908	105.030508200056	104.99112120003	"[-0.5666666666666667, -0.4703703703703704]"	"[-0.3611111111111111, -0.34814814814814815]"	"[1, 0]"	"[0, 0]"	"[0, 1]"	"[1.4321989000309259, 1.8157146000303328]"	4	100	NA	NA	NA	NA	NA	NA	NA	NA	26	"03"	"2024-02-16_15h52.57.630"	"GDT_exp"	"2023.2.3"	119.958878174461	"2024-02-16 15h53.19.813522 +0100"	NA
"dice_4.png"	4	2	4	16	3	105.030508200056	NA	NA	NA	NA	NA	NA	NA	NA	NA	NA	NA	NA	104.991691900068	105.030508200056	105.030508200056	105.030508200056	105.030508200056	105.030508200056	105.030508200056	105.030508200056	105.030508200056	105.030508200056	105.030508200056	105.030508200056	105.030508200056	105.030508200056	105.030508200056	105.030508200056	105.030508200056	105.030508200056	105.030508200056	105.030508200056	105.030508200056	105.030508200056	105.030508200056	105.030508200056	105.030508200056	105.030508200056	0.0150064000627026	1.98909679998178	107.055627500056	3.51423890003935	108.614084300003	108.566393699963	"[-0.10277777777777777, -0.10092592592592593]"	"[-0.2537037037037037, -0.3194444444444444]"	"[1, 0]"	"[0, 0]"	"[0, 1]"	"[1.5320298000006005, 1.9737639999948442]"	3	200	NA	NA	NA	NA	NA	NA	NA	NA	26	"03"	"2024-02-16_15h52.57.630"	"GDT_exp"	"2023.2.3"	119.958878174461	"2024-02-16 15h53.19.813522 +0100"	NA
"dice_2.png"	2	2	5	17	1	108.614084300003	NA	NA	NA	NA	NA	NA	NA	NA	NA	NA	NA	NA	108.566948399995	108.614084300003	108.614084300003	108.614084300003	108.614084300003	108.614084300003	108.614084300003	108.614084300003	108.614084300003	108.614084300003	108.614084300003	108.614084300003	108.614084300003	108.614084300003	108.614084300003	108.614084300003	108.614084300003	108.614084300003	108.614084300003	108.614084300003	108.614084300003	108.614084300003	108.614084300003	108.614084300003	108.614084300003	108.614084300003	0.0181326000019908	NA	111.264398999978	NA	112.789355100016	112.774951400002	"[-0.08981481481481482, -0.0962962962962963]"	"[-0.24259259259259258, -0.33425925925925926]"	"[1, 0]"	"[0, 0]"	"[0, 1]"	"[2.2040449999039993, 2.604015399934724]"	3	-200	2.62245949998032	NA	NA	NA	NA	NA	NA	NA	26	"03"	"2024-02-16_15h52.57.630"	"GDT_exp"	"2023.2.3"	119.958878174461	"2024-02-16 15h53.19.813522 +0100"	NA
NA	NA	NA	NA	NA	NA	NA	NA	NA	NA	NA	NA	NA	NA	NA	NA	NA	NA	NA	NA	NA	NA	NA	NA	NA	NA	NA	NA	NA	NA	NA	NA	NA	NA	NA	NA	NA	NA	NA	NA	NA	NA	NA	NA	NA	NA	NA	NA	NA	NA	NA	NA	NA	NA	NA	NA	NA	NA	NA	NA	112.775431000046	112.789355100016	112.789355100016	123.282202000031	"space"	10.4922653000103	"None"	26	"03"	"2024-02-16_15h52.57.630"	"GDT_exp"	"2023.2.3"	119.958878174461	"2024-02-16 15h53.19.813522 +0100"	NA
