image	max_pumps	pump_loop.thisRepN	pump_loop.thisTrialN	pump_loop.thisN	pump_loop.thisIndex	thisRow.t	notes	Start.started	text_start.started	continue_start.started	mouse_start.started	Start.stopped	mouse_start.x	mouse_start.y	mouse_start.leftButton	mouse_start.midButton	mouse_start.rightButton	mouse_start.time	trials.started	stim_balloon.started	stim_balloon_burst.started	stim_balloon_burst.stopped	text_ballon_value.started	text_bank.started	mouse.started	sound_bang.started	sound_bang.stopped	button_balloon.started	trials.stopped	n_pumps	earnings	popped	mouse.x	mouse.y	mouse.leftButton	mouse.midButton	mouse.rightButton	mouse.time	button_balloon.numClicks	button_balloon.timesOn	button_balloon.timesOff	Feedback.started	text_feedback.started	Feedback.stopped	text_feedback.stopped	End.started	text_end.started	key_end.started	End.stopped	key_end.keys	key_end.rt	key_end.duration	participant	session	date	expName	psychopyVersion	frameRate	expStart	
								0.03552019999187905	0.045796999998856336	0.045796999998856336	0.03583759999310132	290.3494401999924	[0.6768518518518518]	[-0.3814814814814815]	[1]	[0]	[0]	[290.3129925999965]																																			27	01	2024-02-19_11h01.11.194	BART_exp	2023.2.3	119.93815986767687	2024-02-19 11h01.32.129293 +0100	
balloon.png	57	0	0	0	13	290.42371769998863													290.36248159999377	290.42371769998863	290.42371769998863	290.42371769998863	290.42371769998863	290.42371769998863	0.014731199989910237	0.014731199989910237	0.014731199989910237	290.42371769998863	300.12606830000004	20	1.00	False	"[-0.05740740740740741, -0.05648148148148148, -0.05648148148148148, -0.04814814814814815, -0.04814814814814815, -0.04814814814814815, -0.04814814814814815, -0.04814814814814815, -0.04814814814814815, -0.04814814814814815, -0.04814814814814815, -0.04814814814814815, -0.04814814814814815, -0.04814814814814815, -0.04814814814814815, -0.04814814814814815, -0.04814814814814815, -0.04814814814814815, -0.04814814814814815, -0.04814814814814815, -0.04814814814814815]"	"[-0.3648148148148148, -0.37037037037037035, -0.37037037037037035, -0.36944444444444446, -0.36944444444444446, -0.36944444444444446, -0.36944444444444446, -0.36944444444444446, -0.36944444444444446, -0.36944444444444446, -0.36944444444444446, -0.36944444444444446, -0.36944444444444446, -0.36944444444444446, -0.36944444444444446, -0.36944444444444446, -0.36944444444444446, -0.36944444444444446, -0.36944444444444446, -0.36944444444444446, -0.36944444444444446]"	"[1, 1, 1, 1, 1, 1, 1, 1, 1, 1, 1, 1, 1, 1, 1, 1, 1, 1, 1, 1, 0]"	"[0, 0, 0, 0, 0, 0, 0, 0, 0, 0, 0, 0, 0, 0, 0, 0, 0, 0, 0, 0, 0]"	"[0, 0, 0, 0, 0, 0, 0, 0, 0, 0, 0, 0, 0, 0, 0, 0, 0, 0, 0, 0, 1]"	"[2.0122508999920683, 3.145606999998563, 3.604020999991917, 4.087413599991123, 4.445888200003537, 4.7372898000030546, 4.962333699993906, 5.170674699998926, 5.362381600003573, 5.620821199991042, 5.920675499990466, 6.204300299999886, 6.554135700003826, 6.912609199993312, 7.22098929999629, 7.587579699989874, 7.6959971000032965, 8.237701999998535, 8.671019100002013, 9.046106099995086, 9.762631599995075]"	21	"[1.9587262999993982, 3.0920811999967555, 3.550501499994425, 4.033902199997101, 4.3923631999932695, 4.683767499998794, 4.908806099992944, 5.117149300000165, 5.308854799994151, 5.5672958999930415, 5.86714899999788, 6.150772599998163, 6.500611399998888, 6.859082099996158, 7.167472499990254, 7.53405550000025, 7.642473100000643, 8.184176199996728, 8.617493799989461, 8.992583599989302, 9.70903929999622]"	"[2.1181285999919055, 3.200152399993385, 3.7086613999999827, 4.150269399993704, 4.533580299990717, 4.800320599999395, 5.016948099990259, 5.20866340000066, 5.383626599999843, 5.675326500000665, 5.983714999994845, 6.283682299996144, 6.642057999997633, 6.967078000001493, 7.275464899998042, 7.608809699988342, 7.7088003999961074, 8.275508599996101, 8.708937399991555, 9.09224610000092, 9.709043599999859]"	300.1274316999916	300.14115579999634	301.6329515999969									27	01	2024-02-19_11h01.11.194	BART_exp	2023.2.3	119.93815986767687	2024-02-19 11h01.32.129293 +0100	
balloon.png	23	0	1	1	5	301.64957209999557													301.6331252999953	301.64957209999557	301.64957209999557	301.64957209999557	301.64957209999557	301.64957209999557	0.00695770001038909	0.00695770001038909	0.00695770001038909	301.64957209999557	309.4353921000002	24	1.15	True	"[-0.04814814814814815, -0.04814814814814815, -0.04814814814814815, -0.04814814814814815, -0.04814814814814815, -0.04814814814814815, -0.04814814814814815, -0.04814814814814815, -0.044444444444444446, -0.044444444444444446, -0.044444444444444446, -0.044444444444444446, -0.044444444444444446, -0.044444444444444446, -0.044444444444444446, -0.044444444444444446, -0.044444444444444446, -0.044444444444444446, -0.044444444444444446, -0.044444444444444446, -0.044444444444444446, -0.044444444444444446, -0.044444444444444446, -0.044444444444444446]"	"[-0.37407407407407406, -0.37407407407407406, -0.37407407407407406, -0.37407407407407406, -0.37407407407407406, -0.37407407407407406, -0.37407407407407406, -0.37407407407407406, -0.37592592592592594, -0.37592592592592594, -0.37592592592592594, -0.37592592592592594, -0.37592592592592594, -0.37592592592592594, -0.37592592592592594, -0.37592592592592594, -0.37592592592592594, -0.37592592592592594, -0.37592592592592594, -0.37592592592592594, -0.37592592592592594, -0.37592592592592594, -0.37592592592592594, -0.37592592592592594]"	"[1, 1, 1, 1, 1, 1, 1, 1, 1, 1, 1, 1, 1, 1, 1, 1, 1, 1, 1, 1, 1, 1, 1, 1]"	"[0, 0, 0, 0, 0, 0, 0, 0, 0, 0, 0, 0, 0, 0, 0, 0, 0, 0, 0, 0, 0, 0, 0, 0]"	"[0, 0, 0, 0, 0, 0, 0, 0, 0, 0, 0, 0, 0, 0, 0, 0, 0, 0, 0, 0, 0, 0, 0, 0]"	"[0.6254405999934534, 0.8838252999994438, 1.1256389000045601, 1.3590067000041017, 1.6254992000031052, 1.925639900000533, 2.359055900000385, 2.617386500001885, 3.092273499991279, 3.475625699997181, 3.8423325000039767, 4.109180200000992, 4.375870200005011, 4.742564200001652, 5.050719899998512, 5.317567499994766, 5.5759336999908555, 5.817460799997207, 6.100898999997298, 6.209152299998095, 6.525986799999373, 6.892790500001865, 7.2925410000025295, 7.6842347999918275]"	24	"[0.6225846000015736, 0.8809727000043495, 1.1227897000062512, 1.3561541000090074, 1.6226469000102952, 1.9227832000033231, 2.3562033000052907, 2.614530500010005, 3.0894237000029534, 3.4727739000081783, 3.8394792000035523, 4.106332700001076, 4.373034000003827, 4.739706000007573, 5.047864200008917, 5.31471330000204, 5.573075599997537, 5.8146059999999125, 6.089719600000535, 6.2062931999971624, 6.523133399998187, 6.889939800006687, 7.289686600008281, 7.681373800005531]"	"[0.722413499999675, 0.9974470000015572, 1.2308077000052435, 1.449065900000278, 1.7308830000110902, 1.9808500000071945, 2.464361700011068, 2.7059076000005007, 3.2392553000099724, 3.580975300006685, 3.947742800010019, 4.239335600010236, 4.489358400009223, 4.864374600001611, 5.164423299996997, 5.431122000009054, 5.689472099998966, 5.922769800003152, 6.147793000011006, 6.314535600002273, 6.664670500002103, 7.014515500006382, 7.431205000000773, 7.789606799997273]"	309.4363519999897	309.450096399989	310.94189509999705									27	01	2024-02-19_11h01.11.194	BART_exp	2023.2.3	119.93815986767687	2024-02-19 11h01.32.129293 +0100	
balloon.png	101	0	2	2	23	310.9585233999969													310.94206879999547	310.9585233999969	310.9585233999969	310.9585233999969	310.9585233999969	310.9585233999969	0.007003000006079674	0.007003000006079674	0.007003000006079674	310.9585233999969	319.42732659999456	20	1.00	False	"[-0.041666666666666664, -0.041666666666666664, -0.041666666666666664, -0.041666666666666664, -0.041666666666666664, -0.041666666666666664, -0.041666666666666664, -0.041666666666666664, -0.041666666666666664, -0.041666666666666664, -0.041666666666666664, -0.041666666666666664, -0.041666666666666664, -0.041666666666666664, -0.041666666666666664, -0.041666666666666664, -0.041666666666666664, -0.041666666666666664, -0.041666666666666664, -0.041666666666666664, -0.04259259259259259]"	"[-0.4027777777777778, -0.4027777777777778, -0.4027777777777778, -0.4027777777777778, -0.4027777777777778, -0.4027777777777778, -0.4027777777777778, -0.4027777777777778, -0.4027777777777778, -0.4027777777777778, -0.4027777777777778, -0.4027777777777778, -0.4027777777777778, -0.4027777777777778, -0.4027777777777778, -0.4027777777777778, -0.4027777777777778, -0.4027777777777778, -0.4027777777777778, -0.4027777777777778, -0.39814814814814814]"	"[1, 1, 1, 1, 1, 1, 1, 1, 1, 1, 1, 1, 1, 1, 1, 1, 1, 1, 1, 1, 0]"	"[0, 0, 0, 0, 0, 0, 0, 0, 0, 0, 0, 0, 0, 0, 0, 0, 0, 0, 0, 0, 0]"	"[0, 0, 0, 0, 0, 0, 0, 0, 0, 0, 0, 0, 0, 0, 0, 0, 0, 0, 0, 0, 1]"	"[0.925541799995699, 1.2090082000067923, 1.45902730000671, 1.7006628999952227, 1.9923669999989215, 2.3007967000012286, 2.6841160000039963, 3.017512499995064, 3.342364700001781, 3.650847299999441, 3.9674478999950225, 4.359080099995481, 4.76756629999727, 5.409295999997994, 5.7091712999972515, 5.992633400004706, 6.434372400006396, 6.876062700001057, 7.2842845999985, 7.725970200001029, 8.484349399994244]"	21	"[0.921352699995623, 1.2048185000021476, 1.4548389999981737, 1.6964709000021685, 1.988178899991908, 2.2966094000003068, 2.679928099998506, 3.013322999991942, 3.338175799988676, 3.6466585000016494, 3.9632617000024766, 4.3548938000021735, 4.763372999994317, 5.405112199994619, 5.704984899988631, 5.988449999989825, 6.430187799996929, 6.871870399991167, 7.28010329999961, 7.7217817999917315, 8.480097499996191]"	"[1.054553499998292, 1.3211891999962972, 1.5630176999984542, 1.804546899991692, 2.1212549999909243, 2.4212568999937503, 2.77964300000167, 3.1129753999994136, 3.4380820999940624, 3.763024100000621, 4.0713833999907365, 4.429733299999498, 4.83826869999757, 5.521509599988349, 5.82149039999058, 6.1048397999984445, 6.5382297999894945, 6.946569299994735, 7.388267199989059, 7.796822099990095, 8.480101699999068]"	319.42827119999856	319.43409809999866	320.92614749999484	320.94253019998723								27	01	2024-02-19_11h01.11.194	BART_exp	2023.2.3	119.93815986767687	2024-02-19 11h01.32.129293 +0100	
balloon.png	97	0	3	3	22	320.94253019998723													320.92632629998843	320.94253019998723	320.94253019998723	320.94253019998723	320.94253019998723	320.94253019998723	-0.0006927000067662448	-0.0006927000067662448	-0.0006927000067662448	320.94253019998723	331.19493469999	21	1.05	False	"[-0.03425925925925926, -0.027777777777777776, -0.02962962962962963, -0.02962962962962963, -0.02962962962962963, -0.02962962962962963, -0.02962962962962963, -0.02962962962962963, -0.02962962962962963, -0.02962962962962963, -0.02962962962962963, -0.02962962962962963, -0.02962962962962963, -0.02962962962962963, -0.02962962962962963, -0.02962962962962963, -0.02962962962962963, -0.02962962962962963, -0.02962962962962963, -0.02962962962962963, -0.02962962962962963, -0.02962962962962963]"	"[-0.39444444444444443, -0.3907407407407407, -0.3907407407407407, -0.3907407407407407, -0.3907407407407407, -0.3907407407407407, -0.3907407407407407, -0.3907407407407407, -0.3907407407407407, -0.3907407407407407, -0.3907407407407407, -0.3907407407407407, -0.3907407407407407, -0.3907407407407407, -0.3907407407407407, -0.3907407407407407, -0.3907407407407407, -0.3907407407407407, -0.3907407407407407, -0.3907407407407407, -0.3907407407407407, -0.3907407407407407]"	"[1, 1, 1, 1, 1, 1, 1, 1, 1, 1, 1, 1, 1, 1, 1, 1, 1, 1, 1, 1, 1, 0]"	"[0, 0, 0, 0, 0, 0, 0, 0, 0, 0, 0, 0, 0, 0, 0, 0, 0, 0, 0, 0, 0, 0]"	"[0, 0, 0, 0, 0, 0, 0, 0, 0, 0, 0, 0, 0, 0, 0, 0, 0, 0, 0, 0, 0, 1]"	"[1.2254699000041, 1.991987400004291, 2.200508900001296, 2.425502999991295, 2.608871399992495, 2.817236299990327, 3.0255833999981405, 3.267426099992008, 3.5754122999933315, 3.8589243000024, 4.100451099991915, 4.333920499993837, 4.68402669999341, 5.942278899994562, 6.875845599992317, 7.142325199994957, 7.409213399994769, 8.034245100003318, 8.475898000004236, 8.850940399992396, 9.442648399999598, 10.267696099996101]"	22	"[1.2156741000071634, 1.9821802000078605, 2.190702100007911, 2.415695300005609, 2.5990686000004644, 2.8074373999988893, 3.0157814000122016, 3.2576185000070836, 3.565608400007477, 3.849116099998355, 4.090642399998615, 4.324114800008829, 4.674221400011447, 5.932473200009554, 6.866043100002571, 7.132519899998442, 7.399406000011368, 8.024443200003589, 8.46609330001229, 8.841143300000113, 9.43284140000469, 10.25782430000254]"	"[1.340338400012115, 2.073744000008446, 2.3153751000063494, 2.5320783000061056, 2.7154721000115387, 2.8904031999991275, 3.1320909000060055, 3.3737767999991775, 3.72391929999867, 3.973819500009995, 4.215523200007738, 4.40720240000519, 4.8238871000066865, 6.090643800009275, 6.990709500008961, 7.224037000007229, 7.482422500004759, 8.182433400012087, 8.607516400006716, 8.940835200002766, 9.54090370000631, 10.257828500005417]"	331.19586939999135	331.20160329999635	332.6935253999982	332.7099906999938								27	01	2024-02-19_11h01.11.194	BART_exp	2023.2.3	119.93815986767687	2024-02-19 11h01.32.129293 +0100	
balloon.png	110	0	4	4	25	332.7099906999938													332.6937028999964	332.7099906999938	332.7099906999938	332.7099906999938	332.7099906999938	332.7099906999938	-0.0009178999898722395	-0.0009178999898722395	-0.0009178999898722395	332.7099906999938	345.2374523999897	25	1.25	False	"[-0.02962962962962963, -0.02962962962962963, -0.02962962962962963, -0.02962962962962963, -0.02962962962962963, -0.02962962962962963, -0.02962962962962963, -0.02962962962962963, -0.02962962962962963, -0.02962962962962963, -0.02962962962962963, -0.02962962962962963, -0.02962962962962963, -0.02962962962962963, -0.02962962962962963, -0.02962962962962963, -0.02962962962962963, -0.02962962962962963, -0.02962962962962963, -0.02962962962962963, -0.02962962962962963, -0.02962962962962963, -0.02962962962962963, -0.02962962962962963, -0.02962962962962963, -0.02962962962962963]"	"[-0.3907407407407407, -0.3907407407407407, -0.3907407407407407, -0.3907407407407407, -0.3907407407407407, -0.3907407407407407, -0.3907407407407407, -0.3907407407407407, -0.3907407407407407, -0.3907407407407407, -0.3907407407407407, -0.3907407407407407, -0.3907407407407407, -0.3907407407407407, -0.3907407407407407, -0.3907407407407407, -0.3907407407407407, -0.3907407407407407, -0.3907407407407407, -0.3907407407407407, -0.3907407407407407, -0.3907407407407407, -0.3907407407407407, -0.3907407407407407, -0.3907407407407407, -0.3907407407407407]"	"[1, 1, 1, 1, 1, 1, 1, 1, 1, 1, 1, 1, 1, 1, 1, 1, 1, 1, 1, 1, 1, 1, 1, 1, 1, 0]"	"[0, 0, 0, 0, 0, 0, 0, 0, 0, 0, 0, 0, 0, 0, 0, 0, 0, 0, 0, 0, 0, 0, 0, 0, 0, 0]"	"[0, 0, 0, 0, 0, 0, 0, 0, 0, 0, 0, 0, 0, 0, 0, 0, 0, 0, 0, 0, 0, 0, 0, 0, 0, 1]"	"[0.9253282999998191, 1.1920138999994379, 1.4256041000044206, 1.6505571000016062, 1.8588630000012927, 2.083890900001279, 2.300571600004332, 2.5588429999916116, 2.7421104999957606, 2.9421654000034323, 3.1421267999976408, 3.325512700001127, 3.533824400001322, 3.8674773999955505, 4.075701800000388, 4.267371699999785, 4.533897400004207, 4.86744629999157, 5.342292599991197, 5.609154099991429, 5.84247659999528, 6.109033799992176, 6.642552099991008, 11.176195099993492, 12.001203499996336, 12.542820100003155]"	26	"[0.9227425999997649, 1.1894223999988753, 1.4230148999922676, 1.6479670999979135, 1.856279400002677, 2.081299299999955, 2.297984599994379, 2.556254800001625, 2.7395225999935064, 2.939572399991448, 3.139540499993018, 3.3229236000042874, 3.531230799999321, 3.8648976999975275, 4.0731127000035485, 4.264785299994401, 4.531311200000346, 4.864857499997015, 5.33971400000155, 5.606565299996873, 5.8398843000031775, 6.106445600002189, 6.639964899994084, 11.173605100004352, 11.998610499998904, 12.540165500002331]"	"[1.047577099991031, 1.2975940000033006, 1.539273399990634, 1.7726380999956746, 1.9976468999957433, 2.1810210999974515, 2.4226953000033973, 2.6393784999963827, 2.8477264999964973, 3.0394149999920046, 3.2310850999929244, 3.406087099996512, 3.7561203999939607, 3.9644452999928035, 4.164460699990741, 4.339470399994752, 4.639503600003081, 5.00619889999507, 5.481252300000051, 5.7396079000027385, 5.931253399990965, 6.206268699999782, 6.772995699997409, 11.256731200002832, 12.098363299999619, 12.54016999999294]"	345.2384622999962	345.2442044999916	346.7361688999954	346.75267819999135								27	01	2024-02-19_11h01.11.194	BART_exp	2023.2.3	119.93815986767687	2024-02-19 11h01.32.129293 +0100	
balloon.png	1	0	5	5	0	346.75267819999135													346.73635099999956	346.75267819999135	346.75267819999135	346.75267819999135	346.75267819999135	346.75267819999135	-0.0008672999974805862	-0.0008672999974805862	-0.0008672999974805862	346.75267819999135	348.3463439999905	2	0.05	True	"[-0.03425925925925926, -0.03425925925925926]"	"[-0.39166666666666666, -0.39166666666666666]"	"[1, 1]"	"[0, 0]"	"[0, 0]"	"[1.2587224999879254, 1.500371299989638]"	2	"[1.2488075000001118, 1.490455799998017]"	"[1.3819337000022642, 1.59032250000746]"	348.3468711999885	348.3527283000003	349.84467989999393	349.8695191000006								27	01	2024-02-19_11h01.11.194	BART_exp	2023.2.3	119.93815986767687	2024-02-19 11h01.32.129293 +0100	
balloon.png	105	0	6	6	24	349.8695191000006													349.84485549999226	349.8695191000006	349.8695191000006	349.8695191000006	349.8695191000006	349.8695191000006	-0.000723299992387183	-0.000723299992387183	-0.000723299992387183	349.8695191000006	357.20488119999936	21	1.05	False	"[-0.03425925925925926, -0.03425925925925926, -0.03425925925925926, -0.03425925925925926, -0.03425925925925926, -0.03425925925925926, -0.03425925925925926, -0.03425925925925926, -0.03425925925925926, -0.03425925925925926, -0.03425925925925926, -0.03425925925925926, -0.03425925925925926, -0.03425925925925926, -0.03425925925925926, -0.03425925925925926, -0.03425925925925926, -0.03425925925925926, -0.03425925925925926, -0.03425925925925926, -0.03425925925925926, -0.03425925925925926]"	"[-0.39166666666666666, -0.39166666666666666, -0.39166666666666666, -0.39166666666666666, -0.39166666666666666, -0.39166666666666666, -0.39166666666666666, -0.39166666666666666, -0.39166666666666666, -0.39166666666666666, -0.39166666666666666, -0.39166666666666666, -0.39166666666666666, -0.39166666666666666, -0.39166666666666666, -0.39166666666666666, -0.39166666666666666, -0.39166666666666666, -0.39166666666666666, -0.39166666666666666, -0.39166666666666666, -0.39166666666666666]"	"[1, 1, 1, 1, 1, 1, 1, 1, 1, 1, 1, 1, 1, 1, 1, 1, 1, 1, 1, 1, 1, 0]"	"[0, 0, 0, 0, 0, 0, 0, 0, 0, 0, 0, 0, 0, 0, 0, 0, 0, 0, 0, 0, 0, 0]"	"[0, 0, 0, 0, 0, 0, 0, 0, 0, 0, 0, 0, 0, 0, 0, 0, 0, 0, 0, 0, 0, 1]"	"[0.8754813999985345, 1.250563699999475, 1.4922563000000082, 1.6922042000078363, 1.8838905000011437, 2.0755863999947906, 2.259045300001162, 2.467259800003376, 2.658932000005734, 2.8756360999977915, 3.100626600004034, 3.3006786000041757, 3.4923941000015475, 3.6756905000074767, 3.8840231000067433, 4.117396800007555, 4.350602200007415, 4.583991599996807, 5.025816599998507, 5.3174213000020245, 5.758992999995826, 7.35910440000589]"	22	"[0.8639204999926733, 1.2389927000040188, 1.480686599999899, 1.6806382999930065, 1.8723245000001043, 2.06401729999925, 2.247478499994031, 2.4556952999992063, 2.6473610999964876, 2.8640655999915907, 3.0890605000022333, 3.2891050999896834, 3.480831099994248, 3.6641216999996686, 3.872450700000627, 4.105828899992048, 4.33903659999487, 4.572421999997459, 5.014244799996959, 5.305853300000308, 5.7474224000034155, 7.347474399997736]"	"[1.0302977999963332, 1.3803146999998717, 1.5886650000029476, 1.7720116999989841, 1.9636775999970268, 2.1636942000041017, 2.347040399996331, 2.555392499998561, 2.7887285000033444, 2.9970650000032037, 3.1971131000027526, 3.397231800001464, 3.5804916999913985, 3.7888023999985307, 3.988826100001461, 4.222213599990937, 4.438865599993733, 4.672297099998104, 5.138869200003683, 5.405611499998486, 5.847372000003816, 7.347479000003659]"	357.205982399988	357.2116593999963	358.703654500001	358.72011579999526								27	01	2024-02-19_11h01.11.194	BART_exp	2023.2.3	119.93815986767687	2024-02-19 11h01.32.129293 +0100	
balloon.png	49	0	7	7	11	358.72011579999526													358.70383220000076	358.72011579999526	358.72011579999526	358.72011579999526	358.72011579999526	358.72011579999526	-0.0007852999988244846	-0.0007852999988244846	-0.0007852999988244846	358.72011579999526	376.33119409999927	28	1.40	False	"[-0.03425925925925926, -0.03425925925925926, -0.03425925925925926, -0.03425925925925926, -0.03425925925925926, -0.03425925925925926, -0.03425925925925926, -0.03425925925925926, -0.03425925925925926, -0.03425925925925926, -0.03425925925925926, -0.03425925925925926, -0.03425925925925926, -0.03425925925925926, -0.03425925925925926, -0.03425925925925926, -0.03425925925925926, -0.03425925925925926, -0.03425925925925926, -0.03425925925925926, -0.03425925925925926, -0.03425925925925926, -0.03425925925925926, -0.03425925925925926, -0.03425925925925926, -0.03425925925925926, -0.03425925925925926, -0.03425925925925926, -0.03425925925925926]"	"[-0.39166666666666666, -0.39166666666666666, -0.39166666666666666, -0.39166666666666666, -0.39166666666666666, -0.39166666666666666, -0.39166666666666666, -0.39166666666666666, -0.39166666666666666, -0.39166666666666666, -0.39166666666666666, -0.39166666666666666, -0.39166666666666666, -0.39166666666666666, -0.39166666666666666, -0.39166666666666666, -0.39166666666666666, -0.39166666666666666, -0.39166666666666666, -0.39166666666666666, -0.39166666666666666, -0.39166666666666666, -0.39166666666666666, -0.39166666666666666, -0.39166666666666666, -0.39166666666666666, -0.39166666666666666, -0.39166666666666666, -0.39166666666666666]"	"[1, 1, 1, 1, 1, 1, 1, 1, 1, 1, 1, 1, 1, 1, 1, 1, 1, 1, 1, 1, 1, 1, 1, 1, 1, 1, 1, 1, 0]"	"[0, 0, 0, 0, 0, 0, 0, 0, 0, 0, 0, 0, 0, 0, 0, 0, 0, 0, 0, 0, 0, 0, 0, 0, 0, 0, 0, 0, 0]"	"[0, 0, 0, 0, 0, 0, 0, 0, 0, 0, 0, 0, 0, 0, 0, 0, 0, 0, 0, 0, 0, 0, 0, 0, 0, 0, 0, 0, 1]"	"[0.6254557000065688, 0.8752855000057025, 1.1087235000013607, 1.3169873000006191, 1.5003216000040993, 1.6919903999951202, 1.925373000005493, 2.1590316999936476, 2.4005402000038885, 2.6504076999990502, 2.833896800002549, 3.067102800006978, 3.292121100006625, 3.5005967000033706, 3.725484199996572, 3.917155000002822, 4.125494899999467, 4.325624699995387, 4.525540400005411, 4.708959700001287, 4.892220499998075, 5.3256014000071445, 8.767689999993308, 8.992667600003188, 12.109460699997726, 12.326176999995369, 16.218184299999848, 16.426470799997333, 17.626401999994414]"	29	"[0.6233276999992086, 0.8731520000001183, 1.1065870000020368, 1.3148469000007026, 1.498182800001814, 1.6898532000050182, 1.923234500005492, 2.156895899999654, 2.398401400001603, 2.6482681000052253, 2.8317558000126155, 3.064966900012223, 3.2899858000018867, 3.498458300004131, 3.723348600004101, 3.9150153000082355, 4.123357800010126, 4.323497600009432, 4.523399500001688, 4.706823800006532, 4.890085999999428, 5.323465800000122, 8.765555400008452, 8.990531900009955, 12.107328600002802, 12.324045900008059, 16.21605050000653, 16.424333200004185, 17.624196100005065]"	"[0.7564232000004267, 0.9979940000048373, 1.2146846000105143, 1.4147396000043955, 1.5980475000105798, 1.7982368000084534, 2.031430900009582, 2.2731672000081744, 2.506488300001365, 2.756456100003561, 2.9565793000074336, 3.21483480000461, 3.406486500010942, 3.606552900004317, 3.823171900003217, 4.023307000010391, 4.2232603000011295, 4.4066338000120595, 4.59825800001272, 4.798296500011929, 5.014974500008975, 5.423344700000598, 8.898529500002041, 9.09027510001033, 12.232110900004045, 12.423816400012583, 16.324033600001712, 16.515750500009744, 17.624200300007942]"	376.3322535999905	376.3379563999915	377.8299196000007	377.84638989999075								27	01	2024-02-19_11h01.11.194	BART_exp	2023.2.3	119.93815986767687	2024-02-19 11h01.32.129293 +0100	
balloon.png	62	0	8	8	14	377.84638989999075													377.8301014999888	377.84638989999075	377.84638989999075	377.84638989999075	377.84638989999075	377.84638989999075	-0.0009123999916482717	-0.0009123999916482717	-0.0009123999916482717	377.84638989999075	385.34847849998914	23	1.15	False	"[-0.03425925925925926, -0.03425925925925926, -0.03425925925925926, -0.03425925925925926, -0.03425925925925926, -0.03425925925925926, -0.03425925925925926, -0.03425925925925926, -0.03425925925925926, -0.03425925925925926, -0.03425925925925926, -0.03425925925925926, -0.03425925925925926, -0.03425925925925926, -0.03425925925925926, -0.03425925925925926, -0.03425925925925926, -0.03425925925925926, -0.03425925925925926, -0.03425925925925926, -0.03425925925925926, -0.03425925925925926, -0.03425925925925926, -0.03425925925925926]"	"[-0.39166666666666666, -0.39166666666666666, -0.39166666666666666, -0.39166666666666666, -0.39166666666666666, -0.39166666666666666, -0.39166666666666666, -0.39166666666666666, -0.39166666666666666, -0.39166666666666666, -0.39166666666666666, -0.39166666666666666, -0.39166666666666666, -0.39166666666666666, -0.39166666666666666, -0.39166666666666666, -0.39166666666666666, -0.39166666666666666, -0.39166666666666666, -0.39166666666666666, -0.39166666666666666, -0.39166666666666666, -0.39166666666666666, -0.39166666666666666]"	"[1, 1, 1, 1, 1, 1, 1, 1, 1, 1, 1, 1, 1, 1, 1, 1, 1, 1, 1, 1, 1, 1, 1, 0]"	"[0, 0, 0, 0, 0, 0, 0, 0, 0, 0, 0, 0, 0, 0, 0, 0, 0, 0, 0, 0, 0, 0, 0, 0]"	"[0, 0, 0, 0, 0, 0, 0, 0, 0, 0, 0, 0, 0, 0, 0, 0, 0, 0, 0, 0, 0, 0, 0, 1]"	"[0.7086784999992233, 0.9419894000020577, 1.1420100999966962, 1.375363600003766, 1.583778500003973, 1.7921857000037562, 2.0922522000037134, 2.3087930000037886, 2.5254375000076834, 2.717121399997268, 2.9254621000000043, 3.167360799998278, 3.4090365000010934, 3.650704300001962, 3.850698399997782, 4.2923808000050485, 4.542303399997763, 4.767317899997579, 4.983962900005281, 5.2257988000055775, 5.517314299999271, 5.842595399997663, 6.109075300002587, 7.51744470000267]"	24	"[0.7028626000101212, 0.9361759000021266, 1.1361973000020953, 1.3695445000048494, 1.577967000004719, 1.786368000000948, 2.086435600009281, 2.3029805999976816, 2.5196189999987837, 2.7113092000072356, 2.9196421000087867, 3.161547600000631, 3.403221800006577, 3.6448881000105757, 3.8448839000047883, 4.286568600000464, 4.536492400002317, 4.761503600006108, 4.978147800007719, 5.2199873000063235, 5.511500300010084, 5.836784400002216, 6.103259000010439, 7.511568600006285]"	"[0.8110852999961935, 1.0610767000034684, 1.2777180999983102, 1.5027751000015996, 1.720774800007348, 1.9694202000100631, 2.211128599999938, 2.427791199996136, 2.6361464000074193, 2.8444894999993267, 3.069548500003293, 3.2778608000080567, 3.527875400002813, 3.7529386000096565, 4.144571700002416, 4.411274600002798, 4.644647799999802, 4.8614019000087865, 5.086332899998524, 5.344746700007818, 5.653011700007482, 5.9530924999999115, 6.22808570000052, 7.511573199997656]"	385.34951109999383	385.3552289999934	386.84718430000066	386.8636712000007								27	01	2024-02-19_11h01.11.194	BART_exp	2023.2.3	119.93815986767687	2024-02-19 11h01.32.129293 +0100	
balloon.png	79	0	9	9	18	386.8636712000007													386.8473579999991	386.8636712000007	386.8636712000007	386.8636712000007	386.8636712000007	386.8636712000007	-0.0009177000029012561	-0.0009177000029012561	-0.0009177000029012561	386.8636712000007	401.4664144999988	35	1.75	False	"[-0.03425925925925926, -0.03425925925925926, -0.03425925925925926, -0.03425925925925926, -0.03425925925925926, -0.03425925925925926, -0.03425925925925926, -0.03425925925925926, -0.03425925925925926, -0.03425925925925926, -0.03425925925925926, -0.03425925925925926, -0.03425925925925926, -0.03425925925925926, -0.03425925925925926, -0.03425925925925926, -0.03425925925925926, -0.03425925925925926, -0.03425925925925926, -0.03425925925925926, -0.03425925925925926, -0.03425925925925926, -0.03425925925925926, -0.03425925925925926, -0.03425925925925926, -0.03425925925925926, -0.03425925925925926, -0.03425925925925926, -0.03425925925925926, -0.03425925925925926, -0.03425925925925926, -0.03425925925925926, -0.03425925925925926, -0.03425925925925926, -0.03425925925925926, -0.03425925925925926]"	"[-0.39166666666666666, -0.39166666666666666, -0.39166666666666666, -0.39166666666666666, -0.39166666666666666, -0.39166666666666666, -0.39166666666666666, -0.39166666666666666, -0.39166666666666666, -0.39166666666666666, -0.39166666666666666, -0.39166666666666666, -0.39166666666666666, -0.39166666666666666, -0.39166666666666666, -0.39166666666666666, -0.39166666666666666, -0.39166666666666666, -0.39166666666666666, -0.39166666666666666, -0.39166666666666666, -0.39166666666666666, -0.39166666666666666, -0.39166666666666666, -0.39166666666666666, -0.39166666666666666, -0.39166666666666666, -0.39166666666666666, -0.39166666666666666, -0.39166666666666666, -0.39166666666666666, -0.39166666666666666, -0.39166666666666666, -0.39166666666666666, -0.39166666666666666, -0.39166666666666666]"	"[1, 1, 1, 1, 1, 1, 1, 1, 1, 1, 1, 1, 1, 1, 1, 1, 1, 1, 1, 1, 1, 1, 1, 1, 1, 1, 1, 1, 1, 1, 1, 1, 1, 1, 1, 0]"	"[0, 0, 0, 0, 0, 0, 0, 0, 0, 0, 0, 0, 0, 0, 0, 0, 0, 0, 0, 0, 0, 0, 0, 0, 0, 0, 0, 0, 0, 0, 0, 0, 0, 0, 0, 0]"	"[0, 0, 0, 0, 0, 0, 0, 0, 0, 0, 0, 0, 0, 0, 0, 0, 0, 0, 0, 0, 0, 0, 0, 0, 0, 0, 0, 0, 0, 0, 0, 0, 0, 0, 0, 1]"	"[0.7922013999923365, 1.0338729999930365, 1.2670954999921378, 1.5005610999942292, 1.6921065999922575, 1.8754759000003105, 2.075451199998497, 2.2754682999948272, 2.4588380999921355, 2.658966499991948, 2.875594600001932, 3.0755108000012115, 3.292214499990223, 3.4922053999907803, 3.7338964999944437, 3.942446300003212, 4.150615699996706, 4.384090799998376, 4.600781499990262, 4.825792899995577, 5.083984099997906, 5.350803599998471, 5.584195599993109, 5.800863999989815, 6.009227299990016, 8.37619409999752, 8.576089700000011, 10.050994999997783, 10.284340899990639, 11.15955810000014, 11.384574900002917, 12.134582099999534, 12.326139700002386, 13.884591699999874, 14.094257599994307, 14.618147399989539]"	36	"[0.7831520000036107, 1.024817700003041, 1.2580359999992652, 1.4915038000035565, 1.683051500003785, 1.8664143000059994, 2.066396900001564, 2.2664102999988245, 2.44977989999461, 2.649905199999921, 2.8665397000004305, 3.0664496999961557, 3.283158200007165, 3.483148600003915, 3.724836299996241, 3.9333872999995947, 4.141556899994612, 4.37502969999332, 4.591719300005934, 4.816736499997205, 5.074923399995896, 5.341745600002469, 5.575132099998882, 5.791812700001174, 6.000176899993676, 8.367145199998049, 8.567032299994025, 10.041939799993997, 10.275284599993029, 11.150503500000923, 11.375511899997946, 12.125519799999893, 12.317079400003422, 13.875532799997018, 14.085366100000101, 14.609034299995983]"	"[0.9078838999994332, 1.1328487999999197, 1.3662027999962447, 1.5746676999988267, 1.766231700006756, 1.9745797000068706, 2.1579158999957144, 2.3663563000009162, 2.557928299997002, 2.7496034000068903, 2.9496183000010205, 3.1413021000043955, 3.341327200003434, 3.5913537000014912, 3.8080145999992965, 4.033049999998184, 4.249751900002593, 4.449727100000018, 4.6831498999963515, 4.933107999997446, 5.174880999999004, 5.449825400006375, 5.691479300003266, 5.874902099996689, 6.124884499993641, 8.483375299998443, 8.64173820000724, 10.150119700003415, 10.341804099996807, 11.266844099998707, 11.475210499993409, 12.216981699995813, 12.375278499996057, 13.983700400000089, 14.150386299996171, 14.609038800001144]"	401.4677534999937	401.4730156000005	402.96497539999837	402.97309590000077								27	01	2024-02-19_11h01.11.194	BART_exp	2023.2.3	119.93815986767687	2024-02-19 11h01.32.129293 +0100	
balloon.png	66	0	10	10	15	402.97309590000077													402.9651520999905	402.97309590000077	402.97309590000077	402.97309590000077	402.97309590000077	402.97309590000077	0.005427399999462068	0.005427399999462068	0.005427399999462068	402.97309590000077	409.4769185999903	19	0.95	False	"[-0.03425925925925926, -0.03425925925925926, -0.03425925925925926, -0.03425925925925926, -0.03425925925925926, -0.03425925925925926, -0.03425925925925926, -0.03425925925925926, -0.03425925925925926, -0.03425925925925926, -0.03425925925925926, -0.03425925925925926, -0.03425925925925926, -0.03425925925925926, -0.03425925925925926, -0.03425925925925926, -0.03425925925925926, -0.03425925925925926, -0.03425925925925926, -0.03425925925925926]"	"[-0.39166666666666666, -0.39166666666666666, -0.39166666666666666, -0.39166666666666666, -0.39166666666666666, -0.39166666666666666, -0.39166666666666666, -0.39166666666666666, -0.39166666666666666, -0.39166666666666666, -0.39166666666666666, -0.39166666666666666, -0.39166666666666666, -0.39166666666666666, -0.39166666666666666, -0.39166666666666666, -0.39166666666666666, -0.39166666666666666, -0.39166666666666666, -0.39166666666666666]"	"[1, 1, 1, 1, 1, 1, 1, 1, 1, 1, 1, 1, 1, 1, 1, 1, 1, 1, 1, 0]"	"[0, 0, 0, 0, 0, 0, 0, 0, 0, 0, 0, 0, 0, 0, 0, 0, 0, 0, 0, 0]"	"[0, 0, 0, 0, 0, 0, 0, 0, 0, 0, 0, 0, 0, 0, 0, 0, 0, 0, 0, 1]"	"[1.1503372000006493, 1.3670336999930441, 1.5753687999967951, 1.7421719999983907, 2.0672310999943875, 2.275780899988604, 2.5005789999995613, 2.7089349000016227, 2.9421710999886272, 3.1338090999925043, 3.3504933999938658, 3.533837900002254, 3.7338455999997677, 3.9090377999964403, 4.100708899990423, 4.317339000001084, 4.534035099990433, 4.725580300000729, 4.917386899993289, 6.510614200000418]"	20	"[1.1484750999952666, 1.3651599000004353, 1.5734943999996176, 1.740311899993685, 2.065356899998733, 2.273909099996672, 2.4987077999976464, 2.7070644999912474, 2.9403059000032954, 3.1319407999981195, 3.348625099999481, 3.531963599991286, 3.7319703999964986, 3.9071687999967253, 4.098835199998575, 4.315467699998408, 4.532166299992241, 4.723710699996445, 4.9155151000013575, 6.508813799999189]"	"[1.2733110999979544, 1.4568202999944333, 1.6233568000025116, 1.940061200002674, 2.1484016999893356, 2.365157399995951, 2.5817405999987386, 2.823553099995479, 3.0401402999996208, 3.231794399995124, 3.4151595000003, 3.606798799999524, 3.8068194999941625, 3.998504799994407, 4.190179299999727, 4.406870099992375, 4.6152588999975706, 4.7902708999899914, 4.998563899993314, 6.508820799994282]"	409.47778899999685	409.4902100999898	410.9820106999978									27	01	2024-02-19_11h01.11.194	BART_exp	2023.2.3	119.93815986767687	2024-02-19 11h01.32.129293 +0100	
balloon.png	92	0	11	11	21	410.99869839999883													410.9821816999902	410.99869839999883	410.99869839999883	410.99869839999883	410.99869839999883	410.99869839999883	0.0056136000057449564	0.0056136000057449564	0.0056136000057449564	410.99869839999883	422.4178463999997	23	1.15	False	"[-0.03425925925925926, -0.03425925925925926, -0.03425925925925926, -0.03425925925925926, -0.03425925925925926, -0.03425925925925926, -0.03425925925925926, -0.03425925925925926, -0.03425925925925926, -0.03425925925925926, -0.03425925925925926, -0.03425925925925926, -0.03425925925925926, -0.03425925925925926, -0.03425925925925926, -0.03425925925925926, -0.03425925925925926, -0.03425925925925926, -0.03425925925925926, -0.03425925925925926, -0.03425925925925926, -0.03425925925925926, -0.03425925925925926, -0.03425925925925926]"	"[-0.39166666666666666, -0.39166666666666666, -0.39166666666666666, -0.39166666666666666, -0.39166666666666666, -0.39166666666666666, -0.39166666666666666, -0.39166666666666666, -0.39166666666666666, -0.39166666666666666, -0.39166666666666666, -0.39166666666666666, -0.39166666666666666, -0.39166666666666666, -0.39166666666666666, -0.39166666666666666, -0.39166666666666666, -0.39166666666666666, -0.39166666666666666, -0.39166666666666666, -0.39166666666666666, -0.39166666666666666, -0.39166666666666666, -0.39166666666666666]"	"[1, 1, 1, 1, 1, 1, 1, 1, 1, 1, 1, 1, 1, 1, 1, 1, 1, 1, 1, 1, 1, 1, 1, 0]"	"[0, 0, 0, 0, 0, 0, 0, 0, 0, 0, 0, 0, 0, 0, 0, 0, 0, 0, 0, 0, 0, 0, 0, 0]"	"[0, 0, 0, 0, 0, 0, 0, 0, 0, 0, 0, 0, 0, 0, 0, 0, 0, 0, 0, 0, 0, 0, 0, 1]"	"[0.5422416999936104, 0.7505141000001458, 0.9838443000044208, 1.1672767999989446, 1.3755613999965135, 1.5588920000009239, 1.7589239999942947, 1.9339661999983946, 2.133959800004959, 2.3256533999956446, 2.51729350000096, 2.733981600002153, 2.958995799999684, 3.184120499994606, 3.4175224999926286, 3.675916699998197, 3.9676092000008794, 4.367454799998086, 4.567569099992397, 4.817617499997141, 7.951030500000343, 9.651315499999328, 9.892882999993162, 11.434767400001874]"	24	"[0.5380592000001343, 0.7463314000051469, 0.9796541000105208, 1.1630906000063987, 1.3713794000068447, 1.5547273000120185, 1.7547384000063175, 1.9297765000083018, 2.129770200001076, 2.3214700000098674, 2.5131064000015613, 2.7297981000010623, 2.9548125000001164, 3.179937000008067, 3.4133358000108274, 3.6717279000004055, 3.9634192000085022, 4.363273599999957, 4.563378600010765, 4.813425800006371, 7.946839500000351, 9.647131000005174, 9.88869780000823, 11.430521400005091]"	"[0.6545358000003034, 0.8628427000076044, 1.071197299999767, 1.262983400010853, 1.4628977000102168, 1.6546063999994658, 1.8462523000052897, 2.0212751000071876, 2.212985200007097, 2.412940100010019, 2.6213080000015907, 2.8296764000115218, 3.0463184000109322, 3.2379965000000084, 3.5297002000006614, 3.7713676000130363, 4.088056000007782, 4.421418199999607, 4.688101600011578, 4.921452800001134, 8.071688000010909, 9.771863600006327, 9.996816300001228, 11.430525600007968]"	422.41883309998957	422.42446039999777	423.9163666999957	423.9245149999915								27	01	2024-02-19_11h01.11.194	BART_exp	2023.2.3	119.93815986767687	2024-02-19 11h01.32.129293 +0100	
balloon.png	127	0	12	12	29	423.9245149999915													423.91653839999344	423.9245149999915	423.9245149999915	423.9245149999915	423.9245149999915	423.9245149999915	0.00574189999315422	0.00574189999315422	0.00574189999315422	423.9245149999915	437.76880599999276	43	2.15	False	"[-0.03425925925925926, -0.03425925925925926, -0.03425925925925926, -0.03425925925925926, -0.03425925925925926, -0.03425925925925926, -0.03425925925925926, -0.03425925925925926, -0.03425925925925926, -0.03425925925925926, -0.03425925925925926, -0.03425925925925926, -0.03425925925925926, -0.03425925925925926, -0.03425925925925926, -0.03425925925925926, -0.03425925925925926, -0.03425925925925926, -0.03425925925925926, -0.03425925925925926, -0.03425925925925926, -0.03425925925925926, -0.03425925925925926, -0.03425925925925926, -0.03425925925925926, -0.03425925925925926, -0.03425925925925926, -0.03425925925925926, -0.03425925925925926, -0.03425925925925926, -0.03425925925925926, -0.03425925925925926, -0.03425925925925926, -0.03425925925925926, -0.03425925925925926, -0.03425925925925926, -0.03425925925925926, -0.03425925925925926, -0.03425925925925926, -0.03425925925925926, -0.03425925925925926, -0.03425925925925926, -0.03425925925925926, -0.03425925925925926]"	"[-0.39166666666666666, -0.39166666666666666, -0.39166666666666666, -0.39166666666666666, -0.39166666666666666, -0.39166666666666666, -0.39166666666666666, -0.39166666666666666, -0.39166666666666666, -0.39166666666666666, -0.39166666666666666, -0.39166666666666666, -0.39166666666666666, -0.39166666666666666, -0.39166666666666666, -0.39166666666666666, -0.39166666666666666, -0.39166666666666666, -0.39166666666666666, -0.39166666666666666, -0.39166666666666666, -0.39166666666666666, -0.39166666666666666, -0.39166666666666666, -0.39166666666666666, -0.39166666666666666, -0.39166666666666666, -0.39166666666666666, -0.39166666666666666, -0.39166666666666666, -0.39166666666666666, -0.39166666666666666, -0.39166666666666666, -0.39166666666666666, -0.39166666666666666, -0.39166666666666666, -0.39166666666666666, -0.39166666666666666, -0.39166666666666666, -0.39166666666666666, -0.39166666666666666, -0.39166666666666666, -0.39166666666666666, -0.39166666666666666]"	"[1, 1, 1, 1, 1, 1, 1, 1, 1, 1, 1, 1, 1, 1, 1, 1, 1, 1, 1, 1, 1, 1, 1, 1, 1, 1, 1, 1, 1, 1, 1, 1, 1, 1, 1, 1, 1, 1, 1, 1, 1, 1, 1, 0]"	"[0, 0, 0, 0, 0, 0, 0, 0, 0, 0, 0, 0, 0, 0, 0, 0, 0, 0, 0, 0, 0, 0, 0, 0, 0, 0, 0, 0, 0, 0, 0, 0, 0, 0, 0, 0, 0, 0, 0, 0, 0, 0, 0, 0]"	"[0, 0, 0, 0, 0, 0, 0, 0, 0, 0, 0, 0, 0, 0, 0, 0, 0, 0, 0, 0, 0, 0, 0, 0, 0, 0, 0, 0, 0, 0, 0, 0, 0, 0, 0, 0, 0, 0, 0, 0, 0, 0, 0, 1]"	"[0.9255246999964584, 1.158685799993691, 1.3670568999950774, 1.5753969999932451, 1.7587676999974065, 1.9504294999933336, 2.1504378999961773, 2.3421464999992168, 2.5089567999966675, 2.743493199988734, 2.9421666999987792, 3.1173206999956165, 3.325653499996406, 3.550525300001027, 3.758938599989051, 3.9588896999921417, 4.158888699996169, 4.342241599995759, 4.533986900001764, 4.742296999989776, 4.958955399997649, 5.192374699996435, 5.41748189998907, 5.634153199993307, 6.017485599993961, 6.242536599995219, 6.459253199995146, 6.675896899992949, 6.967428099989775, 7.209089700001641, 7.417457599993213, 7.900985999993281, 8.142617199991946, 9.051074299990432, 9.284412199995131, 9.509422699993593, 9.734365800002706, 10.00942839999334, 10.43444240000099, 10.80955969999195, 11.159372699999949, 13.184555400002864, 13.359510900001624, 13.851353799997014]"	44	"[0.9236784999957308, 1.156838199996855, 1.36520479999308, 1.5735418999975082, 1.7569149999908404, 1.948578900002758, 2.148585399991134, 2.3402937999926507, 2.507103800002369, 2.7418104999960633, 2.9403204999980517, 3.115468799995142, 3.32380589999957, 3.548678999999538, 3.7571011999971233, 3.9570352000009734, 4.157041400001617, 4.340390400000615, 4.5321337999921525, 4.740448299999116, 4.957104400004027, 5.190526799997315, 5.415638999998919, 5.632306300001801, 6.015631999995094, 6.240686299992376, 6.457398300000932, 6.674049299996113, 6.965587800004869, 7.207238799994229, 7.415603400004329, 7.899137000000337, 8.140768900004332, 9.04922169999918, 9.282561699990765, 9.507571099995403, 9.732520099991234, 10.007581700003357, 10.432590500000515, 10.807705600003828, 11.157517999992706, 13.182702899997821, 13.357654099992942, 13.84944330000144]"	"[1.0483520999987377, 1.2817285999917658, 1.4567621000023792, 1.6568916999967769, 1.8400993999966886, 2.0318215000006603, 2.2151516000012634, 2.3817785999999614, 2.61511579999933, 2.806811699992977, 3.0151670999912312, 3.2318458999943687, 3.4318428999977186, 3.6401842999912333, 3.8485702000034507, 4.031939299995429, 4.223595200004638, 4.423570099999779, 4.606967899992014, 4.806945399992401, 5.065296400003717, 5.290318700004718, 5.515354200004367, 5.731991699998616, 6.132080399998813, 6.348752299993066, 6.5404232000000775, 6.823780899998383, 7.090433499994106, 7.282096199996886, 7.5321217000018805, 7.998857600003248, 8.232172399992123, 9.190566599994781, 9.398909399998956, 9.598925899990718, 9.832282200004556, 10.123965099992347, 10.54068130000087, 10.890686600003392, 11.265720099996543, 13.282503099995665, 13.46587030000228, 13.849447699991288]"	437.7702396999957	437.7754519999871	439.2674377999938	439.2755935999885								27	01	2024-02-19_11h01.11.194	BART_exp	2023.2.3	119.93815986767687	2024-02-19 11h01.32.129293 +0100	
balloon.png	40	0	13	13	9	439.2755935999885													439.26762179999787	439.2755935999885	439.2755935999885	439.2755935999885	439.2755935999885	439.2755935999885	0.005415799998445436	0.005415799998445436	0.005415799998445436	439.2755935999885	444.83584839999094	20	1.00	False	"[-0.03425925925925926, -0.03425925925925926, -0.03425925925925926, -0.03425925925925926, -0.03425925925925926, -0.03425925925925926, -0.03425925925925926, -0.03425925925925926, -0.03425925925925926, -0.03425925925925926, -0.03425925925925926, -0.03425925925925926, -0.03425925925925926, -0.03425925925925926, -0.03425925925925926, -0.03425925925925926, -0.03425925925925926, -0.03425925925925926, -0.03425925925925926, -0.03425925925925926, -0.03333333333333333]"	"[-0.39166666666666666, -0.39166666666666666, -0.39166666666666666, -0.39166666666666666, -0.39166666666666666, -0.39166666666666666, -0.39166666666666666, -0.39166666666666666, -0.39166666666666666, -0.39166666666666666, -0.39166666666666666, -0.39166666666666666, -0.39166666666666666, -0.39166666666666666, -0.39166666666666666, -0.39166666666666666, -0.39166666666666666, -0.39166666666666666, -0.39166666666666666, -0.39166666666666666, -0.39166666666666666]"	"[1, 1, 1, 1, 1, 1, 1, 1, 1, 1, 1, 1, 1, 1, 1, 1, 1, 1, 1, 1, 0]"	"[0, 0, 0, 0, 0, 0, 0, 0, 0, 0, 0, 0, 0, 0, 0, 0, 0, 0, 0, 0, 0]"	"[0, 0, 0, 0, 0, 0, 0, 0, 0, 0, 0, 0, 0, 0, 0, 0, 0, 0, 0, 0, 1]"	"[1.1254853999998886, 1.3670148000092013, 1.600342500008992, 1.775427500004298, 1.9837825000140583, 2.1922979000082705, 2.392068700006348, 2.6004092000075616, 2.8171198000054574, 3.0254433000081917, 3.242370000007213, 3.4840443000139203, 3.7006634999997914, 3.917337700011558, 4.109022500007995, 4.325702500005718, 4.534042500003125, 4.72575740001048, 4.950577900002827, 5.183909800005495, 5.5672926000115694]"	21	"[1.1236121999972966, 1.365136699998402, 1.5984676000080071, 1.7735535000101663, 1.981915399999707, 2.190423499996541, 2.390190400008578, 2.5985355000011623, 2.8152457999967737, 3.0235643000050914, 3.240495300007751, 3.48216530001082, 3.698785400003544, 3.9154679000057513, 4.1071521999983815, 4.3238234000018565, 4.532168899997487, 4.723882700011018, 4.948701800007257, 5.182033300006879, 5.565351199998986]"	"[1.2400393999996595, 1.4399556999997003, 1.6483458000002429, 1.8900854000094114, 2.114988600005745, 2.315042200003518, 2.4983827999967616, 2.715068400008022, 2.9234264999977313, 3.1400854000094114, 3.381941800005734, 3.598499300002004, 3.8067975000012666, 4.023471400010749, 4.223502799999551, 4.423511900007725, 4.623573300006683, 4.832101100008003, 5.02356270000746, 5.306991899997229, 5.5653555000026245]"	444.8367932999972	444.8426024999935	446.3345524999895	446.3593707999971								27	01	2024-02-19_11h01.11.194	BART_exp	2023.2.3	119.93815986767687	2024-02-19 11h01.32.129293 +0100	
balloon.png	44	0	14	14	10	446.3593707999971													446.3347274999978	446.3593707999971	446.3593707999971	446.3593707999971	446.3593707999971	446.3593707999971	-0.0008115999953588471	-0.0008115999953588471	-0.0008115999953588471	446.3593707999971	453.8615232999873	32	1.60	False	"[-0.03333333333333333, -0.03333333333333333, -0.03333333333333333, -0.03333333333333333, -0.03333333333333333, -0.03333333333333333, -0.03333333333333333, -0.03333333333333333, -0.03333333333333333, -0.03333333333333333, -0.03333333333333333, -0.03333333333333333, -0.03333333333333333, -0.03333333333333333, -0.03333333333333333, -0.03333333333333333, -0.03333333333333333, -0.03333333333333333, -0.03333333333333333, -0.03333333333333333, -0.03333333333333333, -0.03333333333333333, -0.03333333333333333, -0.03333333333333333, -0.03333333333333333, -0.03333333333333333, -0.03333333333333333, -0.03333333333333333, -0.03333333333333333, -0.03333333333333333, -0.03333333333333333, -0.03333333333333333, -0.03333333333333333]"	"[-0.39166666666666666, -0.39166666666666666, -0.39166666666666666, -0.39166666666666666, -0.39166666666666666, -0.39166666666666666, -0.39166666666666666, -0.39166666666666666, -0.39166666666666666, -0.39166666666666666, -0.39166666666666666, -0.39166666666666666, -0.39166666666666666, -0.39166666666666666, -0.39166666666666666, -0.39166666666666666, -0.39166666666666666, -0.39166666666666666, -0.39166666666666666, -0.39166666666666666, -0.39166666666666666, -0.39166666666666666, -0.39166666666666666, -0.39166666666666666, -0.39166666666666666, -0.39166666666666666, -0.39166666666666666, -0.39166666666666666, -0.39166666666666666, -0.39166666666666666, -0.39166666666666666, -0.39166666666666666, -0.39166666666666666]"	"[1, 1, 1, 1, 1, 1, 1, 1, 1, 1, 1, 1, 1, 1, 1, 1, 1, 1, 1, 1, 1, 1, 1, 1, 1, 1, 1, 1, 1, 1, 1, 1, 0]"	"[0, 0, 0, 0, 0, 0, 0, 0, 0, 0, 0, 0, 0, 0, 0, 0, 0, 0, 0, 0, 0, 0, 0, 0, 0, 0, 0, 0, 0, 0, 0, 0, 0]"	"[0, 0, 0, 0, 0, 0, 0, 0, 0, 0, 0, 0, 0, 0, 0, 0, 0, 0, 0, 0, 0, 0, 0, 0, 0, 0, 0, 0, 0, 0, 0, 0, 1]"	"[0.5170155999949202, 0.7753168000053847, 0.983846100003575, 1.1838408000039635, 1.400543199997628, 1.5758258999994723, 1.7672151000006124, 1.9670594000053825, 2.18394360000093, 2.3839144999947166, 2.5839059999998426, 2.783923399998457, 2.9756200999981957, 3.2174060999968788, 3.4340127000032226, 3.6090450000046985, 3.817362600006163, 4.025770699998247, 4.234144800007925, 4.425712099997327, 4.650810499995714, 4.859093000006396, 5.083933600006276, 5.283984800000326, 5.500636800003122, 5.6923283000069205, 5.93400360000669, 6.142370600005961, 6.342399200002546, 6.534024900000077, 6.750734900007956, 7.017577400009031, 7.525858799999696]"	33	"[0.5058745999995153, 0.7641721999971196, 0.9727025000029244, 1.1726988000009442, 1.3894022000022233, 1.5646864000009373, 1.7560779000050388, 1.95591649999551, 2.1728080000029877, 2.372773099996266, 2.572765100005199, 2.7727822000015294, 2.964478299996699, 3.2062643999961438, 3.4228705999994418, 3.5979080999968573, 3.8062221000000136, 4.014637500004028, 4.223003799997969, 4.414571200002683, 4.639672099991003, 4.8479532999917865, 5.0727936000039335, 5.2728458999918075, 5.489496599999256, 5.68118400000094, 5.922862399995211, 6.131236799992621, 6.331261600003927, 6.522881500000949, 6.7395982000016375, 7.006435999996029, 7.514654300000984]"	"[0.6723611000052188, 0.8807037999940803, 1.0807129000022542, 1.2890666000021156, 1.4890739999973448, 1.6724183000042103, 1.8724720000027446, 2.0557651999988593, 2.2557934999931604, 2.4641769000008935, 2.6641854000044987, 2.855836000002455, 3.0808696000021882, 3.32252659999358, 3.522744899993995, 3.7058866000006674, 3.922565000000759, 4.130932999993092, 4.330930900003295, 4.522651199993561, 4.747633699997095, 4.9559793999942485, 5.1726787999941735, 5.37266660000023, 5.581118699992658, 5.789377399996738, 6.014382399996975, 6.222897600004217, 6.43108840000059, 6.631103399995482, 6.847838400004548, 7.131395999997039, 7.5146584000031]"	453.8626927000005	453.86820420000004	455.360168299987	455.3683505999943								27	01	2024-02-19_11h01.11.194	BART_exp	2023.2.3	119.93815986767687	2024-02-19 11h01.32.129293 +0100	
balloon.png	36	0	15	15	8	455.3683505999943													455.3603432999953	455.3683505999943	455.3683505999943	455.3683505999943	455.3683505999943	455.3683505999943	0.005722200003219768	0.005722200003219768	0.005722200003219768	455.3683505999943	463.9625304999936	37	1.80	True	"[-0.03333333333333333, -0.03333333333333333, -0.03333333333333333, -0.03333333333333333, -0.03333333333333333, -0.03333333333333333, -0.03333333333333333, -0.03333333333333333, -0.03333333333333333, -0.03333333333333333, -0.03333333333333333, -0.03333333333333333, -0.03333333333333333, -0.03333333333333333, -0.03333333333333333, -0.03333333333333333, -0.03333333333333333, -0.03333333333333333, -0.03333333333333333, -0.03333333333333333, -0.03333333333333333, -0.03333333333333333, -0.03333333333333333, -0.03333333333333333, -0.03333333333333333, -0.03333333333333333, -0.03333333333333333, -0.03333333333333333, -0.03333333333333333, -0.03333333333333333, -0.03333333333333333, -0.03333333333333333, -0.03333333333333333, -0.03333333333333333, -0.03333333333333333, -0.03333333333333333, -0.03333333333333333]"	"[-0.39166666666666666, -0.39166666666666666, -0.39166666666666666, -0.39166666666666666, -0.39166666666666666, -0.39166666666666666, -0.39166666666666666, -0.39166666666666666, -0.39166666666666666, -0.39166666666666666, -0.39166666666666666, -0.39166666666666666, -0.39166666666666666, -0.39166666666666666, -0.39166666666666666, -0.39166666666666666, -0.39166666666666666, -0.39166666666666666, -0.39166666666666666, -0.39166666666666666, -0.39166666666666666, -0.39166666666666666, -0.39166666666666666, -0.39166666666666666, -0.39166666666666666, -0.39166666666666666, -0.39166666666666666, -0.39166666666666666, -0.39166666666666666, -0.39166666666666666, -0.39166666666666666, -0.39166666666666666, -0.39166666666666666, -0.39166666666666666, -0.39166666666666666, -0.39166666666666666, -0.39166666666666666]"	"[1, 1, 1, 1, 1, 1, 1, 1, 1, 1, 1, 1, 1, 1, 1, 1, 1, 1, 1, 1, 1, 1, 1, 1, 1, 1, 1, 1, 1, 1, 1, 1, 1, 1, 1, 1, 1]"	"[0, 0, 0, 0, 0, 0, 0, 0, 0, 0, 0, 0, 0, 0, 0, 0, 0, 0, 0, 0, 0, 0, 0, 0, 0, 0, 0, 0, 0, 0, 0, 0, 0, 0, 0, 0, 0]"	"[0, 0, 0, 0, 0, 0, 0, 0, 0, 0, 0, 0, 0, 0, 0, 0, 0, 0, 0, 0, 0, 0, 0, 0, 0, 0, 0, 0, 0, 0, 0, 0, 0, 0, 0, 0, 0]"	"[0.433800800004974, 0.6254723000020022, 0.8171237000060501, 1.0422086000035051, 1.2670447999989847, 1.4753830999979982, 1.6670427000062773, 1.9004176000016741, 2.1170680999930482, 2.3339336999924853, 2.5591133999987505, 2.7839567000046372, 2.984033000000636, 3.200741399996332, 3.400640399995609, 3.6173696000041673, 3.8340293999935966, 4.042445200000657, 4.267222399997991, 4.458900800003903, 4.667239500005962, 4.89225649999571, 5.100695999994059, 5.300614699997823, 5.508962699997937, 5.7174488000018755, 5.925786199994036, 6.11748109999462, 6.350857900004485, 6.567563799995696, 6.767565600006492, 7.309097599994857, 7.517574299999978, 7.725953899993328, 7.967665300006047, 8.192709499999182, 8.492816400001175]"	37	"[0.4319623000046704, 0.6236234000098193, 0.8152767000137828, 1.0403617000119993, 1.265193500003079, 1.4735388000117382, 1.6651946000056341, 1.8985666000080528, 2.106980399999884, 2.33208450001257, 2.5572720000054687, 2.7821116000122856, 2.9821969000040554, 3.1988928000064334, 3.398788600010448, 3.6155275000055553, 3.8321846000035293, 4.040597100000014, 4.265370300010545, 4.4570511000056285, 4.6653906000137795, 4.890404100005981, 5.098850000009406, 5.298763700004201, 5.507111500002793, 5.7155982000113, 5.923937200001092, 6.1156353000114905, 6.349007700002403, 6.565724400003091, 6.765716400012025, 7.307247700009611, 7.515723900010926, 7.724104300010367, 7.9658253000088735, 8.190865300013684, 8.490971600011108]"	"[0.5316929000109667, 0.7234200000093551, 0.9233169000071939, 1.1650012000027345, 1.3735716000082903, 1.5733601000101771, 1.8068211000063457, 2.015107100000023, 2.2400906000111718, 2.48175920000358, 2.681837000011001, 2.9068301000079373, 3.090148200004478, 3.2984795000083977, 3.506825700009358, 3.7154017000138992, 3.9068551000091247, 4.140281300002243, 4.356927700006054, 4.565266400008113, 4.765270500007318, 4.981920300007914, 5.173614700004691, 5.390299700011383, 5.615354000008665, 5.8236643000127515, 6.015340000012657, 6.223726000011084, 6.440391200012527, 6.632071100000758, 6.8571268000087, 7.390452100007678, 7.598805200002971, 7.832127000001492, 8.065479800003232, 8.265504000009969, 8.590554900001734]"	463.96376249998866	463.9689217999985	465.4608780999988	465.4690166999935								27	01	2024-02-19_11h01.11.194	BART_exp	2023.2.3	119.93815986767687	2024-02-19 11h01.32.129293 +0100	
balloon.png	18	0	16	16	4	465.4690166999935													465.4610612999968	465.4690166999935	465.4690166999935	465.4690166999935	465.4690166999935	465.4690166999935	0.005314900001394562			465.4690166999935	470.0461862999946	19	0.90	True	"[-0.009259259259259259, -0.009259259259259259, -0.009259259259259259, -0.009259259259259259, -0.009259259259259259, -0.009259259259259259, -0.009259259259259259, -0.009259259259259259, -0.009259259259259259, -0.009259259259259259, -0.009259259259259259, -0.009259259259259259, -0.009259259259259259, -0.009259259259259259, -0.009259259259259259, -0.009259259259259259, -0.009259259259259259, -0.009259259259259259, -0.009259259259259259]"	"[-0.36203703703703705, -0.362962962962963, -0.362962962962963, -0.362962962962963, -0.362962962962963, -0.362962962962963, -0.362962962962963, -0.362962962962963, -0.362962962962963, -0.362962962962963, -0.362962962962963, -0.362962962962963, -0.3648148148148148, -0.3648148148148148, -0.3648148148148148, -0.3648148148148148, -0.3648148148148148, -0.3648148148148148, -0.3648148148148148]"	"[1, 1, 1, 1, 1, 1, 1, 1, 1, 1, 1, 1, 1, 1, 1, 1, 1, 1, 1]"	"[0, 0, 0, 0, 0, 0, 0, 0, 0, 0, 0, 0, 0, 0, 0, 0, 0, 0, 0]"	"[0, 0, 0, 0, 0, 0, 0, 0, 0, 0, 0, 0, 0, 0, 0, 0, 0, 0, 0]"	"[0.4587976000038907, 0.7004807000048459, 0.9169885000010254, 1.1171466000087094, 1.3253390000027139, 1.5420257000077982, 1.7503896999987774, 1.9753768000082346, 2.1920553000090877, 2.4005347000056645, 2.642502999995486, 2.8422721000097226, 3.0923551000014413, 3.308970700003556, 3.558820000005653, 3.792164900005446, 4.0006425000028685, 4.217329300008714, 4.434085300003062]"	19	"[0.45680020000145305, 0.6985148999956436, 0.9149943000084022, 1.1151512000069488, 1.3233466999954544, 1.5400254999985918, 1.74839079999947, 1.9733810000034282, 2.190055500002927, 2.3985392000031425, 2.640517899999395, 2.8402732999966247, 3.0903650999971433, 3.306977400003234, 3.5568491000012727, 3.790171700005885, 3.9986504999978933, 4.215333100000862, 4.4320846000046]"	"[0.5731981999997515, 0.7981664999970235, 1.0148448999971151, 1.2314996000059182, 1.4398588000040036, 1.648211399995489, 1.8565652999968734, 2.089904499996919, 2.31490379999741, 2.5232642000046326, 2.7482918000023346, 2.9566531000018585, 3.2233161000040127, 3.4233241000038106, 3.706687099998817, 3.9150567000033334, 4.123427200000151, 4.3401924000063445, 4.573396699997829]"	470.0470970999886	470.0526312000002	471.5445861999906	471.55275619999156								27	01	2024-02-19_11h01.11.194	BART_exp	2023.2.3	119.93815986767687	2024-02-19 11h01.32.129293 +0100	
balloon.png	5	0	17	17	1	471.55275619999156													471.54476469999645	471.55275619999156	471.55275619999156	471.55275619999156	471.55275619999156	471.55275619999156	0.005719500011764467			471.55275619999156	473.14662639999005	6	0.25	True	"[-0.013888888888888888, -0.013888888888888888, -0.013888888888888888, -0.013888888888888888, -0.013888888888888888, -0.013888888888888888]"	"[-0.38425925925925924, -0.38425925925925924, -0.38425925925925924, -0.38425925925925924, -0.38425925925925924, -0.38425925925925924]"	"[1, 1, 1, 1, 1, 1]"	"[0, 0, 0, 0, 0, 0]"	"[0, 0, 0, 0, 0, 0]"	"[0.46701589999429416, 0.6753529999987222, 0.8920475999912014, 1.1005155999882845, 1.3004134999937378, 1.4920780999964336]"	6	"[0.4650905000016792, 0.6734299999952782, 0.8901286000036635, 1.098592299997108, 1.2984915999986697, 1.4901513999939198]"	"[0.5982994999940274, 0.8149569999950472, 0.9900494000030449, 1.1733292999997502, 1.3816460999951232, 1.5900208999955794]"	473.147318599993	473.1528446999873	474.64483339998696	474.6696333								27	01	2024-02-19_11h01.11.194	BART_exp	2023.2.3	119.93815986767687	2024-02-19 11h01.32.129293 +0100	
balloon.png	88	0	18	18	20	474.6696333													474.64501089999976	474.6696333	474.6696333	474.6696333	474.6696333	474.6696333	-0.0009993999992730096	-0.0009993999992730096	-0.0009993999992730096	474.6696333	477.8463566999999	9	0.45	False	"[-0.013888888888888888, -0.013888888888888888, -0.013888888888888888, -0.013888888888888888, -0.013888888888888888, -0.013888888888888888, -0.013888888888888888, -0.013888888888888888, -0.013888888888888888, -0.013888888888888888]"	"[-0.38425925925925924, -0.38425925925925924, -0.38425925925925924, -0.38425925925925924, -0.38425925925925924, -0.38425925925925924, -0.38425925925925924, -0.38425925925925924, -0.38425925925925924, -0.38425925925925924]"	"[1, 1, 1, 1, 1, 1, 1, 1, 1, 0]"	"[0, 0, 0, 0, 0, 0, 0, 0, 0, 0]"	"[0, 0, 0, 0, 0, 0, 0, 0, 0, 1]"	"[0.37527039999258704, 0.6170727999997325, 0.8002656999888131, 1.0087507999996888, 1.2339314999990165, 1.4504722999990918, 1.675703799992334, 1.9253747999900952, 2.4003946999873733, 3.200426099996548]"	10	"[0.3643675999919651, 0.6061751999950502, 0.7810860000026878, 0.9978545000049053, 1.2230358999950113, 1.4395737000013469, 1.6648008000047412, 1.9144778000045335, 2.3895020999916596, 3.1894660999969346]"	"[0.48922449999372475, 0.697569800002384, 0.8892287000053329, 1.1142830000026152, 1.3142691999964882, 1.5392671000008704, 1.7559538999921642, 2.0309844000003068, 2.5060450000019046, 3.1894705000013346]"	477.8471169999975	477.853160499988	479.3451459999924	479.3699338000006								27	01	2024-02-19_11h01.11.194	BART_exp	2023.2.3	119.93815986767687	2024-02-19 11h01.32.129293 +0100	
balloon.png	114	0	19	19	26	479.3699338000006													479.34533259998716	479.3699338000006	479.3699338000006	479.3699338000006	479.3699338000006	479.3699338000006	-0.0004343000036897138	-0.0004343000036897138	-0.0004343000036897138	479.3699338000006	487.6388672999892	27	1.35	False	"[-0.024074074074074074, -0.024074074074074074, -0.024074074074074074, -0.024074074074074074, -0.024074074074074074, -0.024074074074074074, -0.024074074074074074, -0.024074074074074074, -0.024074074074074074, -0.024074074074074074, -0.024074074074074074, -0.024074074074074074, -0.024074074074074074, -0.024074074074074074, -0.024074074074074074, -0.024074074074074074, -0.024074074074074074, -0.024074074074074074, -0.024074074074074074, -0.024074074074074074, -0.024074074074074074, -0.024074074074074074, -0.024074074074074074, -0.024074074074074074, -0.024074074074074074, -0.024074074074074074, -0.024074074074074074, -0.024074074074074074]"	"[-0.3962962962962963, -0.3962962962962963, -0.3962962962962963, -0.3962962962962963, -0.3962962962962963, -0.3962962962962963, -0.3962962962962963, -0.3962962962962963, -0.3962962962962963, -0.3962962962962963, -0.3962962962962963, -0.3962962962962963, -0.3962962962962963, -0.3962962962962963, -0.3962962962962963, -0.3962962962962963, -0.3962962962962963, -0.3962962962962963, -0.3962962962962963, -0.3962962962962963, -0.3962962962962963, -0.3962962962962963, -0.3962962962962963, -0.3962962962962963, -0.3962962962962963, -0.3962962962962963, -0.3962962962962963, -0.3962962962962963]"	"[1, 1, 1, 1, 1, 1, 1, 1, 1, 1, 1, 1, 1, 1, 1, 1, 1, 1, 1, 1, 1, 1, 1, 1, 1, 1, 1, 0]"	"[0, 0, 0, 0, 0, 0, 0, 0, 0, 0, 0, 0, 0, 0, 0, 0, 0, 0, 0, 0, 0, 0, 0, 0, 0, 0, 0, 0]"	"[0, 0, 0, 0, 0, 0, 0, 0, 0, 0, 0, 0, 0, 0, 0, 0, 0, 0, 0, 0, 0, 0, 0, 0, 0, 0, 0, 1]"	"[0.6087817999941763, 0.8336267999984557, 1.0503047999955015, 1.2503828999906546, 1.4587923999933992, 1.6503343999938807, 1.8253640999901108, 2.0102313999959733, 2.217203599997447, 2.4253928999969503, 2.6338341999944532, 2.833760900000925, 3.0504310999967856, 3.833857799996622, 4.033872299987706, 4.258850599988364, 4.442233999987366, 4.683992999998736, 4.942389299991191, 5.209069899996393, 5.425661899993429, 5.633950999996159, 5.850632000001497, 6.084020399997826, 6.609188399990671, 6.96753149999131, 7.409228099990287, 8.292598499989253]"	28	"[0.5977029000059702, 0.8225495000078809, 1.0392239000066184, 1.2393085999938194, 1.4477169000019785, 1.6392542999965372, 1.814282399995136, 1.9993256000016117, 2.206123600000865, 2.4143197999947006, 2.6227575999946566, 2.8226794000074733, 3.039359400005196, 3.822775799999363, 4.022795800003223, 4.247772899994743, 4.4311540000053355, 4.672913000002154, 4.93130850000307, 5.197992200002773, 5.414581999997608, 5.622870100007276, 5.839553500001784, 6.072944200001075, 6.598119999995106, 6.956453299993882, 7.3981509000004735, 8.281459200006793]"	"[0.7640717000031145, 0.9390539000014542, 1.1307496999943396, 1.3308991999947466, 1.5391559999989113, 1.730840400006855, 1.9141210999951, 2.105797199998051, 2.2891798000055132, 2.489155400005984, 2.680851700002677, 2.930861200002255, 3.1475878000055673, 3.9309313999983715, 4.122685700000147, 4.305964800005313, 4.53101200000674, 4.764312600003905, 5.039329299994279, 5.281122700005653, 5.489400200007367, 5.714408800005913, 5.931116899999324, 6.164436699997168, 6.7228017000015825, 7.06450870000117, 7.497875900007784, 8.281463399995118]"	487.63997439999366	487.6455697999918	489.13745629999903	489.1456296999968								27	01	2024-02-19_11h01.11.194	BART_exp	2023.2.3	119.93815986767687	2024-02-19 11h01.32.129293 +0100	
balloon.png	84	0	20	20	19	489.1456296999968													489.13764079999237	489.1456296999968	489.1456296999968	489.1456296999968	489.1456296999968	489.1456296999968	0.0057161000004271045	0.0057161000004271045	0.0057161000004271045	489.1456296999968	497.5477210999961	29	1.45	False	"[-0.024074074074074074, -0.024074074074074074, -0.024074074074074074, -0.024074074074074074, -0.024074074074074074, -0.024074074074074074, -0.024074074074074074, -0.024074074074074074, -0.024074074074074074, -0.024074074074074074, -0.024074074074074074, -0.024074074074074074, -0.024074074074074074, -0.024074074074074074, -0.024074074074074074, -0.024074074074074074, -0.024074074074074074, -0.024074074074074074, -0.024074074074074074, -0.024074074074074074, -0.024074074074074074, -0.024074074074074074, -0.024074074074074074, -0.024074074074074074, -0.024074074074074074, -0.024074074074074074, -0.024074074074074074, -0.024074074074074074, -0.024074074074074074, -0.024074074074074074]"	"[-0.3962962962962963, -0.3962962962962963, -0.3962962962962963, -0.3962962962962963, -0.3962962962962963, -0.3962962962962963, -0.3962962962962963, -0.3962962962962963, -0.3962962962962963, -0.3962962962962963, -0.3962962962962963, -0.3962962962962963, -0.3962962962962963, -0.3962962962962963, -0.3962962962962963, -0.3962962962962963, -0.3962962962962963, -0.3962962962962963, -0.3962962962962963, -0.3962962962962963, -0.3962962962962963, -0.3962962962962963, -0.3962962962962963, -0.3962962962962963, -0.3962962962962963, -0.3962962962962963, -0.3962962962962963, -0.3962962962962963, -0.3962962962962963, -0.3962962962962963]"	"[1, 1, 1, 1, 1, 1, 1, 1, 1, 1, 1, 1, 1, 1, 1, 1, 1, 1, 1, 1, 1, 1, 1, 1, 1, 1, 1, 1, 1, 0]"	"[0, 0, 0, 0, 0, 0, 0, 0, 0, 0, 0, 0, 0, 0, 0, 0, 0, 0, 0, 0, 0, 0, 0, 0, 0, 0, 0, 0, 0, 0]"	"[0, 0, 0, 0, 0, 0, 0, 0, 0, 0, 0, 0, 0, 0, 0, 0, 0, 0, 0, 0, 0, 0, 0, 0, 0, 0, 0, 0, 0, 1]"	"[0.5171183000056772, 0.7504833999992115, 0.9671922999987146, 1.1672546000045259, 1.3755421999958344, 1.5839081000012811, 1.775585700001102, 2.0087955000053626, 2.22544100000232, 2.4254608000046574, 2.6255441999965115, 2.825483799999347, 3.017150900006527, 3.2255089999962365, 3.4255630999978166, 3.6505340000003343, 3.867209999996703, 4.092554400005611, 4.817417800004478, 5.017425500001991, 5.217304699996021, 5.409144100005506, 6.325912300002528, 6.542538499998045, 6.742597799995565, 6.934250200007227, 7.517772200008039, 7.73428899999999, 7.942640900000697, 8.409174200001871]"	30	"[0.515283200002159, 0.7486471000011079, 0.9653466000017943, 1.1654300999944098, 1.3737029999902006, 1.5820633999974234, 1.7737471000000369, 2.006950999988476, 2.223604200000409, 2.4236144999886164, 2.623712799992063, 2.823638199988636, 3.01531009998871, 3.223664099990856, 3.423724599997513, 3.648690699992585, 3.8653679999988526, 4.090723000001162, 4.815578599998844, 5.015582299995003, 5.215463599990471, 5.407305299988366, 6.3240732999984175, 6.540697499993257, 6.740754599988577, 6.932405100000324, 7.515927699991153, 7.732443399989279, 7.940802600001916, 8.407266800000798]"	"[0.6483155999885639, 0.8651081999996677, 1.0817887000011979, 1.2650187999970512, 1.465109199998551, 1.6483990999986418, 1.881763699988369, 2.0900893999933032, 2.298599399990053, 2.5318377999938093, 2.7234797999990406, 2.9165034999896307, 3.115164699993329, 3.32350349999615, 3.540237499997602, 3.731893099989975, 3.9485811999911675, 4.223571199996513, 4.915314099998795, 5.123624899992137, 5.273637799997232, 5.548677400001907, 6.440377599996282, 6.623745599994436, 6.79876069999591, 7.040469999992638, 7.623794499988435, 7.815492900001118, 8.048825299993041, 8.407271199990646]"	497.5489196999988	497.55449339999177	499.0464796999877	499.06295690000115								27	01	2024-02-19_11h01.11.194	BART_exp	2023.2.3	119.93815986767687	2024-02-19 11h01.32.129293 +0100	
balloon.png	10	0	21	21	2	499.06295690000115													499.046654699996	499.06295690000115	499.06295690000115	499.06295690000115	499.06295690000115	499.06295690000115	-0.0009862000006251037	-0.0009862000006251037	-0.0009862000006251037	499.06295690000115	501.7650200999924	11	0.50	True	"[-0.024074074074074074, -0.024074074074074074, -0.024074074074074074, -0.024074074074074074, -0.024074074074074074, -0.024074074074074074, -0.024074074074074074, -0.024074074074074074, -0.024074074074074074, -0.024074074074074074, -0.024074074074074074]"	"[-0.3962962962962963, -0.3962962962962963, -0.3962962962962963, -0.3962962962962963, -0.3962962962962963, -0.3962962962962963, -0.3962962962962963, -0.3962962962962963, -0.3962962962962963, -0.3962962962962963, -0.3962962962962963]"	"[1, 1, 1, 1, 1, 1, 1, 1, 1, 1, 1]"	"[0, 0, 0, 0, 0, 0, 0, 0, 0, 0, 0]"	"[0, 0, 0, 0, 0, 0, 0, 0, 0, 0, 0]"	"[0.5586368999938713, 0.7503670000005513, 0.9754410000023199, 1.1754225000040606, 1.358656600001268, 1.5755282000027364, 1.792176599992672, 1.9838272000051802, 2.19221199999447, 2.3921969999937573, 2.592216799996095]"	11	"[0.5494208000018261, 0.741154599993024, 0.9662242000049446, 1.1662093000049936, 1.349436999997124, 1.5663156999944476, 1.7829587000014726, 1.974610200006282, 2.182996000003186, 2.3829755000042496, 2.5830044000031194]"	"[0.6659257999999681, 0.8575867000035942, 1.0576078000012785, 1.2742847000045003, 1.4909730999934254, 1.682690100002219, 1.8909952999965753, 2.099347299998044, 2.2993367000017315, 2.5160252999921795, 2.699452700006077]"	501.7658001999953	501.7714467999904	503.2634241999913	503.2798771999951								27	01	2024-02-19_11h01.11.194	BART_exp	2023.2.3	119.93815986767687	2024-02-19 11h01.32.129293 +0100	
balloon.png	71	0	22	22	16	503.2798771999951													503.26360019999265	503.2798771999951	503.2798771999951	503.2798771999951	503.2798771999951	503.2798771999951	-0.0009201000066241249	-0.0009201000066241249	-0.0009201000066241249	503.2798771999951	506.48201659999904	9	0.45	False	"[-0.024074074074074074, -0.024074074074074074, -0.024074074074074074, -0.024074074074074074, -0.024074074074074074, -0.024074074074074074, -0.024074074074074074, -0.024074074074074074, -0.024074074074074074, -0.024074074074074074]"	"[-0.3962962962962963, -0.3962962962962963, -0.3962962962962963, -0.3962962962962963, -0.3962962962962963, -0.3962962962962963, -0.3962962962962963, -0.3962962962962963, -0.3962962962962963, -0.3962962962962963]"	"[1, 1, 1, 1, 1, 1, 1, 1, 1, 0]"	"[0, 0, 0, 0, 0, 0, 0, 0, 0, 0]"	"[0, 0, 0, 0, 0, 0, 0, 0, 0, 1]"	"[0.40048290000413544, 0.6171705000015208, 0.8254776999965543, 1.0422637000010582, 1.2670100999966962, 1.4505088000005344, 1.6503751999989618, 1.8837280000007013, 2.10040840000147, 3.2174998999980744]"	10	"[0.3978554999921471, 0.614540800001123, 0.8228556999965804, 1.0396406999934698, 1.2643794000032358, 1.4478807999985293, 1.6477471999969566, 1.8810968000034336, 2.097778700001072, 3.214807299998938]"	"[0.5141895999986446, 0.7225680999981705, 0.930883699998958, 1.1476104000030318, 1.3309369000053266, 1.5392579000035767, 1.7475923000019975, 1.9643007999984547, 2.155957299997681, 3.2148116000025766]"	506.48289769999974	506.4884497999883	507.9804226999986	507.9885566999874								27	01	2024-02-19_11h01.11.194	BART_exp	2023.2.3	119.93815986767687	2024-02-19 11h01.32.129293 +0100	
balloon.png	14	0	23	23	3	507.9885566999874													507.9806039999967	507.9885566999874	507.9885566999874	507.9885566999874	507.9885566999874	507.9885566999874	0.005724399990867823	0.005724399990867823	0.005724399990867823	507.9885566999874	511.74898789999133	15	0.70	True	"[-0.024074074074074074, -0.024074074074074074, -0.024074074074074074, -0.024074074074074074, -0.024074074074074074, -0.024074074074074074, -0.024074074074074074, -0.024074074074074074, -0.024074074074074074, -0.024074074074074074, -0.024074074074074074, -0.024074074074074074, -0.024074074074074074, -0.024074074074074074, -0.024074074074074074]"	"[-0.3962962962962963, -0.3962962962962963, -0.3962962962962963, -0.3962962962962963, -0.3962962962962963, -0.3962962962962963, -0.3962962962962963, -0.3962962962962963, -0.3962962962962963, -0.3962962962962963, -0.3962962962962963, -0.3962962962962963, -0.3962962962962963, -0.3962962962962963, -0.3962962962962963]"	"[1, 1, 1, 1, 1, 1, 1, 1, 1, 1, 1, 1, 1, 1, 1]"	"[0, 0, 0, 0, 0, 0, 0, 0, 0, 0, 0, 0, 0, 0, 0]"	"[0, 0, 0, 0, 0, 0, 0, 0, 0, 0, 0, 0, 0, 0, 0]"	"[0.5838003000098979, 0.7753370000136783, 1.0003142000059597, 1.2086590000108117, 1.4086644000053639, 1.6253389000048628, 1.8003568000131054, 2.008715800009668, 2.200656800006982, 2.4088878000038676, 2.6922556000063196, 2.9254337000020314, 3.1421256000030553, 3.3421295000007376, 3.6089249000069685]"	15	"[0.5818906999920728, 0.7734293999965303, 0.9984122999885585, 1.2067437999940012, 1.4067503999976907, 1.615204999994603, 1.7984492999967188, 2.006805799988797, 2.198747699992964, 2.406980499989004, 2.6903450999961933, 2.9235241999995196, 3.140215799998259, 3.3402244000026258, 3.6070165999990422]"	"[0.6901281999889761, 0.9065937999985181, 1.106620099992142, 1.3149484000023222, 1.5066081999975722, 1.664969999997993, 1.8983114000002388, 2.0983083000028273, 2.273323999994318, 2.456678299990017, 2.7984424000023864, 3.0151025999948615, 3.223392799991416, 3.4484184999892022, 3.756748999992851]"	511.7497820999997	511.75550369999837	513.2474121999985	513.2638884999906								27	01	2024-02-19_11h01.11.194	BART_exp	2023.2.3	119.93815986767687	2024-02-19 11h01.32.129293 +0100	
balloon.png	123	0	24	24	28	513.2638884999906													513.2475866999885	513.2638884999906	513.2638884999906	513.2638884999906	513.2638884999906	513.2638884999906	-0.0008947000023908913	-0.0008947000023908913	-0.0008947000023908913	513.2638884999906	516.4158154999895	12	0.60	False	"[-0.024074074074074074, -0.024074074074074074, -0.024074074074074074, -0.024074074074074074, -0.024074074074074074, -0.024074074074074074, -0.024074074074074074, -0.024074074074074074, -0.024074074074074074, -0.024074074074074074, -0.024074074074074074, -0.024074074074074074, -0.024074074074074074]"	"[-0.3962962962962963, -0.3962962962962963, -0.3962962962962963, -0.3962962962962963, -0.3962962962962963, -0.3962962962962963, -0.3962962962962963, -0.3962962962962963, -0.3962962962962963, -0.3962962962962963, -0.3962962962962963, -0.3962962962962963, -0.3962962962962963]"	"[1, 1, 1, 1, 1, 1, 1, 1, 1, 1, 1, 1, 0]"	"[0, 0, 0, 0, 0, 0, 0, 0, 0, 0, 0, 0, 0]"	"[0, 0, 0, 0, 0, 0, 0, 0, 0, 0, 0, 0, 1]"	"[0.30030239999177866, 0.5178239999950165, 0.7170895000017481, 0.9003565000020899, 1.1253533999988576, 1.3338416999904439, 1.5337121999909868, 1.7505355999892345, 1.958875900003477, 2.1841021000000183, 2.4172449999896344, 2.583980399998836, 3.1673016999993706]"	13	"[0.29176700000243727, 0.5093104999978095, 0.7085575000091922, 0.8918237000034424, 1.1168212000047788, 1.3253109000070253, 1.5251764999993611, 1.7420023000013316, 1.9503381000104127, 2.1755768000002718, 2.4087111999979243, 2.575454899997567, 3.1587020000006305]"	"[0.3749528000043938, 0.5752337000012631, 0.7833141000010073, 0.9999850000021979, 1.2083596000011312, 1.4167164999962552, 1.6250415999966208, 1.8250505000032717, 2.066726799996104, 2.2834284999989904, 2.5084094000048935, 2.7167984999978216, 3.158706100002746]"	516.4166033999936	516.4224391999887	517.9144596999977	517.9392101999983								27	01	2024-02-19_11h01.11.194	BART_exp	2023.2.3	119.93815986767687	2024-02-19 11h01.32.129293 +0100	
balloon.png	75	0	25	25	17	517.9392101999983													517.9146478999901	517.9392101999983	517.9392101999983	517.9392101999983	517.9392101999983	517.9392101999983	-0.0007212999917101115	-0.0007212999917101115	-0.0007212999917101115	517.9392101999983	522.7912620999996	16	0.80	False	"[-0.024074074074074074, -0.024074074074074074, -0.024074074074074074, -0.024074074074074074, -0.024074074074074074, -0.024074074074074074, -0.024074074074074074, -0.024074074074074074, -0.024074074074074074, -0.024074074074074074, -0.024074074074074074, -0.024074074074074074, -0.024074074074074074, -0.024074074074074074, -0.024074074074074074, -0.024074074074074074, -0.024074074074074074]"	"[-0.3962962962962963, -0.3962962962962963, -0.3962962962962963, -0.3962962962962963, -0.3962962962962963, -0.3962962962962963, -0.3962962962962963, -0.3962962962962963, -0.3962962962962963, -0.3962962962962963, -0.3962962962962963, -0.3962962962962963, -0.3962962962962963, -0.3962962962962963, -0.3962962962962963, -0.3962962962962963, -0.3962962962962963]"	"[1, 1, 1, 1, 1, 1, 1, 1, 1, 1, 1, 1, 1, 1, 1, 1, 0]"	"[0, 0, 0, 0, 0, 0, 0, 0, 0, 0, 0, 0, 0, 0, 0, 0, 0]"	"[0, 0, 0, 0, 0, 0, 0, 0, 0, 0, 0, 0, 0, 0, 0, 0, 1]"	"[0.33377029999974184, 0.5504180999996606, 0.7836152999952901, 0.9671097999962512, 1.208691199994064, 1.4170809000061126, 1.6336501000041608, 1.8589515000057872, 2.083824800007278, 2.317185399995651, 2.542230200007907, 2.8171016999986023, 3.1589105000020936, 3.492302300001029, 4.025525300006848, 4.40884200000437, 4.875689299995429]"	17	"[0.3222086999885505, 0.5388546999893151, 0.7720469999912893, 0.9555439999967348, 1.1971284999890486, 1.4055215999978827, 1.6220868999953382, 1.8473910999891814, 2.0722648999944795, 2.30562229998759, 2.5306642999930773, 2.8055346999899484, 3.147352999993018, 3.480737699996098, 4.013962099998025, 4.397277199997916, 4.864069099989138]"	"[0.46354099999007303, 0.646884499990847, 0.8304577999952016, 1.0803920999896945, 1.3052483999927063, 1.505262999999104, 1.7219389999954728, 1.946999699997832, 2.180313399992883, 2.422052799985977, 2.6386621999990894, 2.9137222999997903, 3.255364399999962, 3.597205899990513, 4.13043179998931, 4.513837599995895, 4.864073599994299]"	522.792246699988	522.7978746000008	524.289858499993	524.3063579999871								27	01	2024-02-19_11h01.11.194	BART_exp	2023.2.3	119.93815986767687	2024-02-19 11h01.32.129293 +0100	
balloon.png	53	0	26	26	12	524.3063579999871													524.2900399999926	524.3063579999871	524.3063579999871	524.3063579999871	524.3063579999871	524.3063579999871	-0.0009479000000283122	-0.0009479000000283122	-0.0009479000000283122	524.3063579999871	532.2001861999888	23	1.15	False	"[-0.024074074074074074, -0.024074074074074074, -0.024074074074074074, -0.024074074074074074, -0.024074074074074074, -0.024074074074074074, -0.024074074074074074, -0.024074074074074074, -0.024074074074074074, -0.024074074074074074, -0.024074074074074074, -0.024074074074074074, -0.024074074074074074, -0.024074074074074074, -0.024074074074074074, -0.024074074074074074, -0.024074074074074074, -0.024074074074074074, -0.024074074074074074, -0.024074074074074074, -0.024074074074074074, -0.024074074074074074, -0.024074074074074074, -0.024074074074074074]"	"[-0.3962962962962963, -0.3962962962962963, -0.3962962962962963, -0.3962962962962963, -0.3962962962962963, -0.3962962962962963, -0.3962962962962963, -0.3962962962962963, -0.3962962962962963, -0.3962962962962963, -0.3962962962962963, -0.3962962962962963, -0.3962962962962963, -0.3962962962962963, -0.3962962962962963, -0.3962962962962963, -0.3962962962962963, -0.3962962962962963, -0.3962962962962963, -0.3962962962962963, -0.3962962962962963, -0.3962962962962963, -0.3962962962962963, -0.3962962962962963]"	"[1, 1, 1, 1, 1, 1, 1, 1, 1, 1, 1, 1, 1, 1, 1, 1, 1, 1, 1, 1, 1, 1, 1, 0]"	"[0, 0, 0, 0, 0, 0, 0, 0, 0, 0, 0, 0, 0, 0, 0, 0, 0, 0, 0, 0, 0, 0, 0, 0]"	"[0, 0, 0, 0, 0, 0, 0, 0, 0, 0, 0, 0, 0, 0, 0, 0, 0, 0, 0, 0, 0, 0, 0, 1]"	"[0.3254136000032304, 0.5170912000030512, 0.725452700004098, 0.9254934000055073, 1.125472500003525, 1.342145000002347, 1.55052620000788, 1.7589363000006415, 1.9505170000047656, 2.150563200004399, 2.3589165000012144, 2.567243299999973, 2.758904200003599, 2.967254300005152, 3.183969799996703, 3.392134800000349, 3.6254845000075875, 3.8588415999984136, 4.109107600001153, 4.600545599998441, 5.008907700001146, 6.475819600003888, 6.660403800007771, 7.90922970000247]"	24	"[0.31951869999466, 0.5111944999953266, 0.7195543999987422, 0.9195986999984598, 1.1195731999905547, 1.3362438999902224, 1.5446252999972785, 1.7530383999983314, 1.944618099994841, 2.1446713999903295, 2.3530163999967044, 2.5613490999967325, 2.7530094999965513, 2.9613583000027575, 3.17806949999067, 3.386233199998969, 3.619583399995463, 3.8529487999912817, 4.103212100002565, 4.594644199998584, 5.003010599990375, 6.469925299999886, 6.6546633999969345, 7.903270900002099]"	"[0.4361064999975497, 0.6359495999931823, 0.8359580999967875, 1.0276903999911156, 1.2442755999945803, 1.4609730999945896, 1.677667299998575, 1.8693081999954302, 2.069358499997179, 2.261066799997934, 2.469383299991023, 2.661051100003533, 2.861060399998678, 3.086072599995532, 3.2777712999959476, 3.4944490999914706, 3.711093499994604, 3.9444654999970226, 4.24449719999393, 4.686177299998235, 5.094547899992904, 6.552947699994547, 6.752983500002301, 7.903275099990424]"	532.2011611999915	532.2068403000012	533.6987911999895	533.7153018999961								27	01	2024-02-19_11h01.11.194	BART_exp	2023.2.3	119.93815986767687	2024-02-19 11h01.32.129293 +0100	
balloon.png	27	0	27	27	6	533.7153018999961													533.6989714999945	533.7153018999961	533.7153018999961	533.7153018999961	533.7153018999961	533.7153018999961	-0.0009543999913148582	-0.0009543999913148582	-0.0009543999913148582	533.7153018999961	542.5929512000002	28	1.35	True	"[-0.024074074074074074, -0.024074074074074074, -0.024074074074074074, -0.024074074074074074, -0.024074074074074074, -0.024074074074074074, -0.024074074074074074, -0.024074074074074074, -0.024074074074074074, -0.024074074074074074, -0.024074074074074074, -0.024074074074074074, -0.024074074074074074, -0.024074074074074074, -0.024074074074074074, -0.024074074074074074, -0.024074074074074074, -0.024074074074074074, -0.024074074074074074, -0.024074074074074074, -0.024074074074074074, -0.024074074074074074, -0.024074074074074074, -0.024074074074074074, -0.024074074074074074, -0.024074074074074074, -0.024074074074074074, -0.024074074074074074]"	"[-0.3962962962962963, -0.3962962962962963, -0.3962962962962963, -0.3962962962962963, -0.3962962962962963, -0.3962962962962963, -0.3962962962962963, -0.3962962962962963, -0.3962962962962963, -0.3962962962962963, -0.3962962962962963, -0.3962962962962963, -0.3962962962962963, -0.3962962962962963, -0.3962962962962963, -0.3962962962962963, -0.3962962962962963, -0.3962962962962963, -0.3962962962962963, -0.3962962962962963, -0.3962962962962963, -0.3962962962962963, -0.3962962962962963, -0.3962962962962963, -0.3962962962962963, -0.3962962962962963, -0.3962962962962963, -0.3962962962962963]"	"[1, 1, 1, 1, 1, 1, 1, 1, 1, 1, 1, 1, 1, 1, 1, 1, 1, 1, 1, 1, 1, 1, 1, 1, 1, 1, 1, 1]"	"[0, 0, 0, 0, 0, 0, 0, 0, 0, 0, 0, 0, 0, 0, 0, 0, 0, 0, 0, 0, 0, 0, 0, 0, 0, 0, 0, 0]"	"[0, 0, 0, 0, 0, 0, 0, 0, 0, 0, 0, 0, 0, 0, 0, 0, 0, 0, 0, 0, 0, 0, 0, 0, 0, 0, 0, 0]"	"[0.35049810000055004, 0.5588303000113228, 0.7837372000067262, 0.967220400008955, 1.2003759000072023, 1.4004668999987189, 1.6422077000024728, 1.8672150000056718, 2.142286200003582, 2.358818300010171, 2.592209599999478, 2.8171236000052886, 3.042258200002834, 3.233829600008903, 3.442297100002179, 3.6505422000045655, 3.8423661999986507, 4.0590171000076225, 4.284071200003382, 4.484104600007413, 4.717567200001213, 5.10910960000183, 5.350794000012684, 5.809000300010666, 6.142524800001411, 6.634102200012421, 7.100919900010922, 8.79254700000456]"	28	"[0.34312550000322517, 0.5514574999979232, 0.776373100001365, 0.9598568999936106, 1.1930028000060702, 1.3931005000049481, 1.6348358999966877, 1.8598425999953179, 2.1349178999953438, 2.3514470999944024, 2.5848361999960616, 2.809752800007118, 3.034882899999502, 3.2264605999953346, 3.434926000001724, 3.6431676000065636, 3.835002899999381, 4.05164990000776, 4.276697499997681, 4.476736800002982, 4.7101987000060035, 5.10173819999909, 5.343420300006983, 5.801628900007927, 6.135152200004086, 6.626735099998768, 7.093549299999722, 8.785175400000298]"	"[0.451113200004329, 0.6594568000000436, 0.8511889999936102, 1.1011495999991894, 1.3094935999979498, 1.5012294000043767, 1.7345571000041673, 1.992888299995684, 2.2595657000056235, 2.5096190000040224, 2.7179475000011735, 2.9179899000009755, 3.1346313999965787, 3.3346422000031453, 3.5513616999960504, 3.751476499994169, 3.959694799996214, 4.176378200005274, 4.3847226000070805, 4.601441799997701, 4.80973819999781, 5.209776200004853, 5.451492699998198, 5.918135900006746, 6.251550999993924, 6.726537800001097, 7.209893999999622, 8.87667959999817]"	542.5940486999898	542.5992190999968	544.0913647999987	544.0993123999942								27	01	2024-02-19_11h01.11.194	BART_exp	2023.2.3	119.93815986767687	2024-02-19 11h01.32.129293 +0100	
balloon.png	31	0	28	28	7	544.0993123999942													544.0915662999905	544.0993123999942	544.0993123999942	544.0993123999942	544.0993123999942	544.0993123999942	0.005324700003257021			544.0993123999942	549.7262278999988	21	1.05	False	"[-0.024074074074074074, -0.024074074074074074, -0.024074074074074074, -0.024074074074074074, -0.024074074074074074, -0.024074074074074074, -0.024074074074074074, -0.024074074074074074, -0.024074074074074074, -0.024074074074074074, -0.024074074074074074, -0.024074074074074074, -0.024074074074074074, -0.024074074074074074, -0.024074074074074074, -0.024074074074074074, -0.024074074074074074, -0.024074074074074074, -0.024074074074074074, -0.024074074074074074, -0.024074074074074074, -0.024074074074074074]"	"[-0.3962962962962963, -0.3962962962962963, -0.3962962962962963, -0.3962962962962963, -0.3962962962962963, -0.3962962962962963, -0.3962962962962963, -0.3962962962962963, -0.3962962962962963, -0.3962962962962963, -0.3962962962962963, -0.3962962962962963, -0.3962962962962963, -0.3962962962962963, -0.3962962962962963, -0.3962962962962963, -0.3962962962962963, -0.3962962962962963, -0.3962962962962963, -0.3962962962962963, -0.3962962962962963, -0.3962962962962963]"	"[1, 1, 1, 1, 1, 1, 1, 1, 1, 1, 1, 1, 1, 1, 1, 1, 1, 1, 1, 1, 1, 0]"	"[0, 0, 0, 0, 0, 0, 0, 0, 0, 0, 0, 0, 0, 0, 0, 0, 0, 0, 0, 0, 0, 0]"	"[0, 0, 0, 0, 0, 0, 0, 0, 0, 0, 0, 0, 0, 0, 0, 0, 0, 0, 0, 0, 0, 1]"	"[0.3502167999977246, 0.5586232999921776, 0.775130199996056, 0.9917944000044372, 1.2001012999971863, 1.3917906999995466, 1.5919426000036765, 1.8084766999963904, 2.0252177999936976, 2.2335772999940673, 2.441862299994682, 2.6670101000054274, 2.900418899997021, 3.125402599995141, 3.3420910999993794, 3.5504165000020294, 3.8003476000012597, 4.0170126000011805, 4.242114799999399, 4.475492099998519, 4.95869820000371, 5.633725199993933]"	22	"[0.348333800007822, 0.5567347000032896, 0.7732467000023462, 0.9899068000086118, 1.1982151000120211, 1.3899089000042295, 1.5900601000030292, 1.8065892000013264, 2.023327100003371, 2.2316955999995116, 2.4399762000102783, 2.6651217000035103, 2.898529800004326, 3.1235174000030383, 3.340206200009561, 3.5485317000129726, 3.798466800013557, 4.01512600001297, 4.2402287000004435, 4.473617000010563, 4.9568142000061926, 5.631775700006983]"	"[0.4563468000123976, 0.6480225000123028, 0.864724600003683, 1.0730724000022747, 1.2897441000095569, 1.4730713000026299, 1.681501400002162, 1.9064498000079766, 2.131529300007969, 2.3481717000104254, 2.5564855000120588, 2.7731910000002244, 2.9982034000131534, 3.231616400007624, 3.4316269000119064, 3.66491120000137, 3.8815849000093294, 4.11494890000904, 4.323307000013301, 4.631632900011027, 5.040034000005107, 5.63177990000986]"	549.7273394999938	549.7330222999881	551.2250405999948	551.249796499993								27	01	2024-02-19_11h01.11.194	BART_exp	2023.2.3	119.93815986767687	2024-02-19 11h01.32.129293 +0100	
balloon.png	118	0	29	29	27	551.249796499993													551.2252119999903	551.249796499993	551.249796499993	551.249796499993	551.249796499993	551.249796499993	-0.0008908000017981976	-0.0008908000017981976	-0.0008908000017981976	551.249796499993	557.4185994	23	1.15	False	"[-0.024074074074074074, -0.024074074074074074, -0.024074074074074074, -0.024074074074074074, -0.024074074074074074, -0.024074074074074074, -0.024074074074074074, -0.024074074074074074, -0.024074074074074074, -0.024074074074074074, -0.024074074074074074, -0.024074074074074074, -0.024074074074074074, -0.024074074074074074, -0.024074074074074074, -0.024074074074074074, -0.024074074074074074, -0.024074074074074074, -0.024074074074074074, -0.024074074074074074, -0.024074074074074074, -0.024074074074074074, -0.024074074074074074, -0.024074074074074074]"	"[-0.3962962962962963, -0.3962962962962963, -0.3962962962962963, -0.3962962962962963, -0.3962962962962963, -0.3962962962962963, -0.3962962962962963, -0.3962962962962963, -0.3962962962962963, -0.3962962962962963, -0.3962962962962963, -0.3962962962962963, -0.3962962962962963, -0.3962962962962963, -0.3962962962962963, -0.3962962962962963, -0.3962962962962963, -0.3962962962962963, -0.3962962962962963, -0.3962962962962963, -0.3962962962962963, -0.3962962962962963, -0.3962962962962963, -0.3962962962962963]"	"[1, 1, 1, 1, 1, 1, 1, 1, 1, 1, 1, 1, 1, 1, 1, 1, 1, 1, 1, 1, 1, 1, 1, 0]"	"[0, 0, 0, 0, 0, 0, 0, 0, 0, 0, 0, 0, 0, 0, 0, 0, 0, 0, 0, 0, 0, 0, 0, 0]"	"[0, 0, 0, 0, 0, 0, 0, 0, 0, 0, 0, 0, 0, 0, 0, 0, 0, 0, 0, 0, 0, 0, 0, 1]"	"[0.3085776999942027, 0.5003819999983534, 0.7338419000006979, 0.9755156000028364, 1.1671781999903033, 1.4005188000010094, 1.6086896999913733, 1.8088379999971949, 2.0172130999999354, 2.2254489999904763, 2.450522200000705, 2.658757799988962, 2.8671057999890763, 3.0672614999930374, 3.2839309999981197, 3.483924999993178, 3.7004785999888554, 3.867176699990523, 4.083851599993068, 4.29220229999919, 4.883949399998528, 5.092240600002697, 5.742609499997343, 6.192467599990778]"	24	"[0.2893139999941923, 0.48933859998942353, 0.72279189999972, 0.9644661999918753, 1.1561273999977857, 1.3894673999893712, 1.597636499995133, 1.7977968999912264, 2.006166099992697, 2.2144132999965223, 2.4394721999997273, 2.64770519999729, 2.85605879999639, 3.056228799992823, 3.2728799999895273, 3.472879199995077, 3.689429399993969, 3.8561301000008825, 4.072801699992851, 4.281151299990597, 4.87289869999222, 5.081187699994189, 5.731565599999158, 6.1813521000003675]"	"[0.42238599999109283, 0.6058900999923935, 0.8057777999929385, 1.030769599994528, 1.2809302999958163, 1.4891325999924447, 1.714147699996829, 1.9058331999985967, 2.114196399998036, 2.3225559999991674, 2.5311103999993065, 2.7475354999915, 2.9475620000011986, 3.1559557000000495, 3.372654499995406, 3.55592839999008, 3.764270599989686, 3.955990499991458, 4.14764299998933, 4.380995499988785, 4.9810339999967255, 5.164403499991749, 5.856104999998934, 6.181356200002483]"	557.4195966999978	557.4252436999959	558.9171911999874	558.9253448999953								27	01	2024-02-19_11h01.11.194	BART_exp	2023.2.3	119.93815986767687	2024-02-19 11h01.32.129293 +0100	
																																														558.9172248999967	558.9253448999953	558.9253448999953	572.2600367999985	space	13.327980999994907	None	27	01	2024-02-19_11h01.11.194	BART_exp	2023.2.3	119.93815986767687	2024-02-19 11h01.32.129293 +0100	
