"diceImage"	"d_number"	"dice_loop.thisRepN"	"dice_loop.thisTrialN"	"dice_loop.thisN"	"dice_loop.thisIndex"	"thisRow.t"	"notes"	"Start.started"	"text_start.started"	"continue_start.started"	"mouse_start.started"	"Start.stopped"	"mouse_start.x"	"mouse_start.y"	"mouse_start.leftButton"	"mouse_start.midButton"	"mouse_start.rightButton"	"mouse_start.time"	"trial.started"	"box_dice.started"	"text_dice_header.started"	"text_gain.started"	"value_gain.started"	"text_bank.started"	"value_bank.started"	"img_dice_1.started"	"img_dice_2.started"	"img_dice_3.started"	"img_dice_4.started"	"img_dice_5.started"	"img_dice_6.started"	"img_dice_1_2.started"	"img_dice_3_4.started"	"img_dice_5_6.started"	"img_dice_1_2_3.started"	"img_dice_4_5_6.started"	"img_dice_1_2_3_4.started"	"img_dice_2_3_4_5.started"	"img_dice_3_4_5_6.started"	"text_value_header.started"	"text_value_1000.started"	"text_value_500.started"	"text_value_200.started"	"text_value_100.started"	"mouse_task.started"	"gain_sound.started"	"img_dice_throw_trials.started"	"gain_sound.stopped"	"img_dice_throw_trials.stopped"	"trial.stopped"	"mouse_task.x"	"mouse_task.y"	"mouse_task.leftButton"	"mouse_task.midButton"	"mouse_task.rightButton"	"mouse_task.time"	"choice"	"gain"	"loss_sound.started"	"End.started"	"text_end.started"	"key_end.started"	"End.stopped"	"key_end.keys"	"key_end.rt"	"key_end.duration"	"participant"	"session"	"date"	"expName"	"psychopyVersion"	"frameRate"	"expStart"	"...75"
NA	NA	NA	NA	NA	NA	NA	NA	0.0399256000091555	0.0511315000039758	0.0511315000039758	0.0402831999963382	17.8112567000062	"[0.7222222222222222]"	"[-0.39814814814814814]"	"[1]"	"[0]"	"[0]"	"[17.770375799998874]"	NA	NA	NA	NA	NA	NA	NA	NA	NA	NA	NA	NA	NA	NA	NA	NA	NA	NA	NA	NA	NA	NA	NA	NA	NA	NA	NA	NA	NA	NA	NA	NA	NA	NA	NA	NA	NA	NA	NA	NA	NA	NA	NA	NA	NA	NA	NA	NA	13	"02"	"2024-02-07_14h06.29.193"	"GDT_exp"	"2023.2.3"	119.928522614718	"2024-02-07 14h06.37.669065 +0100"	NA
"dice_3.png"	3	0	0	0	2	17.8941085999977	NA	NA	NA	NA	NA	NA	NA	NA	NA	NA	NA	NA	17.8161568000069	17.8941085999977	17.8941085999977	17.8941085999977	17.8941085999977	17.8941085999977	17.8941085999977	17.8941085999977	17.8941085999977	17.8941085999977	17.8941085999977	17.8941085999977	17.8941085999977	17.8941085999977	17.8941085999977	17.8941085999977	17.8941085999977	17.8941085999977	17.8941085999977	17.8941085999977	17.8941085999977	17.8941085999977	17.8941085999977	17.8941085999977	17.8941085999977	17.8941085999977	0.0225833000004059	3.0413344999979	20.9193163000018	4.55815409999923	22.4694457000005	22.4305816999986	"[-0.6796296296296296, -0.6796296296296296]"	"[-0.36203703703703705, -0.36203703703703705]"	"[1, 0]"	"[0, 0]"	"[0, 1]"	"[2.7705216000031214, 2.9873231000092346]"	4	100	NA	NA	NA	NA	NA	NA	NA	NA	13	"02"	"2024-02-07_14h06.29.193"	"GDT_exp"	"2023.2.3"	119.928522614718	"2024-02-07 14h06.37.669065 +0100"	NA
"dice_4.png"	4	0	1	1	3	22.4694457000005	NA	NA	NA	NA	NA	NA	NA	NA	NA	NA	NA	NA	22.431379600006	22.4694457000005	22.4694457000005	22.4694457000005	22.4694457000005	22.4694457000005	22.4694457000005	22.4694457000005	22.4694457000005	22.4694457000005	22.4694457000005	22.4694457000005	22.4694457000005	22.4694457000005	22.4694457000005	22.4694457000005	22.4694457000005	22.4694457000005	22.4694457000005	22.4694457000005	22.4694457000005	22.4694457000005	22.4694457000005	22.4694457000005	22.4694457000005	22.4694457000005	0.014662400004454	0.779900300010922	23.2861925000034	2.30504980000842	24.8446039999981	24.7972386000038	"[-0.2814814814814815, -0.2814814814814815]"	"[-0.3638888888888889, -0.3638888888888889]"	"[1, 0]"	"[0, 0]"	"[0, 1]"	"[0.34013250000134576, 0.7649798999918858]"	4	100	NA	NA	NA	NA	NA	NA	NA	NA	13	"02"	"2024-02-07_14h06.29.193"	"GDT_exp"	"2023.2.3"	119.928522614718	"2024-02-07 14h06.37.669065 +0100"	NA
"dice_2.png"	2	0	2	2	1	24.8446039999981	NA	NA	NA	NA	NA	NA	NA	NA	NA	NA	NA	NA	24.7978070999961	24.8446039999981	24.8446039999981	24.8446039999981	24.8446039999981	24.8446039999981	24.8446039999981	24.8446039999981	24.8446039999981	24.8446039999981	24.8446039999981	24.8446039999981	24.8446039999981	24.8446039999981	24.8446039999981	24.8446039999981	24.8446039999981	24.8446039999981	24.8446039999981	24.8446039999981	24.8446039999981	24.8446039999981	24.8446039999981	24.8446039999981	24.8446039999981	24.8446039999981	0.017810900011682	NA	25.4697785000026	NA	27.0114170000015	26.9723408999998	"[0.09907407407407408, 0.09907407407407408]"	"[-0.34629629629629627, -0.34629629629629627]"	"[1, 0]"	"[0, 0]"	"[0, 1]"	"[0.21260299999266863, 0.5789497999940068]"	4	-100	0.596986300006392	NA	NA	NA	NA	NA	NA	NA	13	"02"	"2024-02-07_14h06.29.193"	"GDT_exp"	"2023.2.3"	119.928522614718	"2024-02-07 14h06.37.669065 +0100"	NA
"dice_1.png"	1	0	3	3	0	27.0114170000015	NA	NA	NA	NA	NA	NA	NA	NA	NA	NA	NA	NA	26.972858299996	27.0114170000015	27.0114170000015	27.0114170000015	27.0114170000015	27.0114170000015	27.0114170000015	27.0114170000015	27.0114170000015	27.0114170000015	27.0114170000015	27.0114170000015	27.0114170000015	27.0114170000015	27.0114170000015	27.0114170000015	27.0114170000015	27.0114170000015	27.0114170000015	27.0114170000015	27.0114170000015	27.0114170000015	27.0114170000015	27.0114170000015	27.0114170000015	27.0114170000015	0.0145294999965699	0.347083599990583	27.3865756000014	1.8638532999903	28.9448655000015	28.8976745999971	"[-0.47962962962962963, -0.47962962962962963]"	"[-0.2574074074074074, -0.2574074074074074]"	"[1, 0]"	"[0, 0]"	"[0, 1]"	"[0.024328500003321096, 0.33237499999813735]"	3	200	NA	NA	NA	NA	NA	NA	NA	NA	13	"02"	"2024-02-07_14h06.29.193"	"GDT_exp"	"2023.2.3"	119.928522614718	"2024-02-07 14h06.37.669065 +0100"	NA
"dice_6.png"	6	0	4	4	5	28.9448655000015	NA	NA	NA	NA	NA	NA	NA	NA	NA	NA	NA	NA	28.8982356000051	28.9448655000015	28.9448655000015	28.9448655000015	28.9448655000015	28.9448655000015	28.9448655000015	28.9448655000015	28.9448655000015	28.9448655000015	28.9448655000015	28.9448655000015	28.9448655000015	28.9448655000015	28.9448655000015	28.9448655000015	28.9448655000015	28.9448655000015	28.9448655000015	28.9448655000015	28.9448655000015	28.9448655000015	28.9448655000015	28.9448655000015	28.9448655000015	28.9448655000015	0.0182258999993792	0.630137799991644	29.6034004999965	2.13029780000215	31.1785430000018	31.13150090001	"[-0.09074074074074075, -0.09074074074074075]"	"[-0.25462962962962965, -0.25462962962962965]"	"[1, 0]"	"[0, 0]"	"[0, 1]"	"[0.2616386000008788, 0.6116362000029767]"	3	200	NA	NA	NA	NA	NA	NA	NA	NA	13	"02"	"2024-02-07_14h06.29.193"	"GDT_exp"	"2023.2.3"	119.928522614718	"2024-02-07 14h06.37.669065 +0100"	NA
"dice_5.png"	5	0	5	5	4	31.1785430000018	NA	NA	NA	NA	NA	NA	NA	NA	NA	NA	NA	NA	31.1320860999986	31.1785430000018	31.1785430000018	31.1785430000018	31.1785430000018	31.1785430000018	31.1785430000018	31.1785430000018	31.1785430000018	31.1785430000018	31.1785430000018	31.1785430000018	31.1785430000018	31.1785430000018	31.1785430000018	31.1785430000018	31.1785430000018	31.1785430000018	31.1785430000018	31.1785430000018	31.1785430000018	31.1785430000018	31.1785430000018	31.1785430000018	31.1785430000018	31.1785430000018	0.0181511999981012	NA	32.1202120000089	NA	33.6618592000013	33.6229234000057	"[-0.25462962962962965, -0.25462962962962965]"	"[-0.1537037037037037, -0.1537037037037037]"	"[1, 0]"	"[0, 0]"	"[0, 1]"	"[0.6782759000052465, 0.8947486999968532]"	2	-500	0.913150199994561	NA	NA	NA	NA	NA	NA	NA	13	"02"	"2024-02-07_14h06.29.193"	"GDT_exp"	"2023.2.3"	119.928522614718	"2024-02-07 14h06.37.669065 +0100"	NA
"dice_4.png"	4	1	0	6	3	33.6618592000013	NA	NA	NA	NA	NA	NA	NA	NA	NA	NA	NA	NA	33.6234963000024	33.6618592000013	33.6618592000013	33.6618592000013	33.6618592000013	33.6618592000013	33.6618592000013	33.6618592000013	33.6618592000013	33.6618592000013	33.6618592000013	33.6618592000013	33.6618592000013	33.6618592000013	33.6618592000013	33.6618592000013	33.6618592000013	33.6618592000013	33.6618592000013	33.6618592000013	33.6618592000013	33.6618592000013	33.6618592000013	33.6618592000013	33.6618592000013	33.6618592000013	0.014971799988416	0.830258499991032	34.5285824000021	2.3303775999957	36.1037047999998	36.0646551999962	"[-0.3435185185185185, -0.3435185185185185]"	"[-0.337037037037037, -0.337037037037037]"	"[1, 0]"	"[0, 0]"	"[0, 1]"	"[0.5316911999980221, 0.8151904999976978]"	4	100	NA	NA	NA	NA	NA	NA	NA	NA	13	"02"	"2024-02-07_14h06.29.193"	"GDT_exp"	"2023.2.3"	119.928522614718	"2024-02-07 14h06.37.669065 +0100"	NA
"dice_2.png"	2	1	1	7	1	36.1037047999998	NA	NA	NA	NA	NA	NA	NA	NA	NA	NA	NA	NA	36.0652112000098	36.1037047999998	36.1037047999998	36.1037047999998	36.1037047999998	36.1037047999998	36.1037047999998	36.1037047999998	36.1037047999998	36.1037047999998	36.1037047999998	36.1037047999998	36.1037047999998	36.1037047999998	36.1037047999998	36.1037047999998	36.1037047999998	36.1037047999998	36.1037047999998	36.1037047999998	36.1037047999998	36.1037047999998	36.1037047999998	36.1037047999998	36.1037047999998	36.1037047999998	0.0146767999976873	0.555375299998559	36.6954115999979	2.05546699999832	38.2621665000042	38.2230872000073	"[-0.4444444444444444, -0.4444444444444444]"	"[-0.25925925925925924, -0.25925925925925924]"	"[1, 0]"	"[0, 0]"	"[0, 1]"	"[0.25711380000575446, 0.5406189000059385]"	3	200	NA	NA	NA	NA	NA	NA	NA	NA	13	"02"	"2024-02-07_14h06.29.193"	"GDT_exp"	"2023.2.3"	119.928522614718	"2024-02-07 14h06.37.669065 +0100"	NA
"dice_6.png"	6	1	2	8	5	38.2621665000042	NA	NA	NA	NA	NA	NA	NA	NA	NA	NA	NA	NA	38.2236162000045	38.2621665000042	38.2621665000042	38.2621665000042	38.2621665000042	38.2621665000042	38.2621665000042	38.2621665000042	38.2621665000042	38.2621665000042	38.2621665000042	38.2621665000042	38.2621665000042	38.2621665000042	38.2621665000042	38.2621665000042	38.2621665000042	38.2621665000042	38.2621665000042	38.2621665000042	38.2621665000042	38.2621665000042	38.2621665000042	38.2621665000042	38.2621665000042	38.2621665000042	0.0147670000005746	NA	40.8373499000008	NA	42.3874701000022	42.3398783000011	"[-0.24814814814814815, -0.24814814814814815]"	"[-0.15555555555555556, -0.15555555555555556]"	"[1, 0]"	"[0, 0]"	"[0, 1]"	"[2.348968499994953, 2.5240986999997403]"	2	-500	2.53893970001081	NA	NA	NA	NA	NA	NA	NA	13	"02"	"2024-02-07_14h06.29.193"	"GDT_exp"	"2023.2.3"	119.928522614718	"2024-02-07 14h06.37.669065 +0100"	NA
"dice_3.png"	3	1	3	9	2	42.3874701000022	NA	NA	NA	NA	NA	NA	NA	NA	NA	NA	NA	NA	42.3404237000068	42.3874701000022	42.3874701000022	42.3874701000022	42.3874701000022	42.3874701000022	42.3874701000022	42.3874701000022	42.3874701000022	42.3874701000022	42.3874701000022	42.3874701000022	42.3874701000022	42.3874701000022	42.3874701000022	42.3874701000022	42.3874701000022	42.3874701000022	42.3874701000022	42.3874701000022	42.3874701000022	42.3874701000022	42.3874701000022	42.3874701000022	42.3874701000022	42.3874701000022	0.0183928000042215	0.447212200000649	42.8540714999981	1.94741510000313	44.4377501999988	44.3902161000005	"[0.11018518518518519]"	"[-0.3574074074074074]"	"[0]"	"[0]"	"[1]"	"[0.42832130000169855]"	4	100	NA	NA	NA	NA	NA	NA	NA	NA	13	"02"	"2024-02-07_14h06.29.193"	"GDT_exp"	"2023.2.3"	119.928522614718	"2024-02-07 14h06.37.669065 +0100"	NA
"dice_1.png"	1	1	4	10	0	44.4377501999988	NA	NA	NA	NA	NA	NA	NA	NA	NA	NA	NA	NA	44.3907350000081	44.4377501999988	44.4377501999988	44.4377501999988	44.4377501999988	44.4377501999988	44.4377501999988	44.4377501999988	44.4377501999988	44.4377501999988	44.4377501999988	44.4377501999988	44.4377501999988	44.4377501999988	44.4377501999988	44.4377501999988	44.4377501999988	44.4377501999988	44.4377501999988	44.4377501999988	44.4377501999988	44.4377501999988	44.4377501999988	44.4377501999988	44.4377501999988	44.4377501999988	0.0177470999915386	NA	45.5126690000034	NA	47.0629157000076	47.0161190000072	"[-0.08611111111111111, -0.08611111111111111]"	"[-0.2388888888888889, -0.2388888888888889]"	"[1, 0]"	"[0, 0]"	"[0, 1]"	"[0.6209511000051862, 1.0291295000060927]"	3	-200	1.04709999999614	NA	NA	NA	NA	NA	NA	NA	13	"02"	"2024-02-07_14h06.29.193"	"GDT_exp"	"2023.2.3"	119.928522614718	"2024-02-07 14h06.37.669065 +0100"	NA
"dice_5.png"	5	1	5	11	4	47.0629157000076	NA	NA	NA	NA	NA	NA	NA	NA	NA	NA	NA	NA	47.0167953000055	47.0629157000076	47.0629157000076	47.0629157000076	47.0629157000076	47.0629157000076	47.0629157000076	47.0629157000076	47.0629157000076	47.0629157000076	47.0629157000076	47.0629157000076	47.0629157000076	47.0629157000076	47.0629157000076	47.0629157000076	47.0629157000076	47.0629157000076	47.0629157000076	47.0629157000076	47.0629157000076	47.0629157000076	47.0629157000076	47.0629157000076	47.0629157000076	47.0629157000076	0.0177067000040552	NA	47.6461680000066	NA	49.2214190000086	49.1738774999976	"[-0.6129629629629629, -0.6129629629629629, -0.20277777777777778]"	"[-0.3611111111111111, -0.3611111111111111, -0.34629629629629627]"	"[1, 0, 1]"	"[0, 0, 0]"	"[0, 1, 0]"	"[0.12006060000567231, 0.5367561000020942, 1.4202814000018407]"	4	-100	0.554647400000249	NA	NA	NA	NA	NA	NA	NA	13	"02"	"2024-02-07_14h06.29.193"	"GDT_exp"	"2023.2.3"	119.928522614718	"2024-02-07 14h06.37.669065 +0100"	NA
"dice_5.png"	5	2	0	12	4	49.2214190000086	NA	NA	NA	NA	NA	NA	NA	NA	NA	NA	NA	NA	49.1744166999997	49.2214190000086	49.2214190000086	49.2214190000086	49.2214190000086	49.2214190000086	49.2214190000086	49.2214190000086	49.2214190000086	49.2214190000086	49.2214190000086	49.2214190000086	49.2214190000086	49.2214190000086	49.2214190000086	49.2214190000086	49.2214190000086	49.2214190000086	49.2214190000086	49.2214190000086	49.2214190000086	49.2214190000086	49.2214190000086	49.2214190000086	49.2214190000086	49.2214190000086	0.0177000999974553	0.513709299993934	49.7546677000064	2.04719669999031	51.3297407000064	51.2906201000005	"[-0.20277777777777778, -0.20277777777777778]"	"[-0.34629629629629627, -0.34629629629629627]"	"[1, 0]"	"[0, 0]"	"[0, 1]"	"[0.02957300000707619, 0.4957079000014346]"	4	100	NA	NA	NA	NA	NA	NA	NA	NA	13	"02"	"2024-02-07_14h06.29.193"	"GDT_exp"	"2023.2.3"	119.928522614718	"2024-02-07 14h06.37.669065 +0100"	NA
"dice_6.png"	6	2	1	13	5	51.3297407000064	NA	NA	NA	NA	NA	NA	NA	NA	NA	NA	NA	NA	51.2911940000049	51.3297407000064	51.3297407000064	51.3297407000064	51.3297407000064	51.3297407000064	51.3297407000064	51.3297407000064	51.3297407000064	51.3297407000064	51.3297407000064	51.3297407000064	51.3297407000064	51.3297407000064	51.3297407000064	51.3297407000064	51.3297407000064	51.3297407000064	51.3297407000064	51.3297407000064	51.3297407000064	51.3297407000064	51.3297407000064	51.3297407000064	51.3297407000064	51.3297407000064	0.0148467999970308	0.630450599986943	51.9965744000074	2.15565739999874	53.5466875999991	53.5072655999975	"[0.08981481481481482, 0.08981481481481482]"	"[-0.33796296296296297, -0.33796296296296297]"	"[1, 0]"	"[0, 0]"	"[0, 1]"	"[0.19867789999989327, 0.6153897999902256]"	4	100	NA	NA	NA	NA	NA	NA	NA	NA	13	"02"	"2024-02-07_14h06.29.193"	"GDT_exp"	"2023.2.3"	119.928522614718	"2024-02-07 14h06.37.669065 +0100"	NA
"dice_1.png"	1	2	2	14	0	53.5466875999991	NA	NA	NA	NA	NA	NA	NA	NA	NA	NA	NA	NA	53.5077905000071	53.5466875999991	53.5466875999991	53.5466875999991	53.5466875999991	53.5466875999991	53.5466875999991	53.5466875999991	53.5466875999991	53.5466875999991	53.5466875999991	53.5466875999991	53.5466875999991	53.5466875999991	53.5466875999991	53.5466875999991	53.5466875999991	53.5466875999991	53.5466875999991	53.5466875999991	53.5466875999991	53.5466875999991	53.5466875999991	53.5466875999991	53.5466875999991	53.5466875999991	0.0149161000008462	NA	54.2049490000063	NA	55.7717100000009	55.7325311000022	"[-0.2740740740740741, -0.2740740740740741]"	"[-0.34629629629629627, -0.34629629629629627]"	"[1, 0]"	"[0, 0]"	"[0, 1]"	"[0.14042120000522118, 0.6070567999995546]"	4	-100	0.622271600004751	NA	NA	NA	NA	NA	NA	NA	13	"02"	"2024-02-07_14h06.29.193"	"GDT_exp"	"2023.2.3"	119.928522614718	"2024-02-07 14h06.37.669065 +0100"	NA
"dice_3.png"	3	2	3	15	2	55.7717100000009	NA	NA	NA	NA	NA	NA	NA	NA	NA	NA	NA	NA	55.7331112000102	55.7717100000009	55.7717100000009	55.7717100000009	55.7717100000009	55.7717100000009	55.7717100000009	55.7717100000009	55.7717100000009	55.7717100000009	55.7717100000009	55.7717100000009	55.7717100000009	55.7717100000009	55.7717100000009	55.7717100000009	55.7717100000009	55.7717100000009	55.7717100000009	55.7717100000009	55.7717100000009	55.7717100000009	55.7717100000009	55.7717100000009	55.7717100000009	55.7717100000009	0.0144703000114532	0.863802700012457	56.671783400001	2.3889751000097	58.238680399998	58.1943347000051	"[-0.5740740740740741, -0.5731481481481482]"	"[-0.3398148148148148, -0.3398148148148148]"	"[1, 0]"	"[0, 0]"	"[0, 1]"	"[0.5324899999977788, 0.8490999999921769]"	4	100	NA	NA	NA	NA	NA	NA	NA	NA	13	"02"	"2024-02-07_14h06.29.193"	"GDT_exp"	"2023.2.3"	119.928522614718	"2024-02-07 14h06.37.669065 +0100"	NA
"dice_2.png"	2	2	4	16	1	58.238680399998	NA	NA	NA	NA	NA	NA	NA	NA	NA	NA	NA	NA	58.1949087999965	58.238680399998	58.238680399998	58.238680399998	58.238680399998	58.238680399998	58.238680399998	58.238680399998	58.238680399998	58.238680399998	58.238680399998	58.238680399998	58.238680399998	58.238680399998	58.238680399998	58.238680399998	58.238680399998	58.238680399998	58.238680399998	58.238680399998	58.238680399998	58.238680399998	58.238680399998	58.238680399998	58.238680399998	58.238680399998	0.0148387999943225	NA	59.5721308000066	NA	61.1220686000015	61.0833158000023	"[-0.10925925925925926, -0.10925925925925926, -0.4166666666666667]"	"[-0.23796296296296296, -0.23796296296296296, -0.2564814814814815]"	"[1, 0, 1]"	"[0, 0, 0]"	"[0, 1, 0]"	"[0.9037218000012217, 1.2953761999960989, 2.4291855999908876]"	3	-200	1.31052509999427	NA	NA	NA	NA	NA	NA	NA	13	"02"	"2024-02-07_14h06.29.193"	"GDT_exp"	"2023.2.3"	119.928522614718	"2024-02-07 14h06.37.669065 +0100"	NA
"dice_4.png"	4	2	5	17	3	61.1220686000015	NA	NA	NA	NA	NA	NA	NA	NA	NA	NA	NA	NA	61.0838975000079	61.1220686000015	61.1220686000015	61.1220686000015	61.1220686000015	61.1220686000015	61.1220686000015	61.1220686000015	61.1220686000015	61.1220686000015	61.1220686000015	61.1220686000015	61.1220686000015	61.1220686000015	61.1220686000015	61.1220686000015	61.1220686000015	61.1220686000015	61.1220686000015	61.1220686000015	61.1220686000015	61.1220686000015	61.1220686000015	61.1220686000015	61.1220686000015	61.1220686000015	0.0149107000033837	NA	62.2971561000013	NA	63.8472550000006	63.8332219000004	"[-0.4166666666666667, -0.4166666666666667]"	"[-0.2537037037037037, -0.2537037037037037]"	"[1, 0]"	"[0, 0]"	"[0, 1]"	"[0.598212600001716, 1.123140700001386]"	3	-200	1.1383971000032	NA	NA	NA	NA	NA	NA	NA	13	"02"	"2024-02-07_14h06.29.193"	"GDT_exp"	"2023.2.3"	119.928522614718	"2024-02-07 14h06.37.669065 +0100"	NA
NA	NA	NA	NA	NA	NA	NA	NA	NA	NA	NA	NA	NA	NA	NA	NA	NA	NA	NA	NA	NA	NA	NA	NA	NA	NA	NA	NA	NA	NA	NA	NA	NA	NA	NA	NA	NA	NA	NA	NA	NA	NA	NA	NA	NA	NA	NA	NA	NA	NA	NA	NA	NA	NA	NA	NA	NA	NA	NA	NA	63.8336983000045	63.8472550000006	63.8472550000006	74.9235441000055	"space"	11.0757806000038	"None"	13	"02"	"2024-02-07_14h06.29.193"	"GDT_exp"	"2023.2.3"	119.928522614718	"2024-02-07 14h06.37.669065 +0100"	NA
