"diceImage"	"d_number"	"dice_loop.thisRepN"	"dice_loop.thisTrialN"	"dice_loop.thisN"	"dice_loop.thisIndex"	"thisRow.t"	"notes"	"Start.started"	"text_start.started"	"continue_start.started"	"mouse_start.started"	"Start.stopped"	"mouse_start.x"	"mouse_start.y"	"mouse_start.leftButton"	"mouse_start.midButton"	"mouse_start.rightButton"	"mouse_start.time"	"trial.started"	"box_dice.started"	"text_dice_header.started"	"text_gain.started"	"value_gain.started"	"text_bank.started"	"value_bank.started"	"img_dice_1.started"	"img_dice_2.started"	"img_dice_3.started"	"img_dice_4.started"	"img_dice_5.started"	"img_dice_6.started"	"img_dice_1_2.started"	"img_dice_3_4.started"	"img_dice_5_6.started"	"img_dice_1_2_3.started"	"img_dice_4_5_6.started"	"img_dice_1_2_3_4.started"	"img_dice_2_3_4_5.started"	"img_dice_3_4_5_6.started"	"text_value_header.started"	"text_value_1000.started"	"text_value_500.started"	"text_value_200.started"	"text_value_100.started"	"mouse_task.started"	"gain_sound.started"	"img_dice_throw_trials.started"	"gain_sound.stopped"	"img_dice_throw_trials.stopped"	"trial.stopped"	"mouse_task.x"	"mouse_task.y"	"mouse_task.leftButton"	"mouse_task.midButton"	"mouse_task.rightButton"	"mouse_task.time"	"choice"	"gain"	"loss_sound.started"	"End.started"	"text_end.started"	"key_end.started"	"End.stopped"	"key_end.keys"	"key_end.rt"	"key_end.duration"	"participant"	"session"	"date"	"expName"	"psychopyVersion"	"frameRate"	"expStart"	"...75"
NA	NA	NA	NA	NA	NA	NA	NA	0.0426105999940773	0.0530030999943847	0.0530030999943847	0.0429434999969089	25.3303059999889	"[0.7444444444444445]"	"[-0.3861111111111111]"	"[1]"	"[0]"	"[0]"	"[25.286740700001246]"	NA	NA	NA	NA	NA	NA	NA	NA	NA	NA	NA	NA	NA	NA	NA	NA	NA	NA	NA	NA	NA	NA	NA	NA	NA	NA	NA	NA	NA	NA	NA	NA	NA	NA	NA	NA	NA	NA	NA	NA	NA	NA	NA	NA	NA	NA	NA	NA	12	"01"	"2024-02-07_11h46.19.782"	"GDT_exp"	"2023.2.3"	119.971398803256	"2024-02-07 11h46.31.593192 +0100"	NA
"dice_6.png"	6	0	0	0	5	25.4214183000004	NA	NA	NA	NA	NA	NA	NA	NA	NA	NA	NA	NA	25.3410939999885	25.4214183000004	25.4214183000004	25.4214183000004	25.4214183000004	25.4214183000004	25.4214183000004	25.4214183000004	25.4214183000004	25.4214183000004	25.4214183000004	25.4214183000004	25.4214183000004	25.4214183000004	25.4214183000004	25.4214183000004	25.4214183000004	25.4214183000004	25.4214183000004	25.4214183000004	25.4214183000004	25.4214183000004	25.4214183000004	25.4214183000004	25.4214183000004	25.4214183000004	0.0290326999966055	3.44132139999419	28.8383152000024	4.9497904000018	30.3884562000021	30.341151399989	"[-0.10462962962962963, -0.07222222222222222]"	"[-0.24166666666666667, 0.15925925925925927]"	"[1, 0]"	"[0, 0]"	"[0, 1]"	"[2.5051956999959657, 3.3804323000076693]"	3	200	NA	NA	NA	NA	NA	NA	NA	NA	12	"01"	"2024-02-07_11h46.19.782"	"GDT_exp"	"2023.2.3"	119.971398803256	"2024-02-07 11h46.31.593192 +0100"	NA
"dice_2.png"	2	0	1	1	1	30.3884562000021	NA	NA	NA	NA	NA	NA	NA	NA	NA	NA	NA	NA	30.341946200002	30.3884562000021	30.3884562000021	30.3884562000021	30.3884562000021	30.3884562000021	30.3884562000021	30.3884562000021	30.3884562000021	30.3884562000021	30.3884562000021	30.3884562000021	30.3884562000021	30.3884562000021	30.3884562000021	30.3884562000021	30.3884562000021	30.3884562000021	30.3884562000021	30.3884562000021	30.3884562000021	30.3884562000021	30.3884562000021	30.3884562000021	30.3884562000021	30.3884562000021	0.0178468000085559	NA	33.1887666999974	NA	34.7470652999909	34.6994632999995	"[-0.2916666666666667, -0.1824074074074074]"	"[-0.15185185185185185, 0.15462962962962962]"	"[1, 0]"	"[0, 0]"	"[0, 1]"	"[1.4372036999993725, 2.762070999990101]"	2	-500	2.7801618000085	NA	NA	NA	NA	NA	NA	NA	12	"01"	"2024-02-07_11h46.19.782"	"GDT_exp"	"2023.2.3"	119.971398803256	"2024-02-07 11h46.31.593192 +0100"	NA
"dice_1.png"	1	0	2	2	0	34.7470652999909	NA	NA	NA	NA	NA	NA	NA	NA	NA	NA	NA	NA	34.7001402000024	34.7470652999909	34.7470652999909	34.7470652999909	34.7470652999909	34.7470652999909	34.7470652999909	34.7470652999909	34.7470652999909	34.7470652999909	34.7470652999909	34.7470652999909	34.7470652999909	34.7470652999909	34.7470652999909	34.7470652999909	34.7470652999909	34.7470652999909	34.7470652999909	34.7470652999909	34.7470652999909	34.7470652999909	34.7470652999909	34.7470652999909	34.7470652999909	34.7470652999909	0.0177679000044009	NA	37.0305651999952	NA	38.5723723999981	38.5334339999972	"[-0.19166666666666668, -0.016666666666666666]"	"[-0.3416666666666667, 0.15185185185185185]"	"[1, 0]"	"[0, 0]"	"[0, 1]"	"[1.5542831999919144, 2.229477599990787]"	4	-100	2.24738300000899	NA	NA	NA	NA	NA	NA	NA	12	"01"	"2024-02-07_11h46.19.782"	"GDT_exp"	"2023.2.3"	119.971398803256	"2024-02-07 11h46.31.593192 +0100"	NA
"dice_5.png"	5	0	3	3	4	38.5723723999981	NA	NA	NA	NA	NA	NA	NA	NA	NA	NA	NA	NA	38.533981799992	38.5723723999981	38.5723723999981	38.5723723999981	38.5723723999981	38.5723723999981	38.5723723999981	38.5723723999981	38.5723723999981	38.5723723999981	38.5723723999981	38.5723723999981	38.5723723999981	38.5723723999981	38.5723723999981	38.5723723999981	38.5723723999981	38.5723723999981	38.5723723999981	38.5723723999981	38.5723723999981	38.5723723999981	38.5723723999981	38.5723723999981	38.5723723999981	38.5723723999981	0.0176516000065021	NA	42.0725784999959	NA	43.6228343999974	43.5752464999969	"[-0.41203703703703703, -0.18796296296296297]"	"[-0.2574074074074074, 0.13425925925925927]"	"[1, 0]"	"[0, 0]"	"[0, 1]"	"[2.1042244999989634, 3.4458202999958303]"	3	-200	3.463740399995	NA	NA	NA	NA	NA	NA	NA	12	"01"	"2024-02-07_11h46.19.782"	"GDT_exp"	"2023.2.3"	119.971398803256	"2024-02-07 11h46.31.593192 +0100"	NA
"dice_4.png"	4	0	4	4	3	43.6228343999974	NA	NA	NA	NA	NA	NA	NA	NA	NA	NA	NA	NA	43.5757716999942	43.6228343999974	43.6228343999974	43.6228343999974	43.6228343999974	43.6228343999974	43.6228343999974	43.6228343999974	43.6228343999974	43.6228343999974	43.6228343999974	43.6228343999974	43.6228343999974	43.6228343999974	43.6228343999974	43.6228343999974	43.6228343999974	43.6228343999974	43.6228343999974	43.6228343999974	43.6228343999974	43.6228343999974	43.6228343999974	43.6228343999974	43.6228343999974	43.6228343999974	0.0178248000011081	3.25560299999779	46.9062254000019	4.78086329999496	48.4646626999893	48.4170996999892	"[0.019444444444444445, -0.012037037037037037]"	"[-0.3388888888888889, 0.10833333333333334]"	"[1, 0]"	"[0, 0]"	"[0, 1]"	"[1.904228300001705, 3.237596899998607]"	4	100	NA	NA	NA	NA	NA	NA	NA	NA	12	"01"	"2024-02-07_11h46.19.782"	"GDT_exp"	"2023.2.3"	119.971398803256	"2024-02-07 11h46.31.593192 +0100"	NA
"dice_3.png"	3	0	5	5	2	48.4646626999893	NA	NA	NA	NA	NA	NA	NA	NA	NA	NA	NA	NA	48.4177526999993	48.4646626999893	48.4646626999893	48.4646626999893	48.4646626999893	48.4646626999893	48.4646626999893	48.4646626999893	48.4646626999893	48.4646626999893	48.4646626999893	48.4646626999893	48.4646626999893	48.4646626999893	48.4646626999893	48.4646626999893	48.4646626999893	48.4646626999893	48.4646626999893	48.4646626999893	48.4646626999893	48.4646626999893	48.4646626999893	48.4646626999893	48.4646626999893	48.4646626999893	0.0174311000009766	2.94725920000928	51.4315380999906	4.47252100000333	52.9899745000002	52.9507536000019	"[-0.6037037037037037, -0.17777777777777778]"	"[-0.3472222222222222, 0.125]"	"[1, 0]"	"[0, 0]"	"[0, 1]"	"[1.6129269000084605, 2.9296270000049844]"	4	100	NA	NA	NA	NA	NA	NA	NA	NA	12	"01"	"2024-02-07_11h46.19.782"	"GDT_exp"	"2023.2.3"	119.971398803256	"2024-02-07 11h46.31.593192 +0100"	NA
"dice_3.png"	3	1	0	6	2	52.9899745000002	NA	NA	NA	NA	NA	NA	NA	NA	NA	NA	NA	NA	52.9513079999888	52.9899745000002	52.9899745000002	52.9899745000002	52.9899745000002	52.9899745000002	52.9899745000002	52.9899745000002	52.9899745000002	52.9899745000002	52.9899745000002	52.9899745000002	52.9899745000002	52.9899745000002	52.9899745000002	52.9899745000002	52.9899745000002	52.9899745000002	52.9899745000002	52.9899745000002	52.9899745000002	52.9899745000002	52.9899745000002	52.9899745000002	52.9899745000002	52.9899745000002	0.0143214999989141	2.33896449999884	55.3653357000003	3.85577779999585	56.9152404999913	56.8675987999886	"[-0.44814814814814813, -0.24722222222222223]"	"[-0.25277777777777777, 0.12685185185185185]"	"[1, 0]"	"[0, 0]"	"[0, 1]"	"[1.449405100007425, 2.3245378999999957]"	3	200	NA	NA	NA	NA	NA	NA	NA	NA	12	"01"	"2024-02-07_11h46.19.782"	"GDT_exp"	"2023.2.3"	119.971398803256	"2024-02-07 11h46.31.593192 +0100"	NA
"dice_6.png"	6	1	1	7	5	56.9152404999913	NA	NA	NA	NA	NA	NA	NA	NA	NA	NA	NA	NA	56.8681231999944	56.9152404999913	56.9152404999913	56.9152404999913	56.9152404999913	56.9152404999913	56.9152404999913	56.9152404999913	56.9152404999913	56.9152404999913	56.9152404999913	56.9152404999913	56.9152404999913	56.9152404999913	56.9152404999913	56.9152404999913	56.9152404999913	56.9152404999913	56.9152404999913	56.9152404999913	56.9152404999913	56.9152404999913	56.9152404999913	56.9152404999913	56.9152404999913	56.9152404999913	0.0177697999897646	3.84765749999497	60.7905930999987	5.3727002999949	62.3406513999944	62.3015407999919	"[-0.1361111111111111, -0.13333333333333333]"	"[-0.24259259259259258, 0.11018518518518519]"	"[1, 0]"	"[0, 0]"	"[0, 1]"	"[2.8378677000000607, 3.8298853000014788]"	3	200	NA	NA	NA	NA	NA	NA	NA	NA	12	"01"	"2024-02-07_11h46.19.782"	"GDT_exp"	"2023.2.3"	119.971398803256	"2024-02-07 11h46.31.593192 +0100"	NA
"dice_5.png"	5	1	2	8	4	62.3406513999944	NA	NA	NA	NA	NA	NA	NA	NA	NA	NA	NA	NA	62.3021066999936	62.3406513999944	62.3406513999944	62.3406513999944	62.3406513999944	62.3406513999944	62.3406513999944	62.3406513999944	62.3406513999944	62.3406513999944	62.3406513999944	62.3406513999944	62.3406513999944	62.3406513999944	62.3406513999944	62.3406513999944	62.3406513999944	62.3406513999944	62.3406513999944	62.3406513999944	62.3406513999944	62.3406513999944	62.3406513999944	62.3406513999944	62.3406513999944	62.3406513999944	0.0153846000030171	NA	65.3993191999907	NA	66.9659659999888	66.9270015999937	"[-0.6361111111111111, -0.3055555555555556]"	"[-0.13055555555555556, 0.13703703703703704]"	"[1, 0]"	"[0, 0]"	"[0, 1]"	"[2.256399499994586, 3.014972899996792]"	2	-500	3.03054060001159	NA	NA	NA	NA	NA	NA	NA	12	"01"	"2024-02-07_11h46.19.782"	"GDT_exp"	"2023.2.3"	119.971398803256	"2024-02-07 11h46.31.593192 +0100"	NA
"dice_2.png"	2	1	3	9	1	66.9659659999888	NA	NA	NA	NA	NA	NA	NA	NA	NA	NA	NA	NA	66.9275306999916	66.9659659999888	66.9659659999888	66.9659659999888	66.9659659999888	66.9659659999888	66.9659659999888	66.9659659999888	66.9659659999888	66.9659659999888	66.9659659999888	66.9659659999888	66.9659659999888	66.9659659999888	66.9659659999888	66.9659659999888	66.9659659999888	66.9659659999888	66.9659659999888	66.9659659999888	66.9659659999888	66.9659659999888	66.9659659999888	66.9659659999888	66.9659659999888	66.9659659999888	0.014563899996574	1.53864909999538	68.5327010999899	3.06379719999677	70.0911500999937	70.0522149999888	"[-0.4074074074074074, -0.2101851851851852]"	"[-0.24166666666666667, 0.16944444444444445]"	"[1, 0]"	"[0, 0]"	"[0, 1]"	"[0.8654798000061419, 1.5238359999930253]"	3	200	NA	NA	NA	NA	NA	NA	NA	NA	12	"01"	"2024-02-07_11h46.19.782"	"GDT_exp"	"2023.2.3"	119.971398803256	"2024-02-07 11h46.31.593192 +0100"	NA
"dice_4.png"	4	1	4	10	3	70.0911500999937	NA	NA	NA	NA	NA	NA	NA	NA	NA	NA	NA	NA	70.0527516000002	70.0911500999937	70.0911500999937	70.0911500999937	70.0911500999937	70.0911500999937	70.0911500999937	70.0911500999937	70.0911500999937	70.0911500999937	70.0911500999937	70.0911500999937	70.0911500999937	70.0911500999937	70.0911500999937	70.0911500999937	70.0911500999937	70.0911500999937	70.0911500999937	70.0911500999937	70.0911500999937	70.0911500999937	70.0911500999937	70.0911500999937	70.0911500999937	70.0911500999937	0.0146839000080945	2.78875220000918	72.9163364999986	4.28902290000406	74.4831313999894	74.4438265999925	"[-0.23981481481481481, -0.1712962962962963]"	"[-0.3425925925925926, 0.16111111111111112]"	"[1, 0]"	"[0, 0]"	"[0, 1]"	"[1.7970006999967154, 2.7721011999965413]"	4	100	NA	NA	NA	NA	NA	NA	NA	NA	12	"01"	"2024-02-07_11h46.19.782"	"GDT_exp"	"2023.2.3"	119.971398803256	"2024-02-07 11h46.31.593192 +0100"	NA
"dice_1.png"	1	1	5	11	0	74.4831313999894	NA	NA	NA	NA	NA	NA	NA	NA	NA	NA	NA	NA	74.4443954000017	74.4831313999894	74.4831313999894	74.4831313999894	74.4831313999894	74.4831313999894	74.4831313999894	74.4831313999894	74.4831313999894	74.4831313999894	74.4831313999894	74.4831313999894	74.4831313999894	74.4831313999894	74.4831313999894	74.4831313999894	74.4831313999894	74.4831313999894	74.4831313999894	74.4831313999894	74.4831313999894	74.4831313999894	74.4831313999894	74.4831313999894	74.4831313999894	74.4831313999894	0.0145187000016449	NA	76.516616199995	NA	78.0750231999991	78.0359432999976	"[-0.0712962962962963, -0.10740740740740741]"	"[-0.25277777777777777, 0.15648148148148147]"	"[1, 0]"	"[0, 0]"	"[0, 1]"	"[0.8827008000080241, 1.990921900011017]"	3	-200	2.00567270000465	NA	NA	NA	NA	NA	NA	NA	12	"01"	"2024-02-07_11h46.19.782"	"GDT_exp"	"2023.2.3"	119.971398803256	"2024-02-07 11h46.31.593192 +0100"	NA
"dice_5.png"	5	2	0	12	4	78.0750231999991	NA	NA	NA	NA	NA	NA	NA	NA	NA	NA	NA	NA	78.036469300001	78.0750231999991	78.0750231999991	78.0750231999991	78.0750231999991	78.0750231999991	78.0750231999991	78.0750231999991	78.0750231999991	78.0750231999991	78.0750231999991	78.0750231999991	78.0750231999991	78.0750231999991	78.0750231999991	78.0750231999991	78.0750231999991	78.0750231999991	78.0750231999991	78.0750231999991	78.0750231999991	78.0750231999991	78.0750231999991	78.0750231999991	78.0750231999991	78.0750231999991	0.0147906999918632	NA	79.5001147000003	NA	81.0754228000005	81.0361612999986	"[-0.4074074074074074, -0.20925925925925926]"	"[-0.262037037037037, 0.1361111111111111]"	"[1, 0]"	"[0, 0]"	"[0, 1]"	"[0.5324789000005694, 1.3820842999994056]"	3	-200	1.39712599999621	NA	NA	NA	NA	NA	NA	NA	12	"01"	"2024-02-07_11h46.19.782"	"GDT_exp"	"2023.2.3"	119.971398803256	"2024-02-07 11h46.31.593192 +0100"	NA
"dice_4.png"	4	2	1	13	3	81.0754228000005	NA	NA	NA	NA	NA	NA	NA	NA	NA	NA	NA	NA	81.0367332999886	81.0754228000005	81.0754228000005	81.0754228000005	81.0754228000005	81.0754228000005	81.0754228000005	81.0754228000005	81.0754228000005	81.0754228000005	81.0754228000005	81.0754228000005	81.0754228000005	81.0754228000005	81.0754228000005	81.0754228000005	81.0754228000005	81.0754228000005	81.0754228000005	81.0754228000005	81.0754228000005	81.0754228000005	81.0754228000005	81.0754228000005	81.0754228000005	81.0754228000005	0.0181125000090105	2.14712550000695	83.2505139999994	3.67228179999802	84.8089260999986	84.7697615999932	"[-0.3148148148148148, -0.2388888888888889]"	"[-0.36018518518518516, 0.1648148148148148]"	"[1, 0]"	"[0, 0]"	"[0, 1]"	"[1.403435599990189, 2.12846009999339]"	4	100	NA	NA	NA	NA	NA	NA	NA	NA	12	"01"	"2024-02-07_11h46.19.782"	"GDT_exp"	"2023.2.3"	119.971398803256	"2024-02-07 11h46.31.593192 +0100"	NA
"dice_2.png"	2	2	2	14	1	84.8089260999986	NA	NA	NA	NA	NA	NA	NA	NA	NA	NA	NA	NA	84.7703007999953	84.8089260999986	84.8089260999986	84.8089260999986	84.8089260999986	84.8089260999986	84.8089260999986	84.8089260999986	84.8089260999986	84.8089260999986	84.8089260999986	84.8089260999986	84.8089260999986	84.8089260999986	84.8089260999986	84.8089260999986	84.8089260999986	84.8089260999986	84.8089260999986	84.8089260999986	84.8089260999986	84.8089260999986	84.8089260999986	84.8089260999986	84.8089260999986	84.8089260999986	0.0146339000057196	1.98879050000687	86.8255443999951	3.51413490000414	88.3924344999978	88.3537264999904	"[-0.21666666666666667, -0.19814814814814816]"	"[-0.3509259259259259, 0.16018518518518518]"	"[1, 0]"	"[0, 0]"	"[0, 1]"	"[0.9321771999966586, 1.9738993999926606]"	4	100	NA	NA	NA	NA	NA	NA	NA	NA	12	"01"	"2024-02-07_11h46.19.782"	"GDT_exp"	"2023.2.3"	119.971398803256	"2024-02-07 11h46.31.593192 +0100"	NA
"dice_6.png"	6	2	3	15	5	88.3924344999978	NA	NA	NA	NA	NA	NA	NA	NA	NA	NA	NA	NA	88.3542996999895	88.3924344999978	88.3924344999978	88.3924344999978	88.3924344999978	88.3924344999978	88.3924344999978	88.3924344999978	88.3924344999978	88.3924344999978	88.3924344999978	88.3924344999978	88.3924344999978	88.3924344999978	88.3924344999978	88.3924344999978	88.3924344999978	88.3924344999978	88.3924344999978	88.3924344999978	88.3924344999978	88.3924344999978	88.3924344999978	88.3924344999978	88.3924344999978	88.3924344999978	0.0147350000042934	2.74678040000435	91.1675972999947	4.24693490000209	92.7094881999947	92.6700850999914	"[-0.13055555555555556, -0.18703703703703703]"	"[-0.24351851851851852, 0.125]"	"[1, 0]"	"[0, 0]"	"[0, 1]"	"[1.2567073000100208, 2.7318135000095936]"	3	200	NA	NA	NA	NA	NA	NA	NA	NA	12	"01"	"2024-02-07_11h46.19.782"	"GDT_exp"	"2023.2.3"	119.971398803256	"2024-02-07 11h46.31.593192 +0100"	NA
"dice_3.png"	3	2	4	16	2	92.7094881999947	NA	NA	NA	NA	NA	NA	NA	NA	NA	NA	NA	NA	92.6706543999899	92.7094881999947	92.7094881999947	92.7094881999947	92.7094881999947	92.7094881999947	92.7094881999947	92.7094881999947	92.7094881999947	92.7094881999947	92.7094881999947	92.7094881999947	92.7094881999947	92.7094881999947	92.7094881999947	92.7094881999947	92.7094881999947	92.7094881999947	92.7094881999947	92.7094881999947	92.7094881999947	92.7094881999947	92.7094881999947	92.7094881999947	92.7094881999947	92.7094881999947	0.0145266000035917	2.51403120000032	95.2597034999926	4.01430749999417	96.8263102999918	96.7787629999948	"[0.08888888888888889, -0.058333333333333334]"	"[-0.35, 0.14814814814814814]"	"[1, 0]"	"[0, 0]"	"[0, 1]"	"[1.58256490000349, 2.499265300008119]"	4	100	NA	NA	NA	NA	NA	NA	NA	NA	12	"01"	"2024-02-07_11h46.19.782"	"GDT_exp"	"2023.2.3"	119.971398803256	"2024-02-07 11h46.31.593192 +0100"	NA
"dice_1.png"	1	2	5	17	0	96.8263102999918	NA	NA	NA	NA	NA	NA	NA	NA	NA	NA	NA	NA	96.7792891999998	96.8263102999918	96.8263102999918	96.8263102999918	96.8263102999918	96.8263102999918	96.8263102999918	96.8263102999918	96.8263102999918	96.8263102999918	96.8263102999918	96.8263102999918	96.8263102999918	96.8263102999918	96.8263102999918	96.8263102999918	96.8263102999918	96.8263102999918	96.8263102999918	96.8263102999918	96.8263102999918	96.8263102999918	96.8263102999918	96.8263102999918	96.8263102999918	96.8263102999918	0.0176276999991387	2.33070210000733	99.1765022999898	3.84747429999697	100.701576499996	100.687576099997	"[-0.42685185185185187, -0.25925925925925924]"	"[-0.24537037037037038, 0.19074074074074074]"	"[1, 0]"	"[0, 0]"	"[0, 1]"	"[1.4127680999954464, 2.313004900002852]"	3	200	NA	NA	NA	NA	NA	NA	NA	NA	12	"01"	"2024-02-07_11h46.19.782"	"GDT_exp"	"2023.2.3"	119.971398803256	"2024-02-07 11h46.31.593192 +0100"	NA
NA	NA	NA	NA	NA	NA	NA	NA	NA	NA	NA	NA	NA	NA	NA	NA	NA	NA	NA	NA	NA	NA	NA	NA	NA	NA	NA	NA	NA	NA	NA	NA	NA	NA	NA	NA	NA	NA	NA	NA	NA	NA	NA	NA	NA	NA	NA	NA	NA	NA	NA	NA	NA	NA	NA	NA	NA	NA	NA	NA	100.688147399997	100.701576499996	100.701576499996	110.144283499991	"space"	9.43751459999476	"None"	12	"01"	"2024-02-07_11h46.19.782"	"GDT_exp"	"2023.2.3"	119.971398803256	"2024-02-07 11h46.31.593192 +0100"	NA
