image	max_pumps	pump_loop.thisRepN	pump_loop.thisTrialN	pump_loop.thisN	pump_loop.thisIndex	thisRow.t	notes	Start.started	text_start.started	continue_start.started	mouse_start.started	Start.stopped	mouse_start.x	mouse_start.y	mouse_start.leftButton	mouse_start.midButton	mouse_start.rightButton	mouse_start.time	trials.started	stim_balloon.started	stim_balloon_burst.started	stim_balloon_burst.stopped	text_ballon_value.started	text_bank.started	mouse.started	sound_bang.started	sound_bang.stopped	button_balloon.started	trials.stopped	n_pumps	earnings	popped	mouse.x	mouse.y	mouse.leftButton	mouse.midButton	mouse.rightButton	mouse.time	button_balloon.numClicks	button_balloon.timesOn	button_balloon.timesOff	Feedback.started	text_feedback.started	text_feedback.stopped	Feedback.stopped	End.started	text_end.started	key_end.started	End.stopped	key_end.keys	key_end.rt	key_end.duration	participant	session	date	expName	psychopyVersion	frameRate	expStart	
								0.001629199949093163	0.006465899990871549	0.006465899990871549	0.0019073999719694257	52.03055099991616	[0.6537037037037037]	[-0.387037037037037]	[1]	[0]	[0]	[52.02797870000359]																																			34	02	2024-02-27_11h16.58.257	BART_exp	2023.2.3	122.52484508976019	2024-02-27 11h17.07.309930 +0100	
balloon.png	114	0	0	0	26	52.09403499995824													52.03745489998255	52.09403499995824	52.09403499995824	52.09403499995824	52.09403499995824	52.09403499995824	0.008684300002641976	0.008684300002641976	0.008684300002641976	52.09403499995824	60.44902869989164	17	0.85	False	"[-0.05185185185185185, -0.03888888888888889, -0.03796296296296296, -0.03796296296296296, -0.03796296296296296, -0.03796296296296296, -0.049074074074074076, -0.05185185185185185, -0.05185185185185185, -0.05185185185185185, -0.05185185185185185, -0.05185185185185185, -0.05185185185185185, -0.05185185185185185, -0.05185185185185185, -0.05185185185185185, -0.05185185185185185, -0.05185185185185185, -0.05185185185185185]"	"[-0.4305555555555556, -0.4074074074074074, -0.3972222222222222, -0.3972222222222222, -0.3972222222222222, -0.3972222222222222, -0.39814814814814814, -0.39166666666666666, -0.39166666666666666, -0.39166666666666666, -0.39166666666666666, -0.39166666666666666, -0.39166666666666666, -0.39166666666666666, -0.39166666666666666, -0.39166666666666666, -0.39166666666666666, -0.39166666666666666, -0.39166666666666666]"	"[1, 1, 1, 1, 1, 1, 1, 1, 1, 1, 1, 1, 1, 1, 1, 1, 1, 1, 0]"	"[0, 0, 0, 0, 0, 0, 0, 0, 0, 0, 0, 0, 0, 0, 0, 0, 0, 0, 0]"	"[0, 0, 0, 0, 0, 0, 0, 0, 0, 0, 0, 0, 0, 0, 0, 0, 0, 0, 1]"	"[1.801792599959299, 2.1100125999655575, 2.4849036999512464, 2.8850047999294475, 3.2440225000027567, 3.5944846000056714, 3.884956300025806, 4.177365000010468, 4.4767815000377595, 4.777062600012869, 5.101798199932091, 5.493354600039311, 5.793618299998343, 6.226987199974246, 6.501911500003189, 7.0354340999620035, 7.476866599987261, 8.06860819994472, 8.41050220001489]"	18	"[2.0591749000595883, 2.4340698000742123, 2.8341606999747455, 3.193206900032237, 3.5436928999843076, 3.8341224000323564, 4.126626400044188, 4.425995700061321, 4.726400600047782, 5.050962800043635, 5.44251510000322, 5.74278209998738, 6.176158400019631, 6.451072000083514, 6.984598300070502, 7.426022800034843, 8.01776359998621, 8.35959750006441]"	"[2.1257711000507697, 2.533975400030613, 2.9173691000323743, 3.283994800061919, 3.6173712000017986, 3.9095258000306785, 4.242620200035162, 4.534115600050427, 4.8341485999990255, 5.1591450000414625, 5.517549099982716, 5.834191199974157, 6.292525600059889, 6.534237500047311, 7.092558800010011, 7.534367099986412, 8.151091800071299, 8.359601599979214]"	60.450454699923284	60.46062539995182	61.96309029997792	61.947656699921936								34	02	2024-02-27_11h16.58.257	BART_exp	2023.2.3	122.52484508976019	2024-02-27 11h17.07.309930 +0100	
balloon.png	14	0	1	1	3	61.96309029997792													61.94788169988897	61.96309029997792	61.96309029997792	61.96309029997792	61.96309029997792	61.96309029997792	-0.0009244000539183617	-0.0009244000539183617	-0.0009244000539183617	61.96309029997792	64.66642649995629	15	0.70	True	"[-0.03796296296296296, -0.03796296296296296, -0.03796296296296296, -0.03796296296296296, -0.03796296296296296, -0.03796296296296296, -0.03796296296296296, -0.03796296296296296, -0.03796296296296296, -0.03796296296296296, -0.03796296296296296, -0.03796296296296296, -0.03796296296296296, -0.03796296296296296, -0.03796296296296296]"	"[-0.40925925925925927, -0.40925925925925927, -0.40925925925925927, -0.4064814814814815, -0.4064814814814815, -0.4064814814814815, -0.4064814814814815, -0.4064814814814815, -0.4064814814814815, -0.4064814814814815, -0.4064814814814815, -0.4064814814814815, -0.4064814814814815, -0.4064814814814815, -0.4064814814814815]"	"[1, 1, 1, 1, 1, 1, 1, 1, 1, 1, 1, 1, 1, 1, 1]"	"[0, 0, 0, 0, 0, 0, 0, 0, 0, 0, 0, 0, 0, 0, 0]"	"[0, 0, 0, 0, 0, 0, 0, 0, 0, 0, 0, 0, 0, 0, 0]"	"[0.25024890003260225, 0.4334684000350535, 0.6000419000629336, 0.7585055000381544, 0.9418141000205651, 1.0420892999973148, 1.1752066999906674, 1.3087530999910086, 1.4500806999858469, 1.5834290999919176, 1.8254663000116125, 2.0001832999987528, 2.125837199972011, 2.3003580999793485, 2.6255546000320464]"	15	"[0.2401835999917239, 0.42338279995601624, 0.5899619000265375, 0.7484234999865294, 0.9317348999902606, 1.032019800040871, 1.165116299991496, 1.2986672000261024, 1.4399909999920055, 1.5733380999881774, 1.8153764000162482, 1.9900952000170946, 2.115761599969119, 2.2902800999581814, 2.6154998999554664]"	"[0.35650320001877844, 0.47463640000205487, 0.6315927000250667, 0.8232347000157461, 0.9816079000011086, 1.11494700005278, 1.2565817999420688, 1.3732099999906495, 1.498465499957092, 1.6232227999716997, 1.8899473999626935, 2.0487421000143513, 2.2232685999479145, 2.398787399986759, 2.6987190999789163]"	64.66735639993567	64.67505029996391	66.17302170000039	66.16462199995294								34	02	2024-02-27_11h16.58.257	BART_exp	2023.2.3	122.52484508976019	2024-02-27 11h17.07.309930 +0100	
balloon.png	127	0	2	2	29	66.17302170000039													66.16484339989256	66.17302170000039	66.17302170000039	66.17302170000039	66.17302170000039	66.17302170000039	-0.0008330999407917261	-0.0008330999407917261	-0.0008330999407917261	66.17302170000039	69.76616399991326	14	0.70	False	"[-0.08148148148148149, -0.07037037037037037, -0.06944444444444445, -0.06944444444444445, -0.06944444444444445, -0.06944444444444445, -0.06944444444444445, -0.06944444444444445, -0.06944444444444445, -0.06944444444444445, -0.06944444444444445, -0.06944444444444445, -0.06944444444444445, -0.06944444444444445, -0.06944444444444445, -0.06944444444444445]"	"[-0.34629629629629627, -0.3824074074074074, -0.3824074074074074, -0.3824074074074074, -0.3824074074074074, -0.3824074074074074, -0.3824074074074074, -0.3824074074074074, -0.3824074074074074, -0.3824074074074074, -0.3824074074074074, -0.3824074074074074, -0.3824074074074074, -0.3824074074074074, -0.3824074074074074, -0.3814814814814815]"	"[1, 1, 1, 1, 1, 1, 1, 1, 1, 1, 1, 1, 1, 1, 1, 0]"	"[0, 0, 0, 0, 0, 0, 0, 0, 0, 0, 0, 0, 0, 0, 0, 0]"	"[0, 0, 0, 0, 0, 0, 0, 0, 0, 0, 0, 0, 0, 0, 0, 1]"	"[0.32497919991146773, 0.6585832999553531, 0.8170169999357313, 0.9834295999025926, 1.1500691999681294, 1.3083338999422267, 1.4669423999730498, 1.6337975999340415, 1.8250842000124976, 1.983488900004886, 2.13352869998198, 2.3169013999868184, 2.525128599954769, 2.766954499995336, 3.1668949999148026, 3.6002682999242097]"	15	"[0.655423799995333, 0.8138780000153929, 0.9802473000017926, 1.1468885000795126, 1.3051493000239134, 1.4637540000258014, 1.6306273000082, 1.8218945000553504, 1.9803166000638157, 2.130364299984649, 2.3137137000449, 2.5219411000143737, 2.7637719999765977, 3.1637164000421762, 3.5970234000124037]"	"[0.7300855000503361, 0.9216552000725642, 1.080192800029181, 1.2301662999670953, 1.4050594000145793, 1.5635021000634879, 1.7217180000152439, 1.8802268999861553, 2.0550880000228062, 2.230264600017108, 2.4136717000510544, 2.605123999994248, 2.8636592000257224, 3.2719498000806198, 3.5970278000459075]"	69.76703499990981	69.77260639995802	71.27289339993149	71.25659709994216								34	02	2024-02-27_11h16.58.257	BART_exp	2023.2.3	122.52484508976019	2024-02-27 11h17.07.309930 +0100	
balloon.png	53	0	3	3	12	71.27289339993149													71.25681019993499	71.27289339993149	71.27289339993149	71.27289339993149	71.27289339993149	71.27289339993149	0.005946999997831881	0.005946999997831881	0.005946999997831881	71.27289339993149	74.80099019990303	16	0.80	False	"[-0.06944444444444445, -0.06944444444444445, -0.06944444444444445, -0.06944444444444445, -0.06944444444444445, -0.06944444444444445, -0.06944444444444445, -0.06944444444444445, -0.06944444444444445, -0.06944444444444445, -0.06944444444444445, -0.06944444444444445, -0.06944444444444445, -0.06944444444444445, -0.06944444444444445, -0.06944444444444445, -0.06944444444444445]"	"[-0.3824074074074074, -0.3824074074074074, -0.3824074074074074, -0.3824074074074074, -0.3824074074074074, -0.3824074074074074, -0.3824074074074074, -0.3824074074074074, -0.3824074074074074, -0.3824074074074074, -0.3824074074074074, -0.3824074074074074, -0.3824074074074074, -0.3824074074074074, -0.3824074074074074, -0.3824074074074074, -0.3824074074074074]"	"[1, 1, 1, 1, 1, 1, 1, 1, 1, 1, 1, 1, 1, 1, 1, 1, 0]"	"[0, 0, 0, 0, 0, 0, 0, 0, 0, 0, 0, 0, 0, 0, 0, 0, 0]"	"[0, 0, 0, 0, 0, 0, 0, 0, 0, 0, 0, 0, 0, 0, 0, 0, 1]"	"[0.2929570999694988, 0.45848020003177226, 0.608653899980709, 0.7502463000128046, 0.900872900034301, 1.0334060000022873, 1.2003290000138804, 1.3502966000232846, 1.508839900023304, 1.6501302999677137, 1.8000823999755085, 1.9593015999998897, 2.116988099995069, 2.2667775000445545, 2.433476599981077, 3.2753177999984473, 3.542319200001657]"	17	"[0.2906854000175372, 0.45621710002887994, 0.6063865000614896, 0.7479823000030592, 0.8988129000645131, 1.0311350000556558, 1.1980608000885695, 1.3480245000682771, 1.5065724999876693, 1.6478533000918105, 1.7978070999961346, 1.957042400026694, 2.114730800036341, 2.264507199986838, 2.431203700019978, 3.273122000042349, 3.540168600040488]"	"[0.34765080001670867, 0.5309976000571623, 0.6894749000202864, 0.8394843999994919, 0.989520600065589, 1.1310349000850692, 1.2977234000572935, 1.4564661000622436, 1.6065127000911161, 1.714461600058712, 1.8810483000706881, 2.0310634000925347, 2.190085200010799, 2.38111200009007, 2.531126399990171, 3.3562738000182435, 3.540175799978897]"	74.80214970000088	74.80628689995501	76.2980521999998	76.290228299913								34	02	2024-02-27_11h16.58.257	BART_exp	2023.2.3	122.52484508976019	2024-02-27 11h17.07.309930 +0100	
balloon.png	10	0	4	4	2	76.2980521999998													76.29044489993248	76.2980521999998	76.2980521999998	76.2980521999998	76.2980521999998	76.2980521999998	0.004320899955928326	0.004320899955928326	0.004320899955928326	76.2980521999998	78.45060159999412	11	0.50	True	"[-0.06944444444444445, -0.06944444444444445, -0.06944444444444445, -0.06944444444444445, -0.06944444444444445, -0.06944444444444445, -0.06944444444444445, -0.06944444444444445, -0.06944444444444445, -0.06944444444444445, -0.06944444444444445]"	"[-0.3824074074074074, -0.3824074074074074, -0.3824074074074074, -0.3824074074074074, -0.3824074074074074, -0.3824074074074074, -0.3824074074074074, -0.3824074074074074, -0.3824074074074074, -0.3824074074074074, -0.3824074074074074]"	"[1, 1, 1, 1, 1, 1, 1, 1, 1, 1, 1]"	"[0, 0, 0, 0, 0, 0, 0, 0, 0, 0, 0]"	"[0, 0, 0, 0, 0, 0, 0, 0, 0, 0, 0]"	"[0.341887200018391, 0.5085987000493333, 0.6836823000339791, 0.8669781000353396, 1.0584283000789583, 1.2098442000569776, 1.3671689999755472, 1.533762100036256, 1.7170874000294134, 1.87539350008592, 2.0835477000800893]"	11	"[0.33955729997251183, 0.5062746999319643, 0.6813640999607742, 0.8646575999446213, 1.0560886999592185, 1.2076743999496102, 1.3650910999858752, 1.531436000019312, 1.714767099940218, 1.873071699985303, 2.0812163999071345]"	"[0.43098109995480627, 0.6226329000201076, 0.7810680000111461, 0.9644302999367937, 1.1393145999172702, 1.297776099992916, 1.464607200003229, 1.6478276000125334, 1.7893712999066338, 1.9893740999978036, 2.14776899991557]"	78.45142259995919	78.45653509988915	79.94862109993119	79.9405580998864								34	02	2024-02-27_11h16.58.257	BART_exp	2023.2.3	122.52484508976019	2024-02-27 11h17.07.309930 +0100	
balloon.png	97	0	5	5	22	79.94862109993119													79.94077379989903	79.94862109993119	79.94862109993119	79.94862109993119	79.94862109993119	79.94862109993119	0.0052776000229641795			79.94862109993119	84.18405279994477	16	0.80	False	"[-0.03611111111111111, -0.037037037037037035, -0.037037037037037035, -0.037037037037037035, -0.037037037037037035, -0.037037037037037035, -0.037037037037037035, -0.037037037037037035, -0.037037037037037035, -0.037037037037037035, -0.037037037037037035, -0.037037037037037035, -0.037037037037037035, -0.037037037037037035, -0.037037037037037035, -0.037037037037037035, -0.037037037037037035]"	"[-0.4046296296296296, -0.4027777777777778, -0.4, -0.4, -0.4, -0.3990740740740741, -0.39814814814814814, -0.39537037037037037, -0.39537037037037037, -0.39537037037037037, -0.39537037037037037, -0.39537037037037037, -0.39537037037037037, -0.39537037037037037, -0.39537037037037037, -0.39537037037037037, -0.39537037037037037]"	"[1, 1, 1, 1, 1, 1, 1, 1, 1, 1, 1, 1, 1, 1, 1, 1, 0]"	"[0, 0, 0, 0, 0, 0, 0, 0, 0, 0, 0, 0, 0, 0, 0, 0, 0]"	"[0, 0, 0, 0, 0, 0, 0, 0, 0, 0, 0, 0, 0, 0, 0, 0, 1]"	"[0.3416674999753013, 0.5249670998891816, 0.7003407999873161, 0.858623499982059, 1.0335006999084726, 1.1835951999528334, 1.3504057999234647, 1.5504005999537185, 1.7839059999678284, 2.0252952999435365, 2.241938199964352, 2.4918083999073133, 2.7338711998891085, 2.9836184999439865, 3.28412169998046, 3.6839408999076113, 4.242177899926901]"	17	"[0.3391725999535993, 0.5224398999707773, 0.6978280999464914, 0.856100199976936, 1.0227138999616727, 1.1810647000093013, 1.3478791000088677, 1.5478808999760076, 1.7813784000463784, 2.02277140005026, 2.2394103000406176, 2.4892895000521094, 2.731357099954039, 2.981192799983546, 3.281706799985841, 3.6815801999764517, 4.23959290003404]"	"[0.43904199998360127, 0.6056875999784097, 0.7724868999794126, 0.93908509996254, 1.10579299996607, 1.2725299999583513, 1.447696499992162, 1.6557854999555275, 1.855885999975726, 2.1149167000548914, 2.3557872000383213, 2.589137400034815, 2.831393099972047, 3.0643904999597, 3.38103669998236, 3.755916599999182, 4.23959739995189]"	84.18503619998228	84.19025210000109	85.68302129989024	85.67421779991128								34	02	2024-02-27_11h16.58.257	BART_exp	2023.2.3	122.52484508976019	2024-02-27 11h17.07.309930 +0100	
balloon.png	44	0	6	6	10	85.68302129989024													85.67443079990335	85.68302129989024	85.68302129989024	85.68302129989024	85.68302129989024	85.68302129989024	0.005341700045391917	0.005341700045391917	0.005341700045391917	85.68302129989024	89.0423971998971	10	0.50	False	"[-0.06018518518518518, -0.05925925925925926, -0.05925925925925926, -0.05925925925925926, -0.05925925925925926, -0.05925925925925926, -0.058333333333333334, -0.058333333333333334, -0.058333333333333334, -0.058333333333333334, -0.058333333333333334]"	"[-0.36944444444444446, -0.37037037037037035, -0.37037037037037035, -0.37037037037037035, -0.37037037037037035, -0.37037037037037035, -0.37037037037037035, -0.37037037037037035, -0.37037037037037035, -0.37037037037037035, -0.37037037037037035]"	"[1, 1, 1, 1, 1, 1, 1, 1, 1, 1, 0]"	"[0, 0, 0, 0, 0, 0, 0, 0, 0, 0, 0]"	"[0, 0, 0, 0, 0, 0, 0, 0, 0, 0, 1]"	"[0.5350104999961331, 0.8166864999802783, 1.025150900008157, 1.2585739999776706, 1.4667717999545857, 1.675175299984403, 1.883697499986738, 2.216790199978277, 2.508807300007902, 3.0168774999910966, 3.366879399982281]"	11	"[0.5318856000667438, 0.8135538999922574, 1.0220206000376493, 1.2554422999965027, 1.4636431999970227, 1.6720455000177026, 1.880572900059633, 2.2136633000336587, 2.5057139999698848, 3.0137540999567136, 3.363685499993153]"	"[0.6301109000341967, 0.9052698999876156, 1.1219479000428692, 1.3467165000038221, 1.5552320999559015, 1.7635578999761492, 1.9802229000488296, 2.322061000042595, 2.596974099986255, 3.0887737000593916, 3.3636901000281796]"	89.04320249997545	89.04899579996709	90.54097249999177	90.53310939995572								34	02	2024-02-27_11h16.58.257	BART_exp	2023.2.3	122.52484508976019	2024-02-27 11h17.07.309930 +0100	
balloon.png	62	0	7	7	14	90.54097249999177													90.53332829999272	90.54097249999177	90.54097249999177	90.54097249999177	90.54097249999177	90.54097249999177	0.005858000018633902	0.005858000018633902	0.005858000018633902	90.54097249999177	95.39324729994405	17	0.85	False	"[-0.046296296296296294, -0.046296296296296294, -0.046296296296296294, -0.046296296296296294, -0.046296296296296294, -0.046296296296296294, -0.046296296296296294, -0.046296296296296294, -0.046296296296296294, -0.046296296296296294, -0.046296296296296294, -0.046296296296296294, -0.046296296296296294, -0.046296296296296294, -0.046296296296296294, -0.046296296296296294, -0.046296296296296294, -0.046296296296296294]"	"[-0.3712962962962963, -0.3712962962962963, -0.3712962962962963, -0.3712962962962963, -0.3712962962962963, -0.3712962962962963, -0.37222222222222223, -0.37222222222222223, -0.37222222222222223, -0.37222222222222223, -0.37222222222222223, -0.37222222222222223, -0.37222222222222223, -0.37222222222222223, -0.37222222222222223, -0.37222222222222223, -0.37222222222222223, -0.37222222222222223]"	"[1, 1, 1, 1, 1, 1, 1, 1, 1, 1, 1, 1, 1, 1, 1, 1, 1, 0]"	"[0, 0, 0, 0, 0, 0, 0, 0, 0, 0, 0, 0, 0, 0, 0, 0, 0, 0]"	"[0, 0, 0, 0, 0, 0, 0, 0, 0, 0, 0, 0, 0, 0, 0, 0, 0, 1]"	"[0.28386609989684075, 0.4417160999728367, 0.7581937999930233, 0.9748388999141753, 1.1295422998955473, 1.312784899957478, 1.571195499971509, 1.80160749994684, 2.0003138999454677, 2.2085234998958185, 2.4165532999904826, 2.6085263999411836, 2.799898299970664, 3.0585924999322742, 3.3417169000022113, 3.7682230999926105, 4.308428399963304, 4.85875729995314]"	18	"[0.28159629995934665, 0.4394295000238344, 0.7559089999413118, 0.9725490999408066, 1.1272678000386804, 1.3104991000145674, 1.5689313999610022, 1.7994948000414297, 1.9983009999850765, 2.2062682999530807, 2.414303599973209, 2.606255999999121, 2.7976094000041485, 3.056309700012207, 3.3394330999581143, 3.7662151999538764, 4.3061371999792755, 4.856439299997874]"	"[0.3815080999629572, 0.6724177999421954, 0.8647422000067309, 1.0392108999658376, 1.226968599949032, 1.4268530999543145, 1.6811304000439122, 1.8976290000136942, 2.0976272999541834, 2.2892638000193983, 2.489290999947116, 2.6808649000013247, 2.872617600020021, 3.164207199937664, 3.4475682999473065, 3.872683099936694, 4.464517800020985, 4.856443800032139]"	95.39419709995855	95.39935519988649	96.89127209992148	96.88332619995344								34	02	2024-02-27_11h16.58.257	BART_exp	2023.2.3	122.52484508976019	2024-02-27 11h17.07.309930 +0100	
balloon.png	66	0	8	8	15	96.89127209992148													96.88355169992428	96.89127209992148	96.89127209992148	96.89127209992148	96.89127209992148	96.89127209992148	0.005295700044371188	0.005295700044371188	0.005295700044371188	96.89127209992148	100.727609799942	17	0.85	False	"[-0.041666666666666664, -0.041666666666666664, -0.041666666666666664, -0.041666666666666664, -0.041666666666666664, -0.041666666666666664, -0.041666666666666664, -0.041666666666666664, -0.041666666666666664, -0.041666666666666664, -0.041666666666666664, -0.041666666666666664, -0.041666666666666664, -0.041666666666666664, -0.041666666666666664, -0.041666666666666664, -0.041666666666666664, -0.041666666666666664]"	"[-0.40555555555555556, -0.40555555555555556, -0.40555555555555556, -0.40555555555555556, -0.40555555555555556, -0.40555555555555556, -0.40555555555555556, -0.40555555555555556, -0.40555555555555556, -0.40555555555555556, -0.40555555555555556, -0.40555555555555556, -0.40555555555555556, -0.40555555555555556, -0.40555555555555556, -0.40555555555555556, -0.40555555555555556, -0.40555555555555556]"	"[1, 1, 1, 1, 1, 1, 1, 1, 1, 1, 1, 1, 1, 1, 1, 1, 1, 0]"	"[0, 0, 0, 0, 0, 0, 0, 0, 0, 0, 0, 0, 0, 0, 0, 0, 0, 0]"	"[0, 0, 0, 0, 0, 0, 0, 0, 0, 0, 0, 0, 0, 0, 0, 0, 0, 1]"	"[0.4251345000229776, 0.58351390005555, 0.7420179999899119, 0.8836382000008598, 1.1752170999534428, 1.3254638999933377, 1.500335399992764, 1.6588201000122353, 1.8253920000279322, 1.9919911000179127, 2.1668083999538794, 2.342072800034657, 2.550222699996084, 2.750189400045201, 2.966894799959846, 3.1835687999846414, 3.533819100004621, 3.8427920000394806]"	18	"[0.4227245000656694, 0.5810951000312343, 0.7396113000577316, 0.8812258000252768, 1.1728086000075564, 1.323069900041446, 1.4979450000682846, 1.6564302999759093, 1.8229748000157997, 1.9895858999807388, 2.16438690002542, 2.339663799968548, 2.5478080000029877, 2.7477768000680953, 2.9644771000603214, 3.1811532999854535, 3.5314060000237077, 3.8403583000181243]"	"[0.5059254000661895, 0.6726685999892652, 0.8309512999840081, 1.0976277999579906, 1.2726858999812976, 1.4309776000445709, 1.572773199994117, 1.7561242000665516, 1.9143286000471562, 2.089493600069545, 2.2561854000668973, 2.4229554999619722, 2.63107470003888, 2.8476829000283033, 3.047697199974209, 3.239950399962254, 3.6313417999772355, 3.8403628000523895]"	100.7285877999384	100.73312649992295	102.22483749990351	102.21702679991722								34	02	2024-02-27_11h16.58.257	BART_exp	2023.2.3	122.52484508976019	2024-02-27 11h17.07.309930 +0100	
balloon.png	49	0	9	9	11	102.22483749990351													102.21725669992156	102.22483749990351	102.22483749990351	102.22483749990351	102.22483749990351	102.22483749990351	0.004649400012567639	0.004649400012567639	0.004649400012567639	102.22483749990351	106.01890449994244	20	1.00	False	"[-0.03888888888888889, -0.03888888888888889, -0.03888888888888889, -0.03796296296296296, -0.03796296296296296, -0.03796296296296296, -0.03796296296296296, -0.03796296296296296, -0.03796296296296296, -0.03796296296296296, -0.03796296296296296, -0.03796296296296296, -0.03796296296296296, -0.03796296296296296, -0.03796296296296296, -0.03796296296296296, -0.03796296296296296, -0.03796296296296296, -0.03796296296296296, -0.03796296296296296, -0.03796296296296296]"	"[-0.37777777777777777, -0.37777777777777777, -0.37777777777777777, -0.37777777777777777, -0.37777777777777777, -0.37777777777777777, -0.37777777777777777, -0.37777777777777777, -0.37777777777777777, -0.37777777777777777, -0.37777777777777777, -0.37777777777777777, -0.37777777777777777, -0.37777777777777777, -0.37777777777777777, -0.37777777777777777, -0.37777777777777777, -0.37777777777777777, -0.37777777777777777, -0.37777777777777777, -0.37777777777777777]"	"[1, 1, 1, 1, 1, 1, 1, 1, 1, 1, 1, 1, 1, 1, 1, 1, 1, 1, 1, 1, 0]"	"[0, 0, 0, 0, 0, 0, 0, 0, 0, 0, 0, 0, 0, 0, 0, 0, 0, 0, 0, 0, 0]"	"[0, 0, 0, 0, 0, 0, 0, 0, 0, 0, 0, 0, 0, 0, 0, 0, 0, 0, 0, 0, 1]"	"[0.2500879999715835, 0.39182589994743466, 0.5251694000326097, 0.67497229995206, 0.8250117000425234, 0.9751746000256389, 1.1169777000322938, 1.2501278000418097, 1.3752286999952048, 1.5253242999315262, 1.7170839000027627, 1.8251393999671564, 1.9504393000388518, 2.117165599949658, 2.291910200030543, 2.4503850999753922, 2.6670024000341073, 2.9504573999438435, 3.133920899941586, 3.317174999974668, 3.800521899946034]"	21	"[0.24772260000463575, 0.3894609999842942, 0.5228089999873191, 0.672608399996534, 0.8226446000626311, 0.9728095000609756, 1.1146379000274464, 1.2477660999866202, 1.372865500045009, 1.5229674000293016, 1.7147318000206724, 1.8227779000299051, 1.9480825000209734, 2.1148354000179097, 2.2895457999547943, 2.448021400021389, 2.66463669994846, 2.9481070999754593, 3.131613999954425, 3.3148225999902934, 3.798113700002432]"	"[0.3310050000436604, 0.49764239997603, 0.6225321999518201, 0.7476358000421897, 0.8976012000348419, 1.0558733999496326, 1.1726357999723405, 1.3143330999882892, 1.4559522999916226, 1.6144019999774173, 1.764398799976334, 1.8811299999943003, 2.064431400038302, 2.231128199957311, 2.3977975000161678, 2.547841800027527, 2.7644163999939337, 3.056110000004992, 3.2645113000180572, 3.422983100055717, 3.7981181000359356]"	106.01990839990322	106.02509699994698	107.51692749990616	107.50909179996233								34	02	2024-02-27_11h16.58.257	BART_exp	2023.2.3	122.52484508976019	2024-02-27 11h17.07.309930 +0100	
balloon.png	27	0	10	10	6	107.51692749990616													107.50932569999713	107.51692749990616	107.51692749990616	107.51692749990616	107.51692749990616	107.51692749990616	0.005349099985323846	0.005349099985323846	0.005349099985323846	107.51692749990616	112.22743369999807	22	1.10	False	"[-0.032407407407407406, -0.032407407407407406, -0.032407407407407406, -0.032407407407407406, -0.032407407407407406, -0.032407407407407406, -0.032407407407407406, -0.032407407407407406, -0.032407407407407406, -0.032407407407407406, -0.032407407407407406, -0.032407407407407406, -0.032407407407407406, -0.032407407407407406, -0.032407407407407406, -0.032407407407407406, -0.032407407407407406, -0.032407407407407406, -0.032407407407407406, -0.032407407407407406, -0.032407407407407406, -0.032407407407407406, -0.032407407407407406]"	"[-0.36944444444444446, -0.36944444444444446, -0.36944444444444446, -0.36944444444444446, -0.36944444444444446, -0.36944444444444446, -0.36944444444444446, -0.36944444444444446, -0.36944444444444446, -0.36944444444444446, -0.36944444444444446, -0.36944444444444446, -0.36944444444444446, -0.36944444444444446, -0.36944444444444446, -0.36944444444444446, -0.36944444444444446, -0.36944444444444446, -0.36944444444444446, -0.36944444444444446, -0.36944444444444446, -0.36944444444444446, -0.36944444444444446]"	"[1, 1, 1, 1, 1, 1, 1, 1, 1, 1, 1, 1, 1, 1, 1, 1, 1, 1, 1, 1, 1, 1, 0]"	"[0, 0, 0, 0, 0, 0, 0, 0, 0, 0, 0, 0, 0, 0, 0, 0, 0, 0, 0, 0, 0, 0, 0]"	"[0, 0, 0, 0, 0, 0, 0, 0, 0, 0, 0, 0, 0, 0, 0, 0, 0, 0, 0, 0, 0, 0, 1]"	"[0.28354770003352314, 0.4420633000554517, 0.5918271000264212, 0.750088700093329, 0.8835213000420481, 1.0423093000426888, 1.259036000003107, 1.4169478000840172, 1.5833810000913218, 1.7503006000770256, 1.9254394000163302, 2.092411700054072, 2.2503075000131503, 2.4256192001048476, 2.602659000083804, 2.8755950001068413, 3.0588078000582755, 3.258906500064768, 3.4670619000680745, 3.667085500084795, 3.9252749000443146, 4.325268100015819, 4.71700150007382]"	23	"[0.2812049000058323, 0.43973430001642555, 0.5894548000069335, 0.7477158000692725, 0.8811494000256062, 1.039949300000444, 1.256672800052911, 1.4145766000729054, 1.5810086000710726, 1.7479234000202268, 1.923084000009112, 2.0900970000075176, 2.247938900021836, 2.423358800006099, 2.600278600002639, 2.8734631000552326, 3.0566284999949858, 3.2566590000642464, 3.464694600086659, 3.6647161000873893, 3.9229003000073135, 4.3229206000687554, 4.714566100039519]"	"[0.3726411000825465, 0.5475442000897601, 0.6727411000756547, 0.830905899987556, 0.9729034000774845, 1.0897014000220224, 1.3398885000497103, 1.5142434000736102, 1.6731100999750197, 1.847715700045228, 1.9976069000549614, 2.1564316999865696, 2.339507600059733, 2.531005800003186, 2.7143278000876307, 2.9728842000477016, 3.147691300022416, 3.3477004000451416, 3.5894451000494882, 3.77271540008951, 4.006068299990147, 4.414457399980165, 4.7145703000715]"	112.22852729994338	112.23389589996077	113.7258294998901	113.71792099997401								34	02	2024-02-27_11h16.58.257	BART_exp	2023.2.3	122.52484508976019	2024-02-27 11h17.07.309930 +0100	
balloon.png	57	0	11	11	13	113.7258294998901													113.71813009993639	113.7258294998901	113.7258294998901	113.7258294998901	113.7258294998901	113.7258294998901	0.005481700063683093	0.005481700063683093	0.005481700063683093	113.7258294998901	119.92009499995038	24	1.20	False	"[-0.025925925925925925, -0.028703703703703703, -0.02962962962962963, -0.02962962962962963, -0.04259259259259259, -0.04259259259259259, -0.04259259259259259, -0.041666666666666664, -0.041666666666666664, -0.041666666666666664, -0.041666666666666664, -0.041666666666666664, -0.040740740740740744, -0.040740740740740744, -0.040740740740740744, -0.040740740740740744, -0.040740740740740744, -0.040740740740740744, -0.040740740740740744, -0.040740740740740744, -0.040740740740740744, -0.040740740740740744, -0.040740740740740744, -0.040740740740740744, -0.040740740740740744]"	"[-0.3592592592592593, -0.36944444444444446, -0.3731481481481482, -0.3731481481481482, -0.37777777777777777, -0.37777777777777777, -0.37777777777777777, -0.37777777777777777, -0.37777777777777777, -0.37777777777777777, -0.37777777777777777, -0.37777777777777777, -0.37777777777777777, -0.37777777777777777, -0.37777777777777777, -0.37777777777777777, -0.37777777777777777, -0.37777777777777777, -0.37777777777777777, -0.37777777777777777, -0.37777777777777777, -0.37777777777777777, -0.37777777777777777, -0.37777777777777777, -0.37777777777777777]"	"[1, 1, 1, 1, 1, 1, 1, 1, 1, 1, 1, 1, 1, 1, 1, 1, 1, 1, 1, 1, 1, 1, 1, 1, 0]"	"[0, 0, 0, 0, 0, 0, 0, 0, 0, 0, 0, 0, 0, 0, 0, 0, 0, 0, 0, 0, 0, 0, 0, 0, 0]"	"[0, 0, 0, 0, 0, 0, 0, 0, 0, 0, 0, 0, 0, 0, 0, 0, 0, 0, 0, 0, 0, 0, 0, 0, 1]"	"[0.32493309990968555, 0.6336427999194711, 0.8501844999846071, 1.033577499911189, 1.2752939999336377, 1.483347799978219, 1.6928031999850646, 1.9000603999011219, 2.125174899934791, 2.3251635999185964, 2.5334616999607533, 2.7252995999297127, 2.941889699897729, 3.1752735999180004, 3.4170060999458656, 3.6256831999635324, 3.833852899959311, 4.066909099929035, 4.3169407999375835, 4.602240299922414, 4.86688799993135, 5.133675799937919, 5.4171636999817565, 5.7169751999899745, 6.200772799900733]"	25	"[0.3226290000602603, 0.6313573000952601, 0.847884500049986, 1.0312707000412047, 1.2730080001056194, 1.4810345000587404, 1.6906744000734761, 1.8977570000570267, 2.1228705000830814, 2.322856800048612, 2.5311515000648797, 2.72299500007648, 2.9395983000285923, 3.17297190008685, 3.4147012000903487, 3.6233792999992147, 3.83178820007015, 4.064606200088747, 4.314629300031811, 4.600055400049314, 4.864580300054513, 5.131364900036715, 5.414863600046374, 5.714662400074303, 6.1984226000495255]"	"[0.42253960005473346, 0.7226004000985995, 0.9475936000235379, 1.114272200036794, 1.380937600042671, 1.564308900036849, 1.7809794000349939, 2.01430280006025, 2.2227762000402436, 2.4061716001015157, 2.5894561000168324, 2.822824600036256, 3.0311103001004085, 3.289550500106998, 3.506316600018181, 3.714436700101942, 3.9312112000770867, 4.131142100086436, 4.414474800112657, 4.690490700071678, 4.956710600061342, 5.231193900108337, 5.531213300069794, 5.831221600063145, 6.198427600087598]"	119.92123279999942	119.92604089993984	121.41856389993336	121.40996719989926								34	02	2024-02-27_11h16.58.257	BART_exp	2023.2.3	122.52484508976019	2024-02-27 11h17.07.309930 +0100	
balloon.png	92	0	12	12	21	121.41856389993336													121.41017489996739	121.41856389993336	121.41856389993336	121.41856389993336	121.41856389993336	121.41856389993336	0.0049233000027015805	0.0049233000027015805	0.0049233000027015805	121.41856389993336	130.72962439991534	27	1.35	False	"[-0.027777777777777776, -0.027777777777777776, -0.027777777777777776, -0.027777777777777776, -0.027777777777777776, -0.027777777777777776, -0.027777777777777776, -0.027777777777777776, -0.027777777777777776, -0.027777777777777776, -0.027777777777777776, -0.026851851851851852, -0.025, -0.025, -0.025, -0.025, -0.025, -0.025, -0.025, -0.025, -0.025, -0.025, -0.025, -0.025, -0.025, -0.025, -0.025, -0.025]"	"[-0.3685185185185185, -0.3685185185185185, -0.3685185185185185, -0.3685185185185185, -0.3685185185185185, -0.3685185185185185, -0.3685185185185185, -0.3685185185185185, -0.3685185185185185, -0.3685185185185185, -0.3685185185185185, -0.3685185185185185, -0.3685185185185185, -0.3685185185185185, -0.3685185185185185, -0.3685185185185185, -0.3685185185185185, -0.3685185185185185, -0.3685185185185185, -0.3685185185185185, -0.3685185185185185, -0.3685185185185185, -0.3685185185185185, -0.3685185185185185, -0.3685185185185185, -0.3685185185185185, -0.3685185185185185, -0.3685185185185185]"	"[1, 1, 1, 1, 1, 1, 1, 1, 1, 1, 1, 1, 1, 1, 1, 1, 1, 1, 1, 1, 1, 1, 1, 1, 1, 1, 1, 0]"	"[0, 0, 0, 0, 0, 0, 0, 0, 0, 0, 0, 0, 0, 0, 0, 0, 0, 0, 0, 0, 0, 0, 0, 0, 0, 0, 0, 0]"	"[0, 0, 0, 0, 0, 0, 0, 0, 0, 0, 0, 0, 0, 0, 0, 0, 0, 0, 0, 0, 0, 0, 0, 0, 0, 0, 0, 1]"	"[0.2920270999893546, 0.45845520007424057, 0.6418938999995589, 0.8252015000907704, 1.016732900054194, 1.2001127999974415, 1.3752755000023171, 1.5670304000377655, 1.7835757000138983, 1.9919089000904933, 2.200219799997285, 3.33387319999747, 3.7173204000573605, 4.067359699984081, 4.50066300004255, 4.825650200014934, 5.059187900042161, 5.776067400001921, 6.233801900059916, 6.575775400036946, 6.858972700079903, 7.225594700081274, 7.509205900016241, 7.809087000088766, 8.158987100003287, 8.592300400021486, 8.925824300036766, 9.318059300072491]"	28	"[0.2890344000188634, 0.45545460004359484, 0.6389016000321135, 0.822197400033474, 1.0137227000668645, 1.1970994001021609, 1.3722720000660047, 1.564029400004074, 1.780566000030376, 1.9889059000415727, 2.197217300068587, 3.3308768001152202, 3.714316000114195, 4.064378700102679, 4.497671500081196, 4.822642400045879, 5.056184100103565, 5.773098300094716, 6.230794300092384, 6.572842100053094, 6.85603240004275, 7.222626600065269, 7.50627060001716, 7.806112300022505, 8.15598190005403, 8.58929670008365, 8.92281570006162, 9.315180400037207]"	"[0.3720499000046402, 0.5720838000997901, 0.746962400036864, 0.9303072000620887, 1.1221362000796944, 1.297034400049597, 1.4803839001106098, 1.66378230007831, 1.8888195001054555, 2.097118300036527, 2.305603100103326, 3.438984000007622, 3.8223269000882283, 4.172370900050737, 4.613920000032522, 4.939324000035413, 5.139430300099775, 5.930659300065599, 6.314077400020324, 6.680803200113587, 6.939238400082104, 7.297462200047448, 7.59752720000688, 7.905775700113736, 8.26422030001413, 8.672523500048555, 9.022557100048289, 9.315189700108021]"	130.73080339992885	130.7351632999489	132.2271018999163	132.21914769988507								34	02	2024-02-27_11h16.58.257	BART_exp	2023.2.3	122.52484508976019	2024-02-27 11h17.07.309930 +0100	
balloon.png	110	0	13	13	25	132.2271018999163													132.21936309989542	132.2271018999163	132.2271018999163	132.2271018999163	132.2271018999163	132.2271018999163	0.004473300068639219	0.004473300068639219	0.004473300068639219	132.2271018999163	138.02084019989707	27	1.35	False	"[-0.024074074074074074, -0.024074074074074074, -0.024074074074074074, -0.026851851851851852, -0.026851851851851852, -0.026851851851851852, -0.026851851851851852, -0.026851851851851852, -0.026851851851851852, -0.026851851851851852, -0.026851851851851852, -0.026851851851851852, -0.026851851851851852, -0.026851851851851852, -0.026851851851851852, -0.026851851851851852, -0.026851851851851852, -0.026851851851851852, -0.026851851851851852, -0.026851851851851852, -0.026851851851851852, -0.026851851851851852, -0.026851851851851852, -0.026851851851851852, -0.026851851851851852, -0.026851851851851852, -0.026851851851851852, -0.02962962962962963]"	"[-0.3972222222222222, -0.39444444444444443, -0.39537037037037037, -0.4009259259259259, -0.4009259259259259, -0.4009259259259259, -0.4009259259259259, -0.4009259259259259, -0.4009259259259259, -0.4009259259259259, -0.4009259259259259, -0.4009259259259259, -0.4009259259259259, -0.4009259259259259, -0.4009259259259259, -0.4009259259259259, -0.4009259259259259, -0.4009259259259259, -0.4009259259259259, -0.40185185185185185, -0.4027777777777778, -0.4027777777777778, -0.4027777777777778, -0.4027777777777778, -0.4027777777777778, -0.4027777777777778, -0.4027777777777778, -0.4009259259259259]"	"[1, 1, 1, 1, 1, 1, 1, 1, 1, 1, 1, 1, 1, 1, 1, 1, 1, 1, 1, 1, 1, 1, 1, 1, 1, 1, 1, 0]"	"[0, 0, 0, 0, 0, 0, 0, 0, 0, 0, 0, 0, 0, 0, 0, 0, 0, 0, 0, 0, 0, 0, 0, 0, 0, 0, 0, 0]"	"[0, 0, 0, 0, 0, 0, 0, 0, 0, 0, 0, 0, 0, 0, 0, 0, 0, 0, 0, 0, 0, 0, 0, 0, 0, 0, 0, 1]"	"[0.4167585000395775, 0.6421820000978187, 0.8084008001023903, 0.9751872000051662, 1.125454100081697, 1.2919908000621945, 1.441988700069487, 1.6251657000975683, 1.8168709001038224, 2.000073700095527, 2.158532900037244, 2.3420948000857607, 2.5422676000744104, 2.7254835000494495, 2.9089308000402525, 3.1256787000456825, 3.333905400009826, 3.5425386000424623, 3.759276100085117, 3.9502058000070974, 4.175797600066289, 4.383545000106096, 4.633585200062953, 4.8169850000413135, 5.016931400052272, 5.208834900055081, 5.441976300091483, 5.800422100001015]"	28	"[0.4143892000429332, 0.6398762000026181, 0.8060303000966087, 0.9728211000328884, 1.1231107000494376, 1.2896312000229955, 1.4396363000851125, 1.6227912000613287, 1.8144966000691056, 1.9977021000813693, 2.1561591000063345, 2.3397383000701666, 2.5399290000787005, 2.7231341000879183, 2.9065691999858245, 3.1233152000932023, 3.3315324999857694, 3.540198800037615, 3.7569350000703707, 3.9478370000142604, 4.173478799988516, 4.381175599992275, 4.631218400085345, 4.814613200025633, 5.0145621000556275, 5.206531000090763, 5.439646800048649, 5.797991800005548]"	"[0.5225882000522688, 0.739306400064379, 0.889332800055854, 1.0642357000615448, 1.2309772000880912, 1.3726716000819579, 1.5476090000011027, 1.7227270000148565, 1.8894136000890285, 2.056061299983412, 2.247646200004965, 2.4309855999890715, 2.6309968000277877, 2.814317199983634, 3.0063060000538826, 3.206421200069599, 3.431101100053638, 3.631046900060028, 3.8403695999877527, 4.0477283000946045, 4.273194400011562, 4.473054200061597, 4.706405800068751, 4.889719600090757, 5.064489200012758, 5.322868400020525, 5.514537499984726, 5.79799610003829]"	138.02201299997978	138.02732409990858	139.5217714998871	139.51310309988912								34	02	2024-02-27_11h16.58.257	BART_exp	2023.2.3	122.52484508976019	2024-02-27 11h17.07.309930 +0100	
balloon.png	71	0	14	14	16	139.5217714998871													139.5133608999895	139.5217714998871	139.5217714998871	139.5217714998871	139.5217714998871	139.5217714998871	-0.00016419996973127127	-0.00016419996973127127	-0.00016419996973127127	139.5217714998871	143.17955559992697	18	0.90	False	"[-0.03148148148148148, -0.03148148148148148, -0.03148148148148148, -0.032407407407407406, -0.032407407407407406, -0.032407407407407406, -0.032407407407407406, -0.032407407407407406, -0.032407407407407406, -0.032407407407407406, -0.032407407407407406, -0.032407407407407406, -0.032407407407407406, -0.032407407407407406, -0.032407407407407406, -0.032407407407407406, -0.032407407407407406, -0.032407407407407406, -0.032407407407407406]"	"[-0.40185185185185185, -0.40185185185185185, -0.40370370370370373, -0.40370370370370373, -0.40370370370370373, -0.40370370370370373, -0.40370370370370373, -0.40370370370370373, -0.40370370370370373, -0.40370370370370373, -0.40370370370370373, -0.40370370370370373, -0.40370370370370373, -0.40370370370370373, -0.40370370370370373, -0.40370370370370373, -0.40370370370370373, -0.40370370370370373, -0.40370370370370373]"	"[1, 1, 1, 1, 1, 1, 1, 1, 1, 1, 1, 1, 1, 1, 1, 1, 1, 1, 0]"	"[0, 0, 0, 0, 0, 0, 0, 0, 0, 0, 0, 0, 0, 0, 0, 0, 0, 0, 0]"	"[0, 0, 0, 0, 0, 0, 0, 0, 0, 0, 0, 0, 0, 0, 0, 0, 0, 0, 1]"	"[0.28949250001460314, 0.47297460003755987, 0.6397858000127599, 0.8064953000284731, 0.9647843999555334, 1.1231671000132337, 1.2645994999911636, 1.4147588999476284, 1.748137400019914, 1.923003299976699, 2.0729948999360204, 2.2563793000299484, 2.431502199964598, 2.598168299999088, 2.7648382999468595, 2.931338299997151, 3.07320769992657, 3.323150199954398, 3.6647713999263942]"	19	"[0.2866452999878675, 0.47012850001920015, 0.6369502999586985, 0.8036552999401465, 0.9619254999561235, 1.1203130999347195, 1.261739099980332, 1.4119563999120146, 1.7452852999558672, 1.9201728999614716, 2.070135499932803, 2.253535599913448, 2.4286471999948844, 2.595319499960169, 2.7619849999900907, 2.928484099917114, 3.070351199945435, 3.320293099968694, 3.6618453999981284]"	"[0.36997289990540594, 0.5448257999960333, 0.7281635999679565, 0.8949615999590605, 1.0368841999443248, 1.1869346000021324, 1.3472629999741912, 1.6616144999861717, 1.8282719999551773, 2.0534092999296263, 2.178343900013715, 2.353420399944298, 2.528357299976051, 2.686810199986212, 2.8536851999815553, 3.0035045999102294, 3.1201983999926597, 3.4202640999574214, 3.6618496999144554]"	143.18052659998648	143.1860029998934	144.67830779997166	144.67043969989754								34	02	2024-02-27_11h16.58.257	BART_exp	2023.2.3	122.52484508976019	2024-02-27 11h17.07.309930 +0100	
balloon.png	101	0	15	15	23	144.67830779997166													144.6706524998881	144.67830779997166	144.67830779997166	144.67830779997166	144.67830779997166	144.67830779997166	0.0056180000538006425	0.0056180000538006425	0.0056180000538006425	144.67830779997166	149.22393139998894	21	1.05	False	"[-0.05185185185185185, -0.05185185185185185, -0.05185185185185185, -0.05185185185185185, -0.05185185185185185, -0.05185185185185185, -0.05185185185185185, -0.05185185185185185, -0.05185185185185185, -0.05185185185185185, -0.05185185185185185, -0.05185185185185185, -0.05185185185185185, -0.05092592592592592, -0.05092592592592592, -0.05092592592592592, -0.05092592592592592, -0.05092592592592592, -0.05092592592592592, -0.05092592592592592, -0.05092592592592592, -0.05092592592592592]"	"[-0.37592592592592594, -0.37592592592592594, -0.37592592592592594, -0.37592592592592594, -0.37592592592592594, -0.37592592592592594, -0.37592592592592594, -0.37592592592592594, -0.37592592592592594, -0.37592592592592594, -0.37592592592592594, -0.37592592592592594, -0.37592592592592594, -0.37592592592592594, -0.37592592592592594, -0.37592592592592594, -0.37592592592592594, -0.37592592592592594, -0.37592592592592594, -0.37592592592592594, -0.37592592592592594, -0.37592592592592594]"	"[1, 1, 1, 1, 1, 1, 1, 1, 1, 1, 1, 1, 1, 1, 1, 1, 1, 1, 1, 1, 1, 0]"	"[0, 0, 0, 0, 0, 0, 0, 0, 0, 0, 0, 0, 0, 0, 0, 0, 0, 0, 0, 0, 0, 0]"	"[0, 0, 0, 0, 0, 0, 0, 0, 0, 0, 0, 0, 0, 0, 0, 0, 0, 0, 0, 0, 0, 1]"	"[0.2745506000937894, 0.45042030001059175, 0.6007910000625998, 0.7665982000762597, 0.933314900030382, 1.111210500006564, 1.2746457000030205, 1.4670525999972597, 1.6579687000485137, 1.8334186000283808, 2.024847900029272, 2.2332233000779524, 2.4249791000038385, 2.6333790000062436, 2.866626000031829, 3.0332683000015095, 3.2499224999919534, 3.4333029000554234, 3.683034799993038, 3.866594100021757, 4.133111700066365, 4.551847000024281]"	22	"[0.2721373999956995, 0.44805359991732985, 0.5984394999686629, 0.7642066999105737, 0.930940099991858, 1.10879319999367, 1.2722343999193981, 1.464789199992083, 1.6555618999991566, 1.8312642999226227, 2.022444100002758, 2.2308614999055862, 2.422579799895175, 2.6310282999183983, 2.864214799948968, 3.0308689998928457, 3.247534599970095, 3.4309001999208704, 3.6806231999071315, 3.8641770998947322, 4.130717599997297, 4.549491099896841]"	"[0.3553392000030726, 0.5386841999134049, 0.7141430999618024, 0.897620499948971, 1.0387649999465793, 1.1972563999006525, 1.380604299949482, 1.5640433999942616, 1.7388675999827683, 1.9388170999009162, 2.138875399949029, 2.3221680999267846, 2.4971393999876454, 2.74716389994137, 2.9222735998919234, 3.130510999937542, 3.330542799900286, 3.5389375999802724, 3.7805763999931514, 3.9556638998910785, 4.239172299974598, 4.549498299951665]"	149.2250574999489	149.2288397999946	150.7199439998949	150.7120455999393								34	02	2024-02-27_11h16.58.257	BART_exp	2023.2.3	122.52484508976019	2024-02-27 11h17.07.309930 +0100	
balloon.png	79	0	16	16	18	150.7199439998949													150.71227909997106	150.7199439998949	150.7199439998949	150.7199439998949	150.7199439998949	150.7199439998949	0.003123000031337142	0.003123000031337142	0.003123000031337142	150.7199439998949	156.43901519989595	29	1.45	False	"[-0.05, -0.05, -0.05, -0.05, -0.049074074074074076, -0.049074074074074076, -0.049074074074074076, -0.049074074074074076, -0.049074074074074076, -0.049074074074074076, -0.049074074074074076, -0.049074074074074076, -0.049074074074074076, -0.049074074074074076, -0.049074074074074076, -0.049074074074074076, -0.049074074074074076, -0.049074074074074076, -0.049074074074074076, -0.049074074074074076, -0.049074074074074076, -0.049074074074074076, -0.049074074074074076, -0.049074074074074076, -0.049074074074074076, -0.049074074074074076, -0.049074074074074076, -0.049074074074074076, -0.049074074074074076, -0.049074074074074076]"	"[-0.37222222222222223, -0.37222222222222223, -0.37222222222222223, -0.37222222222222223, -0.37222222222222223, -0.37222222222222223, -0.37222222222222223, -0.37222222222222223, -0.37222222222222223, -0.37222222222222223, -0.37222222222222223, -0.37222222222222223, -0.37222222222222223, -0.37222222222222223, -0.37222222222222223, -0.37222222222222223, -0.37222222222222223, -0.37222222222222223, -0.37222222222222223, -0.37222222222222223, -0.37222222222222223, -0.37222222222222223, -0.37222222222222223, -0.37222222222222223, -0.37222222222222223, -0.37222222222222223, -0.37222222222222223, -0.37222222222222223, -0.37222222222222223, -0.37222222222222223]"	"[1, 1, 1, 1, 1, 1, 1, 1, 1, 1, 1, 1, 1, 1, 1, 1, 1, 1, 1, 1, 1, 1, 1, 1, 1, 1, 1, 1, 1, 0]"	"[0, 0, 0, 0, 0, 0, 0, 0, 0, 0, 0, 0, 0, 0, 0, 0, 0, 0, 0, 0, 0, 0, 0, 0, 0, 0, 0, 0, 0, 0]"	"[0, 0, 0, 0, 0, 0, 0, 0, 0, 0, 0, 0, 0, 0, 0, 0, 0, 0, 0, 0, 0, 0, 0, 0, 0, 0, 0, 0, 0, 1]"	"[0.2668019999982789, 0.49167530005797744, 0.6252141000004485, 0.7918951000319794, 0.9419436000753194, 1.1250328000169247, 1.30841080006212, 1.4835699000395834, 1.7671474000671878, 1.9338437000988051, 2.116995600052178, 2.291861900012009, 2.475199400098063, 2.633460000040941, 2.8251839000731707, 3.025191600085236, 3.201029199990444, 3.3844446000875905, 3.5420986000681296, 3.719133500009775, 3.9006018000654876, 4.06710640003439, 4.275312000070699, 4.4672428000485525, 4.633873000042513, 4.801213000086136, 4.975512300035916, 5.167232500039972, 5.350560500053689, 5.725610300083645]"	30	"[0.26448069990146905, 0.4893562999786809, 0.6228945999173447, 0.7895800999831408, 0.9396361999679357, 1.1227084000129253, 1.3060920999851078, 1.4812547999899834, 1.7648465000092983, 1.9315456999465823, 2.114680099999532, 2.2895393999060616, 2.47287579998374, 2.6311369999311864, 2.822865099995397, 3.0228755999123678, 3.1987495999783278, 3.382173999911174, 3.5397906999569386, 3.7171302000060678, 3.8983130999840796, 4.0648516999790445, 4.272990699973889, 4.465016599977389, 4.631702899932861, 4.799278699909337, 4.973194399964996, 5.164963599992916, 5.348293999908492, 5.723233799915761]"	"[0.36425250000320375, 0.5310245999135077, 0.705945499939844, 0.8560159999178723, 1.047780399909243, 1.2226712999399751, 1.4059972999384627, 1.5478376999963075, 1.8478417999576777, 2.0560282999649644, 2.214596699923277, 2.3980067999800667, 2.5480746999382973, 2.7394514000043273, 2.922744399984367, 3.1061107999412343, 3.272761399974115, 3.4561628999654204, 3.61509420000948, 3.7895062000025064, 3.9648083999054506, 4.148117100005038, 4.348097199923359, 4.547988299978897, 4.715272999950685, 4.898013299913146, 5.056215699994937, 5.289599799900316, 5.456343499943614, 5.723238099948503]"	156.4403782999143	156.44521739997435	157.9397834999254	157.93090019992087								34	02	2024-02-27_11h16.58.257	BART_exp	2023.2.3	122.52484508976019	2024-02-27 11h17.07.309930 +0100	
balloon.png	31	0	17	17	7	157.9397834999254													157.93116859998554	157.9397834999254	157.9397834999254	157.9397834999254	157.9397834999254	157.9397834999254	-0.000522000016644597	-0.000522000016644597	-0.000522000016644597	157.9397834999254	162.9808319999138	22	1.10	False	"[-0.06111111111111111, -0.06111111111111111, -0.05925925925925926, -0.05925925925925926, -0.05925925925925926, -0.05925925925925926, -0.05925925925925926, -0.05925925925925926, -0.05925925925925926, -0.05925925925925926, -0.05925925925925926, -0.05925925925925926, -0.05925925925925926, -0.05925925925925926, -0.05925925925925926, -0.05925925925925926, -0.05925925925925926, -0.05925925925925926, -0.05925925925925926, -0.05925925925925926, -0.05925925925925926, -0.05925925925925926, -0.05925925925925926]"	"[-0.3685185185185185, -0.37037037037037035, -0.3731481481481482, -0.3731481481481482, -0.3731481481481482, -0.3731481481481482, -0.3731481481481482, -0.3731481481481482, -0.3731481481481482, -0.3731481481481482, -0.3731481481481482, -0.3731481481481482, -0.3731481481481482, -0.3731481481481482, -0.3731481481481482, -0.3731481481481482, -0.3731481481481482, -0.3731481481481482, -0.3731481481481482, -0.3731481481481482, -0.3731481481481482, -0.3731481481481482, -0.3731481481481482]"	"[1, 1, 1, 1, 1, 1, 1, 1, 1, 1, 1, 1, 1, 1, 1, 1, 1, 1, 1, 1, 1, 1, 0]"	"[0, 0, 0, 0, 0, 0, 0, 0, 0, 0, 0, 0, 0, 0, 0, 0, 0, 0, 0, 0, 0, 0, 0]"	"[0, 0, 0, 0, 0, 0, 0, 0, 0, 0, 0, 0, 0, 0, 0, 0, 0, 0, 0, 0, 0, 0, 1]"	"[0.26470689999405295, 0.4647532000672072, 0.6647190999938175, 0.8648172999965027, 1.0648006000556052, 1.2815856999950483, 1.456632300047204, 1.6482144000474364, 1.848207400063984, 2.0149200999876484, 2.1815924999536946, 2.331856200005859, 2.4984695999883115, 2.715186499990523, 2.915281099965796, 3.115189200034365, 3.3236654000356793, 3.5403226000489667, 3.8068153000203893, 4.006896500010043, 4.231753600062802, 4.665083599975333, 5.048433499992825]"	23	"[0.26170389994513243, 0.4617454999824986, 0.6617191999685019, 0.8618128999369219, 1.0617975998902693, 1.278581199934706, 1.45363909995649, 1.6452129998942837, 1.8452026998857036, 2.0119218999752775, 2.1785856999922544, 2.3288580999942496, 2.495469699962996, 2.712190999998711, 2.9123104999307543, 3.112195499939844, 3.320672099944204, 3.5373288999544457, 3.803814599988982, 4.003888799925335, 4.228745699976571, 4.662076399894431, 5.045362899894826]"	"[0.3533915999578312, 0.5616138998884708, 0.7701717999298126, 0.9617224999237806, 1.1450485999230295, 1.3534643999300897, 1.5617564999265596, 1.7534945999504998, 1.9118274999782443, 2.0952099999412894, 2.2702426998876035, 2.4618805999634787, 2.6036174999317154, 2.8033985999645665, 3.0035297999856994, 3.2369891999987885, 3.437015099916607, 3.637032299884595, 3.9037505999440327, 4.103906899923459, 4.354020399972796, 4.762245299993083, 5.045367399929091]"	162.9818660999881	162.98740099999122	164.4802065999247	164.47142089996487								34	02	2024-02-27_11h16.58.257	BART_exp	2023.2.3	122.52484508976019	2024-02-27 11h17.07.309930 +0100	
balloon.png	1	0	18	18	0	164.4802065999247													164.47163519996684	164.4802065999247	164.4802065999247	164.4802065999247	164.4802065999247	164.4802065999247	0.005596200004220009	0.005596200004220009	0.005596200004220009	164.4802065999247	165.09831949998625	2	0.05	True	"[-0.062037037037037036, -0.062037037037037036]"	"[-0.362962962962963, -0.362962962962963]"	"[1, 1]"	"[0, 0]"	"[0, 0]"	"[0.34978659998159856, 0.5082444999134168]"	2	"[0.3467355000320822, 0.505152800003998]"	"[0.3799804999725893, 0.613248800043948]"	165.09901599993464	165.1041618998861	166.59677519998513	166.5881037999643								34	02	2024-02-27_11h16.58.257	BART_exp	2023.2.3	122.52484508976019	2024-02-27 11h17.07.309930 +0100	
balloon.png	40	0	19	19	9	166.59677519998513													166.5883272999199	166.59677519998513	166.59677519998513	166.59677519998513	166.59677519998513	166.59677519998513	0.005308800027705729			166.59677519998513	171.23215739999432	22	1.10	False	"[-0.06481481481481481, -0.06296296296296296, -0.06018518518518518, -0.05740740740740741, -0.05648148148148148, -0.05648148148148148, -0.05648148148148148, -0.05648148148148148, -0.05648148148148148, -0.05648148148148148, -0.05648148148148148, -0.05648148148148148, -0.05648148148148148, -0.05648148148148148, -0.05648148148148148, -0.05648148148148148, -0.05648148148148148, -0.05648148148148148, -0.05648148148148148, -0.05648148148148148, -0.05648148148148148, -0.05648148148148148, -0.05648148148148148]"	"[-0.3814814814814815, -0.37777777777777777, -0.37592592592592594, -0.37592592592592594, -0.37592592592592594, -0.37592592592592594, -0.37777777777777777, -0.3787037037037037, -0.3787037037037037, -0.3787037037037037, -0.3787037037037037, -0.3787037037037037, -0.3787037037037037, -0.3787037037037037, -0.3787037037037037, -0.3787037037037037, -0.3787037037037037, -0.37777777777777777, -0.37777777777777777, -0.37777777777777777, -0.37777777777777777, -0.37777777777777777, -0.37777777777777777]"	"[1, 1, 1, 1, 1, 1, 1, 1, 1, 1, 1, 1, 1, 1, 1, 1, 1, 1, 1, 1, 1, 1, 0]"	"[0, 0, 0, 0, 0, 0, 0, 0, 0, 0, 0, 0, 0, 0, 0, 0, 0, 0, 0, 0, 0, 0, 0]"	"[0, 0, 0, 0, 0, 0, 0, 0, 0, 0, 0, 0, 0, 0, 0, 0, 0, 0, 0, 0, 0, 0, 1]"	"[0.49210889998357743, 0.6920910999178886, 0.8669681999599561, 1.0589334999676794, 1.2420424999436364, 1.4254378998884931, 1.6188207999803126, 1.8255869999993593, 2.0337371999630705, 2.2170856999000534, 2.416894899914041, 2.608671299996786, 2.792032399913296, 2.9669347999151796, 3.11711219989229, 3.2756675999844447, 3.4589878999395296, 3.6756601999513805, 3.8256467999890447, 4.009034399990924, 4.208866699947976, 4.408988599898294, 4.642730199964717]"	23	"[0.48949159996118397, 0.689457600004971, 0.8643422999884933, 1.0563216999871656, 1.2394187999889255, 1.4228247000137344, 1.6162205999717116, 1.8229507999494672, 2.0311049999436364, 2.2144727999111637, 2.414264699909836, 2.6060352999484167, 2.7893917999463156, 2.964291999931447, 3.1144841000204906, 3.2730702999979258, 3.456375899957493, 3.673033299972303, 3.823033900000155, 4.006417999975383, 4.206248099915683, 4.40634779992979, 4.640030900016427]"	"[0.6139411999611184, 0.7891665999777615, 0.9640201999573037, 1.1557949999114498, 1.3474600999616086, 1.5392003000015393, 1.747421499923803, 1.939213000005111, 2.139222399913706, 2.3308225999353454, 2.5059272999642417, 2.7059630999574438, 2.8726587999844924, 3.03092559997458, 3.2060162000125274, 3.3561132999602705, 3.522711999947205, 3.7560636999551207, 3.9309368999674916, 4.089437899994664, 4.289481099927798, 4.441402199910954, 4.640035199932754]"	171.23329589993227	171.23791419994086	172.73011079989374	172.72190479992423								34	02	2024-02-27_11h16.58.257	BART_exp	2023.2.3	122.52484508976019	2024-02-27 11h17.07.309930 +0100	
balloon.png	123	0	20	20	28	172.73011079989374													172.72211689990945	172.73011079989374	172.73011079989374	172.73011079989374	172.73011079989374	172.73011079989374	0.004762600059621036	0.004762600059621036	0.004762600059621036	172.73011079989374	177.248764299904	20	1.00	False	"[-0.053703703703703705, -0.05277777777777778, -0.05277777777777778, -0.05277777777777778, -0.05277777777777778, -0.05277777777777778, -0.05277777777777778, -0.05277777777777778, -0.04814814814814815, -0.04722222222222222, -0.046296296296296294, -0.04351851851851852, -0.04351851851851852, -0.04259259259259259, -0.04259259259259259, -0.04259259259259259, -0.04259259259259259, -0.04259259259259259, -0.04259259259259259, -0.04259259259259259, -0.04259259259259259]"	"[-0.38055555555555554, -0.38055555555555554, -0.38055555555555554, -0.38055555555555554, -0.38055555555555554, -0.38055555555555554, -0.38055555555555554, -0.38055555555555554, -0.3814814814814815, -0.3814814814814815, -0.3824074074074074, -0.38333333333333336, -0.3851851851851852, -0.3851851851851852, -0.3851851851851852, -0.3851851851851852, -0.3851851851851852, -0.3851851851851852, -0.3851851851851852, -0.3851851851851852, -0.3851851851851852]"	"[1, 1, 1, 1, 1, 1, 1, 1, 1, 1, 1, 1, 1, 1, 1, 1, 1, 1, 1, 1, 0]"	"[0, 0, 0, 0, 0, 0, 0, 0, 0, 0, 0, 0, 0, 0, 0, 0, 0, 0, 0, 0, 0]"	"[0, 0, 0, 0, 0, 0, 0, 0, 0, 0, 0, 0, 0, 0, 0, 0, 0, 0, 0, 0, 1]"	"[0.30948769999668, 0.5253368000267074, 0.750192999956198, 0.9585828999988735, 1.1668208999326453, 1.383732800022699, 1.5782035000156611, 1.8001433999743313, 2.050208400003612, 2.2750896000070497, 2.4921268000034615, 2.7087885999353603, 2.9004481999436393, 3.1005058999871835, 3.2838049000129104, 3.4838586000259966, 3.675190999987535, 3.9006067999871448, 4.058668199926615, 4.200321299955249, 4.525476399925537]"	21	"[0.30719439999666065, 0.5231120999669656, 0.7478445000015199, 0.9562851999653503, 1.1644821000518277, 1.3813800000352785, 1.5759267000248656, 1.7977995000546798, 2.047860600054264, 2.272799600032158, 2.4898367000278085, 2.706451699952595, 2.8981065000407398, 3.0981797999702394, 3.2814657000126317, 3.4815410999581218, 3.672856800025329, 3.8982753000454977, 4.056329200044274, 4.197970199980773, 4.523065299959853]"	"[0.33085120003670454, 0.6559931000228971, 0.8642358999932185, 1.0725807000417262, 1.2726316000334918, 1.4558796000201255, 1.7059165999526158, 1.9059141000034288, 2.1477677000220865, 2.372663200017996, 2.5892761000432074, 2.789312000037171, 2.981154100038111, 3.205989700043574, 3.389362100046128, 3.547850799979642, 3.6894256999948993, 4.006063599954359, 4.131239800015464, 4.281147500034422, 4.523069599992596]"	177.24983059999067	177.25500409991946	178.74718989990652	178.73897139995825								34	02	2024-02-27_11h16.58.257	BART_exp	2023.2.3	122.52484508976019	2024-02-27 11h17.07.309930 +0100	
balloon.png	36	0	21	21	8	178.74718989990652													178.7391942999093	178.74718989990652	178.74718989990652	178.74718989990652	178.74718989990652	178.74718989990652	0.00527900003362447	0.00527900003362447	0.00527900003362447	178.74718989990652	185.38249979994725	28	1.40	False	"[-0.03148148148148148, -0.03148148148148148, -0.044444444444444446, -0.04537037037037037, -0.04537037037037037, -0.04537037037037037, -0.04537037037037037, -0.04537037037037037, -0.04537037037037037, -0.04537037037037037, -0.04537037037037037, -0.04537037037037037, -0.04537037037037037, -0.04537037037037037, -0.04537037037037037, -0.04537037037037037, -0.04537037037037037, -0.04537037037037037, -0.04537037037037037, -0.04537037037037037, -0.04537037037037037, -0.04537037037037037, -0.04351851851851852, -0.04351851851851852, -0.04351851851851852, -0.04351851851851852, -0.04351851851851852, -0.04351851851851852, -0.04351851851851852]"	"[-0.38796296296296295, -0.3888888888888889, -0.39444444444444443, -0.3962962962962963, -0.3962962962962963, -0.3962962962962963, -0.3962962962962963, -0.3962962962962963, -0.3962962962962963, -0.3962962962962963, -0.3962962962962963, -0.3962962962962963, -0.3962962962962963, -0.3962962962962963, -0.3962962962962963, -0.3962962962962963, -0.3962962962962963, -0.3962962962962963, -0.3962962962962963, -0.3962962962962963, -0.3962962962962963, -0.3962962962962963, -0.3972222222222222, -0.3972222222222222, -0.3972222222222222, -0.3972222222222222, -0.3972222222222222, -0.3972222222222222, -0.39537037037037037]"	"[1, 1, 1, 1, 1, 1, 1, 1, 1, 1, 1, 1, 1, 1, 1, 1, 1, 1, 1, 1, 1, 1, 1, 1, 1, 1, 1, 1, 0]"	"[0, 0, 0, 0, 0, 0, 0, 0, 0, 0, 0, 0, 0, 0, 0, 0, 0, 0, 0, 0, 0, 0, 0, 0, 0, 0, 0, 0, 0]"	"[0, 0, 0, 0, 0, 0, 0, 0, 0, 0, 0, 0, 0, 0, 0, 0, 0, 0, 0, 0, 0, 0, 0, 0, 0, 0, 0, 0, 1]"	"[0.29192040010821074, 0.4753828000975773, 0.7087210000026971, 0.9337366000982001, 1.133742400095798, 1.350504800095223, 1.5691689000232145, 1.7507962000090629, 1.9672794000944123, 2.141754800104536, 2.3507024000864476, 2.5672647000756115, 2.7751226000254974, 2.9670167000731453, 3.1672041000565514, 3.366939000086859, 3.5502370001049712, 3.7668622001074255, 3.966993600013666, 4.158595200045966, 4.366904400056228, 4.600217500003055, 4.850284400046803, 5.13380540010985, 5.350321100093424, 5.583591700065881, 5.816971100051887, 6.008733000024222, 6.642170500010252]"	29	"[0.2894247999647632, 0.4729005000554025, 0.7062377999536693, 0.9312473000027239, 1.1312392000108957, 1.3479959999676794, 1.5666662000585347, 1.7482945000519976, 1.9647784000262618, 2.139244499965571, 2.348226399975829, 2.5647817000281066, 2.7726091999793425, 2.964590899995528, 3.1650238999864087, 3.3644819000037387, 3.547788399970159, 3.764381799963303, 3.9645328000187874, 4.156094599980861, 4.364409200032242, 4.597707399982028, 4.847790600033477, 5.131307999952696, 5.347810200066306, 5.581072999979369, 5.814458100008778, 6.0062357999850065, 6.6395987999858335]"	"[0.3808297000359744, 0.5891714000608772, 0.8310415999731049, 1.0391314000589773, 1.239105600048788, 1.447768499958329, 1.6479509000200778, 1.8473972000647336, 2.064818699960597, 2.2496059000259265, 2.464657900040038, 2.6725400000577793, 2.89771439996548, 3.0725387999555096, 3.2725302999606356, 3.464333000010811, 3.6559319000225514, 3.8726349000353366, 4.0560247000539675, 4.264281100011431, 4.4643002999946475, 4.705986300017685, 4.947651199996471, 5.2309424000559375, 5.447817999986, 5.680981199955568, 5.922780200024135, 6.11440149997361, 6.63960340002086]"	185.38367289991584	185.38888469990343	186.8809635998914	186.8728742999956								34	02	2024-02-27_11h16.58.257	BART_exp	2023.2.3	122.52484508976019	2024-02-27 11h17.07.309930 +0100	
balloon.png	23	0	22	22	5	186.8809635998914													186.87308969988953	186.8809635998914	186.8809635998914	186.8809635998914	186.8809635998914	186.8809635998914	0.005336899892427027	0.005336899892427027	0.005336899892427027	186.8809635998914	192.1749457999831	24	1.15	True	"[-0.05555555555555555, -0.05555555555555555, -0.05555555555555555, -0.05555555555555555, -0.05555555555555555, -0.053703703703703705, -0.053703703703703705, -0.053703703703703705, -0.05092592592592592, -0.05092592592592592, -0.05092592592592592, -0.05, -0.05, -0.05, -0.05, -0.05, -0.05, -0.05, -0.05, -0.05, -0.05, -0.05, -0.05, -0.05]"	"[-0.4027777777777778, -0.4027777777777778, -0.4027777777777778, -0.4027777777777778, -0.4027777777777778, -0.4027777777777778, -0.4027777777777778, -0.4027777777777778, -0.4027777777777778, -0.4027777777777778, -0.4027777777777778, -0.4027777777777778, -0.4027777777777778, -0.4027777777777778, -0.4027777777777778, -0.4027777777777778, -0.40370370370370373, -0.40370370370370373, -0.40370370370370373, -0.40370370370370373, -0.40370370370370373, -0.40370370370370373, -0.40370370370370373, -0.40370370370370373]"	"[1, 1, 1, 1, 1, 1, 1, 1, 1, 1, 1, 1, 1, 1, 1, 1, 1, 1, 1, 1, 1, 1, 1, 1]"	"[0, 0, 0, 0, 0, 0, 0, 0, 0, 0, 0, 0, 0, 0, 0, 0, 0, 0, 0, 0, 0, 0, 0, 0]"	"[0, 0, 0, 0, 0, 0, 0, 0, 0, 0, 0, 0, 0, 0, 0, 0, 0, 0, 0, 0, 0, 0, 0, 0]"	"[0.2834042999893427, 0.4500529000069946, 0.633406599983573, 0.8418875000206754, 1.0500962999649346, 1.300179100013338, 1.5169521999778226, 1.8920134999789298, 2.109014399931766, 2.309051899937913, 2.5259244999615476, 2.742676299996674, 2.9504106999374926, 3.160895699984394, 3.3504408999579027, 3.550435999990441, 3.7593359999591485, 3.9692202999722213, 4.1757276999996975, 4.375728199956939, 4.583647000021301, 4.800336599932052, 4.991993399919011, 5.175577100017108]"	24	"[0.2809920000145212, 0.44763380009680986, 0.630996200023219, 0.839475900051184, 1.0476729000220075, 1.2977565000765026, 1.5145446000387892, 1.8896037000231445, 2.1066347000887617, 2.306632600026205, 2.523514400003478, 2.7402738000964746, 2.9479977000737563, 3.1584936000872403, 3.3480212000431493, 3.548024300020188, 3.7569795000599697, 3.9667929999995977, 4.173518000054173, 4.373522300040349, 4.581230800016783, 4.79791630001273, 4.989606200018898, 5.173221200006083]"	"[0.3641808000393212, 0.5560098000569269, 0.7308633000357077, 0.947534800041467, 1.180867400020361, 1.3976333000464365, 1.6309791000094265, 2.0061855000676587, 2.2229761000489816, 2.423077700077556, 2.6398414000868797, 2.847675000084564, 3.040031300042756, 3.264346400042996, 3.4569739000871778, 3.6644022000255063, 3.8733231000369415, 4.081100900075398, 4.2978041000897065, 4.489572100108489, 4.681124299997464, 4.897832600050606, 5.098037000047043, 5.289485300076194]"	192.17605569993611	192.18101979990024	193.6753716999665	193.66665679996368								34	02	2024-02-27_11h16.58.257	BART_exp	2023.2.3	122.52484508976019	2024-02-27 11h17.07.309930 +0100	
balloon.png	5	0	23	23	1	193.6753716999665													193.66692669992335	193.6753716999665	193.6753716999665	193.6753716999665	193.6753716999665	193.6753716999665	-0.000609799986705184			193.6753716999665	195.03374189999886	6	0.25	True	"[-0.049074074074074076, -0.049074074074074076, -0.049074074074074076, -0.049074074074074076, -0.04722222222222222, -0.04722222222222222]"	"[-0.40925925925925927, -0.4101851851851852, -0.4101851851851852, -0.4101851851851852, -0.4101851851851852, -0.4101851851851852]"	"[1, 1, 1, 1, 1, 1]"	"[0, 0, 0, 0, 0, 0]"	"[0, 0, 0, 0, 0, 0]"	"[0.29815899999812245, 0.48155729996506125, 0.6566363000310957, 0.8400336999911815, 1.0565921999514103, 1.2566226000199094]"	6	"[0.29491029994096607, 0.47830670000985265, 0.6533835999434814, 0.8367855000542477, 1.0533367999596521, 1.2533742999657989]"	"[0.4282243000343442, 0.5948385000228882, 0.761566299945116, 0.9534044000320137, 1.1616054000332952, 1.353266300051473]"	195.03446999995504	195.0396246999735	196.53171759995166	196.52354759990703								34	02	2024-02-27_11h16.58.257	BART_exp	2023.2.3	122.52484508976019	2024-02-27 11h17.07.309930 +0100	
balloon.png	105	0	24	24	24	196.53171759995166													196.52376509993337	196.53171759995166	196.53171759995166	196.53171759995166	196.53171759995166	196.53171759995166	0.005223000072874129			196.53171759995166	203.03400529990904	24	1.20	False	"[-0.04537037037037037, -0.04537037037037037, -0.04537037037037037, -0.04537037037037037, -0.04537037037037037, -0.04537037037037037, -0.04537037037037037, -0.04537037037037037, -0.04537037037037037, -0.04537037037037037, -0.044444444444444446, -0.044444444444444446, -0.044444444444444446, -0.044444444444444446, -0.044444444444444446, -0.044444444444444446, -0.044444444444444446, -0.044444444444444446, -0.044444444444444446, -0.044444444444444446, -0.044444444444444446, -0.044444444444444446, -0.044444444444444446, -0.044444444444444446, -0.044444444444444446]"	"[-0.40925925925925927, -0.40925925925925927, -0.40925925925925927, -0.40925925925925927, -0.40925925925925927, -0.40925925925925927, -0.40925925925925927, -0.40925925925925927, -0.40925925925925927, -0.40925925925925927, -0.4083333333333333, -0.4083333333333333, -0.4083333333333333, -0.4083333333333333, -0.4083333333333333, -0.4083333333333333, -0.40925925925925927, -0.40925925925925927, -0.40925925925925927, -0.40925925925925927, -0.40925925925925927, -0.40925925925925927, -0.40925925925925927, -0.40925925925925927, -0.40925925925925927]"	"[1, 1, 1, 1, 1, 1, 1, 1, 1, 1, 1, 1, 1, 1, 1, 1, 1, 1, 1, 1, 1, 1, 1, 1, 0]"	"[0, 0, 0, 0, 0, 0, 0, 0, 0, 0, 0, 0, 0, 0, 0, 0, 0, 0, 0, 0, 0, 0, 0, 0, 0]"	"[0, 0, 0, 0, 0, 0, 0, 0, 0, 0, 0, 0, 0, 0, 0, 0, 0, 0, 0, 0, 0, 0, 0, 0, 1]"	"[0.37500480003654957, 0.9668726000236347, 1.141720800078474, 1.3584235000889748, 1.6171198000665754, 1.9086406000424176, 2.1086218000855297, 2.4084757000673562, 2.6254225000739098, 2.850966400001198, 3.0587461000541225, 3.2754694001050666, 3.533945200033486, 3.733645200030878, 3.975263000000268, 4.216956000076607, 4.425559800001793, 4.642227900098078, 4.875598800019361, 5.100475100101903, 5.308952799998224, 5.492300700047053, 5.6858050000155345, 5.842318700044416, 6.509070600033738]"	25	"[0.3723277000244707, 0.9642029000679031, 1.1390485001029447, 1.3557498001027852, 1.614447900094092, 1.905972700100392, 2.105948500102386, 2.405801000073552, 2.622769600013271, 2.8483631000854075, 3.0560848000459373, 3.2728050000732765, 3.5314788999967277, 3.7310390000930056, 3.9725919000338763, 4.214324500062503, 4.4229101000819355, 4.639578100061044, 4.872943400056101, 5.097822400042787, 5.306280300021172, 5.489649800001644, 5.683149400050752, 5.839659100049175, 6.506365800043568]"	"[0.44739700003992766, 1.0641450000694022, 1.2556260999990627, 1.464257700019516, 1.7223154000239447, 2.047957400092855, 2.2223304000217468, 2.497961000073701, 2.731084900093265, 2.9646349000977352, 3.180967300082557, 3.4148355000652373, 3.6475324000930414, 3.855807900079526, 4.089136500027962, 4.314192400081083, 4.53924320009537, 4.747516900068149, 4.955899200052954, 5.197577900020406, 5.3976534000830725, 5.555978700052947, 5.797571900067851, 5.931067600031383, 6.506370200077072]"	203.03515409992542	203.0400978999678	204.53267190000042	204.52409609989263								34	02	2024-02-27_11h16.58.257	BART_exp	2023.2.3	122.52484508976019	2024-02-27 11h17.07.309930 +0100	
balloon.png	118	0	25	25	27	204.53267190000042													204.5243253998924	204.53267190000042	204.53267190000042	204.53267190000042	204.53267190000042	204.53267190000042	0.005138899898156524	0.005138899898156524	0.005138899898156524	204.53267190000042	208.66775679995771	18	0.90	False	"[-0.041666666666666664, -0.041666666666666664, -0.041666666666666664, -0.041666666666666664, -0.041666666666666664, -0.041666666666666664, -0.041666666666666664, -0.041666666666666664, -0.041666666666666664, -0.041666666666666664, -0.041666666666666664, -0.041666666666666664, -0.041666666666666664, -0.041666666666666664, -0.041666666666666664, -0.041666666666666664, -0.041666666666666664, -0.041666666666666664, -0.041666666666666664]"	"[-0.3972222222222222, -0.3972222222222222, -0.3972222222222222, -0.3972222222222222, -0.3972222222222222, -0.3972222222222222, -0.3972222222222222, -0.3972222222222222, -0.3972222222222222, -0.3972222222222222, -0.3972222222222222, -0.3972222222222222, -0.3972222222222222, -0.3972222222222222, -0.3972222222222222, -0.3972222222222222, -0.3972222222222222, -0.3972222222222222, -0.3972222222222222]"	"[1, 1, 1, 1, 1, 1, 1, 1, 1, 1, 1, 1, 1, 1, 1, 1, 1, 1, 0]"	"[0, 0, 0, 0, 0, 0, 0, 0, 0, 0, 0, 0, 0, 0, 0, 0, 0, 0, 0]"	"[0, 0, 0, 0, 0, 0, 0, 0, 0, 0, 0, 0, 0, 0, 0, 0, 0, 0, 1]"	"[0.3417475000023842, 0.525129699963145, 0.8085071999812499, 1.0251975000137463, 1.2421964999521151, 1.4336278999689966, 1.650313299964182, 1.8755179999861866, 2.1168110000435263, 2.3334840999450535, 2.5588183000218123, 2.7756968999747187, 2.942374399979599, 3.11691109999083, 3.383620099979453, 3.60019609995652, 3.775744599988684, 3.916945399949327, 4.14209540002048]"	19	"[0.3391223999205977, 0.5225018999772146, 0.805875499965623, 1.0225641999859363, 1.239606700022705, 1.43100450001657, 1.6476871999911964, 1.8729087999090552, 2.114175599999726, 2.3308509999187663, 2.556194999953732, 2.7730675999773666, 2.939745799987577, 3.114278999972157, 3.380991799989715, 3.5899675999535248, 3.773132500005886, 3.91431229992304, 4.139428699971177]"	"[0.44734069996047765, 0.6306193999480456, 0.9239385999972001, 1.122454799944535, 1.3391666999086738, 1.5392114999704063, 1.764030099962838, 1.9892163999611512, 2.214149000006728, 2.4226905999239534, 2.656190500012599, 2.8640969999833032, 3.0223102999152616, 3.2734130999306217, 3.473010499961674, 3.680844399961643, 3.8395308000035584, 4.014168199966662, 4.139433200005442]"	208.6688279999653	208.67382519994862	210.16559649992269	210.157786799944								34	02	2024-02-27_11h16.58.257	BART_exp	2023.2.3	122.52484508976019	2024-02-27 11h17.07.309930 +0100	
balloon.png	88	0	26	26	20	210.16559649992269													210.1579981999239	210.16559649992269	210.16559649992269	210.16559649992269	210.16559649992269	210.16559649992269	0.005196099984459579	0.005196099984459579	0.005196099984459579	210.16559649992269	215.02673899999354	21	1.05	False	"[-0.03888888888888889, -0.03796296296296296, -0.03796296296296296, -0.03796296296296296, -0.03796296296296296, -0.03796296296296296, -0.03796296296296296, -0.03796296296296296, -0.03796296296296296, -0.03796296296296296, -0.03796296296296296, -0.03796296296296296, -0.03796296296296296, -0.03796296296296296, -0.03796296296296296, -0.03796296296296296, -0.03796296296296296, -0.03796296296296296, -0.03796296296296296, -0.03796296296296296, -0.03796296296296296, -0.03796296296296296]"	"[-0.3972222222222222, -0.3972222222222222, -0.3972222222222222, -0.3962962962962963, -0.3962962962962963, -0.3962962962962963, -0.3962962962962963, -0.3962962962962963, -0.3962962962962963, -0.3962962962962963, -0.3962962962962963, -0.3962962962962963, -0.3962962962962963, -0.3962962962962963, -0.3962962962962963, -0.3962962962962963, -0.3962962962962963, -0.3962962962962963, -0.3962962962962963, -0.3962962962962963, -0.3962962962962963, -0.3962962962962963]"	"[1, 1, 1, 1, 1, 1, 1, 1, 1, 1, 1, 1, 1, 1, 1, 1, 1, 1, 1, 1, 1, 0]"	"[0, 0, 0, 0, 0, 0, 0, 0, 0, 0, 0, 0, 0, 0, 0, 0, 0, 0, 0, 0, 0, 0]"	"[0, 0, 0, 0, 0, 0, 0, 0, 0, 0, 0, 0, 0, 0, 0, 0, 0, 0, 0, 0, 0, 1]"	"[0.2586032999679446, 0.4502872000448406, 0.6419285000301898, 0.8502830000361428, 1.1334753000410274, 1.3418399000074714, 1.5750479999696836, 1.8004377000033855, 2.033924899995327, 2.2586883000331, 2.477359800017439, 2.683556400006637, 2.90024440002162, 3.083619900047779, 3.291925900033675, 3.491975700017065, 3.6837525999872014, 3.925334500032477, 4.100395699962974, 4.308679800014943, 4.533822000026703, 4.8675136000383645]"	22	"[0.2561700000660494, 0.44783750001806766, 0.6394984000362456, 0.8478385000489652, 1.1310208000941202, 1.3393786000087857, 1.5725964000448585, 1.7980201001046225, 2.0315028000622988, 2.256238400004804, 2.4749546000966802, 2.6811032000696287, 2.8977929000975564, 3.081174200051464, 3.289496700046584, 3.489520200062543, 3.6812979000387713, 3.9228858000133187, 4.0979410000145435, 4.306230100104585, 4.531369400094263, 4.865013800095767]"	"[0.3724291000980884, 0.5557758000213653, 0.7809556000865996, 1.0059846000513062, 1.2142126000253484, 1.4476262000389397, 1.6725958000170067, 1.9143662001006305, 2.1490276000695303, 2.3559199000010267, 2.564319400000386, 2.781047600088641, 2.9810529000824317, 3.1643944000825286, 3.381100200000219, 3.5727124999975786, 3.739386900095269, 4.014548200066201, 4.172845600056462, 4.406161500024609, 4.589444600045681, 4.865018400014378]"	215.02781629993115	215.03265059995465	216.5244304999942	216.51662429992575								34	02	2024-02-27_11h16.58.257	BART_exp	2023.2.3	122.52484508976019	2024-02-27 11h17.07.309930 +0100	
balloon.png	18	0	27	27	4	216.5244304999942													216.51683379989117	216.5244304999942	216.5244304999942	216.5244304999942	216.5244304999942	216.5244304999942	0.0049665000988170505	0.0049665000988170505	0.0049665000988170505	216.5244304999942	221.34380269993562	19	0.90	True	"[-0.03796296296296296, -0.03796296296296296, -0.03796296296296296, -0.03796296296296296, -0.03796296296296296, -0.03796296296296296, -0.03796296296296296, -0.03796296296296296, -0.03796296296296296, -0.03796296296296296, -0.03796296296296296, -0.03796296296296296, -0.03796296296296296, -0.03796296296296296, -0.03796296296296296, -0.03796296296296296, -0.03796296296296296, -0.03796296296296296, -0.03796296296296296]"	"[-0.3962962962962963, -0.3962962962962963, -0.3962962962962963, -0.3962962962962963, -0.3962962962962963, -0.3962962962962963, -0.3962962962962963, -0.3962962962962963, -0.3962962962962963, -0.3962962962962963, -0.3962962962962963, -0.3962962962962963, -0.3962962962962963, -0.3962962962962963, -0.3962962962962963, -0.3962962962962963, -0.3962962962962963, -0.3962962962962963, -0.3962962962962963]"	"[1, 1, 1, 1, 1, 1, 1, 1, 1, 1, 1, 1, 1, 1, 1, 1, 1, 1, 1]"	"[0, 0, 0, 0, 0, 0, 0, 0, 0, 0, 0, 0, 0, 0, 0, 0, 0, 0, 0]"	"[0, 0, 0, 0, 0, 0, 0, 0, 0, 0, 0, 0, 0, 0, 0, 0, 0, 0, 0]"	"[0.4923454999225214, 0.6755485999165103, 0.9085476999171078, 1.1333474999992177, 1.400047699920833, 1.6587091999826953, 1.866950299940072, 2.108635399956256, 2.358391199959442, 2.5669092999305576, 2.775202799937688, 3.008712899987586, 3.3918195998994634, 3.6253336999798194, 3.842004399979487, 4.050499000004493, 4.2838422999484465, 4.508690799935721, 4.718002100009471]"	19	"[0.49004649999551475, 0.6732414000434801, 0.9062964000040665, 1.1309975000331178, 1.3977111999411136, 1.6565303000388667, 1.8646131999557838, 2.106343499966897, 2.356059500016272, 2.5645623999880627, 2.772850599954836, 3.0063664000481367, 3.38947279995773, 3.622993699973449, 3.8396540000103414, 4.048164900043048, 4.2815106000052765, 4.506341499974951, 4.715817000018433]"	"[0.5975458000320941, 0.7975633000023663, 1.02274030004628, 1.2395321000367403, 1.4976340000284836, 1.7810981000075117, 1.9893142000073567, 2.222628499963321, 2.4476967999944463, 2.672630100045353, 2.881043800036423, 3.122604100033641, 3.4978665999369696, 3.7311013999860734, 3.956077800015919, 4.1726900000358, 4.381820100010373, 4.589412000030279, 4.814611800014973]"	221.34487149992492	221.34974369988777	222.84191179997288	222.83370479999576								34	02	2024-02-27_11h16.58.257	BART_exp	2023.2.3	122.52484508976019	2024-02-27 11h17.07.309930 +0100	
balloon.png	75	0	28	28	17	222.84191179997288													222.8339232999133	222.84191179997288	222.84191179997288	222.84191179997288	222.84191179997288	222.84191179997288	0.004984799888916314			222.84191179997288	228.37731509993318	21	1.05	False	"[-0.03425925925925926, -0.040740740740740744, -0.04259259259259259, -0.04259259259259259, -0.04259259259259259, -0.04259259259259259, -0.04259259259259259, -0.04259259259259259, -0.04259259259259259, -0.04259259259259259, -0.04259259259259259, -0.04259259259259259, -0.04259259259259259, -0.04259259259259259, -0.04259259259259259, -0.04259259259259259, -0.04259259259259259, -0.04259259259259259, -0.04259259259259259, -0.04259259259259259, -0.04351851851851852, -0.04722222222222222]"	"[-0.36666666666666664, -0.3712962962962963, -0.36944444444444446, -0.36944444444444446, -0.36944444444444446, -0.36944444444444446, -0.36944444444444446, -0.36944444444444446, -0.36944444444444446, -0.36944444444444446, -0.36944444444444446, -0.36944444444444446, -0.3731481481481482, -0.3731481481481482, -0.3731481481481482, -0.3731481481481482, -0.3731481481481482, -0.3731481481481482, -0.3731481481481482, -0.37407407407407406, -0.37407407407407406, -0.37037037037037035]"	"[1, 1, 1, 1, 1, 1, 1, 1, 1, 1, 1, 1, 1, 1, 1, 1, 1, 1, 1, 1, 1, 0]"	"[0, 0, 0, 0, 0, 0, 0, 0, 0, 0, 0, 0, 0, 0, 0, 0, 0, 0, 0, 0, 0, 0]"	"[0, 0, 0, 0, 0, 0, 0, 0, 0, 0, 0, 0, 0, 0, 0, 0, 0, 0, 0, 0, 0, 1]"	"[0.4834903000155464, 0.7750501999398693, 1.0750414000358433, 1.3170672999694943, 1.5750628999667242, 1.900513599975966, 2.2004439999582246, 2.391805400024168, 2.584206399973482, 2.817314999992959, 3.050766499945894, 3.258487100014463, 3.4921092999866232, 3.7254394999472424, 3.9344347999431193, 4.158787299995311, 4.358768000034615, 4.575246899970807, 4.8002782999537885, 5.025330899981782, 5.250397199997678, 5.542236399953254]"	22	"[0.480914399959147, 0.7724713999778032, 1.0724667999893427, 1.3145048000151291, 1.5724797999719158, 1.8979700000490993, 2.197862899978645, 2.389225900056772, 2.581628100015223, 2.8147447999799624, 3.048234899993986, 3.255907600047067, 3.4895482000429183, 3.7228611999889836, 3.931932899984531, 4.156213999958709, 4.356192199978977, 4.572667600004934, 4.79773730004672, 5.02275720005855, 5.247824599966407, 5.539602700038813]"	"[0.6141072000609711, 0.8974940000334755, 1.1723033000016585, 1.4391040999908, 1.6890771000180393, 2.0390798000153154, 2.297911599976942, 2.489155799965374, 2.6814634000184014, 2.931726500042714, 3.16509689996019, 3.381290700053796, 3.589184800046496, 3.8391798000084236, 4.055863699992187, 4.255906900041737, 4.47258319996763, 4.672623599995859, 4.9142806000309065, 5.1309759999858215, 5.356020999955945, 5.5396070999559015]"	228.37837449996732	228.38354679988697	229.875871899887	229.86751419992652								34	02	2024-02-27_11h16.58.257	BART_exp	2023.2.3	122.52484508976019	2024-02-27 11h17.07.309930 +0100	
balloon.png	84	0	29	29	19	229.875871899887													229.86772159999236	229.875871899887	229.875871899887	229.875871899887	229.875871899887	229.875871899887	0.005309200030751526	0.005309200030751526	0.005309200030751526	229.875871899887	237.27756560000125	29	1.45	False	"[-0.053703703703703705, -0.053703703703703705, -0.053703703703703705, -0.053703703703703705, -0.053703703703703705, -0.053703703703703705, -0.05555555555555555, -0.05555555555555555, -0.05555555555555555, -0.05555555555555555, -0.05555555555555555, -0.05555555555555555, -0.05555555555555555, -0.05555555555555555, -0.05555555555555555, -0.05555555555555555, -0.05555555555555555, -0.05555555555555555, -0.05555555555555555, -0.05555555555555555, -0.05462962962962963, -0.05462962962962963, -0.05462962962962963, -0.05462962962962963, -0.05462962962962963, -0.05462962962962963, -0.05462962962962963, -0.05462962962962963, -0.05462962962962963, -0.05462962962962963]"	"[-0.37222222222222223, -0.3731481481481482, -0.37407407407407406, -0.37407407407407406, -0.37407407407407406, -0.37407407407407406, -0.3768518518518518, -0.37777777777777777, -0.37777777777777777, -0.37777777777777777, -0.37777777777777777, -0.37777777777777777, -0.37777777777777777, -0.37777777777777777, -0.37777777777777777, -0.37777777777777777, -0.37777777777777777, -0.37777777777777777, -0.37777777777777777, -0.37777777777777777, -0.37777777777777777, -0.37777777777777777, -0.37777777777777777, -0.37777777777777777, -0.37777777777777777, -0.3768518518518518, -0.3768518518518518, -0.3768518518518518, -0.3768518518518518, -0.3768518518518518]"	"[1, 1, 1, 1, 1, 1, 1, 1, 1, 1, 1, 1, 1, 1, 1, 1, 1, 1, 1, 1, 1, 1, 1, 1, 1, 1, 1, 1, 1, 0]"	"[0, 0, 0, 0, 0, 0, 0, 0, 0, 0, 0, 0, 0, 0, 0, 0, 0, 0, 0, 0, 0, 0, 0, 0, 0, 0, 0, 0, 0, 0]"	"[0, 0, 0, 0, 0, 0, 0, 0, 0, 0, 0, 0, 0, 0, 0, 0, 0, 0, 0, 0, 0, 0, 0, 0, 0, 0, 0, 0, 0, 1]"	"[0.5750233000144362, 0.758437899989076, 0.9501041999319568, 1.1336251999018714, 1.3253203999483958, 1.5501273999689147, 1.775213599903509, 1.9752338000107557, 2.2085763999493793, 2.3919941999483854, 2.5835724999196827, 2.7919846000149846, 2.9919582000002265, 3.192036799970083, 3.43574320001062, 3.6087123999604955, 3.8169537999201566, 4.025716500007547, 4.242612699978054, 4.476060799905099, 4.716990899993107, 5.104890299960971, 5.375607999972999, 5.617073399946094, 5.809039199957624, 6.234062599949539, 6.425409999908879, 6.750527199939825, 7.092289899941534, 7.408792999922298]"	30	"[0.5726565000368282, 0.7560580000281334, 0.9477239999687299, 1.1312440999317914, 1.3229416999965906, 1.547757099964656, 1.7728341999463737, 1.972850100020878, 2.206195699982345, 2.389618800021708, 2.5811985000036657, 2.7896149000152946, 2.9895757000194862, 3.189656400005333, 3.433350699953735, 3.6063422999577597, 3.8145739999599755, 4.023350300034508, 4.240240899962373, 4.473681999952532, 4.7146063999971375, 5.102512200013734, 5.3732486999360844, 5.614693299983628, 5.806820499943569, 6.231705899932422, 6.423063899972476, 6.748142799944617, 7.089938399964012, 7.406365799950436]"	"[0.672560999984853, 0.8558924000244588, 1.0393195999786258, 1.2393423999892548, 1.4393423999426886, 1.6560322999721393, 1.8643330000340939, 2.089508399949409, 2.2894463000120595, 2.4977182999718934, 2.68952559994068, 2.897846999927424, 3.1144054000033066, 3.29784200002905, 3.53112770000007, 3.7396101999329403, 3.9229977999348193, 4.131156299961731, 4.331223599961959, 4.564506200025789, 4.8145171999931335, 5.202294899965636, 5.489818900008686, 5.689706000033766, 5.889736799988896, 6.339661699952558, 6.522992699989118, 6.831380599993281, 7.206323100021109, 7.4063701999839395]"	237.27910039993003	237.2841397000011	238.7760945999762	238.76828549988568								34	02	2024-02-27_11h16.58.257	BART_exp	2023.2.3	122.52484508976019	2024-02-27 11h17.07.309930 +0100	
																																														238.76832419994753	238.7760945999762	238.7760945999762	253.29473439999856	space	14.517045499989763	None	34	02	2024-02-27_11h16.58.257	BART_exp	2023.2.3	122.52484508976019	2024-02-27 11h17.07.309930 +0100	
