diceImage	d_number	dice_loop.thisRepN	dice_loop.thisTrialN	dice_loop.thisN	dice_loop.thisIndex	thisRow.t	notes	Start.started	text_start.started	continue_start.started	mouse_start.started	Start.stopped	mouse_start.x	mouse_start.y	mouse_start.leftButton	mouse_start.midButton	mouse_start.rightButton	mouse_start.time	trial.started	box_dice.started	text_dice_header.started	text_gain.started	value_gain.started	text_bank.started	value_bank.started	img_dice_1.started	img_dice_2.started	img_dice_3.started	img_dice_4.started	img_dice_5.started	img_dice_6.started	img_dice_1_2.started	img_dice_3_4.started	img_dice_5_6.started	img_dice_1_2_3.started	img_dice_4_5_6.started	img_dice_1_2_3_4.started	img_dice_2_3_4_5.started	img_dice_3_4_5_6.started	text_value_header.started	text_value_1000.started	text_value_500.started	text_value_200.started	text_value_100.started	mouse_task.started	loss_sound.started	img_dice_throw_trials.started	img_dice_throw_trials.stopped	trial.stopped	mouse_task.x	mouse_task.y	mouse_task.leftButton	mouse_task.midButton	mouse_task.rightButton	mouse_task.time	choice	gain	gain_sound.started	gain_sound.stopped	End.started	text_end.started	key_end.started	End.stopped	key_end.keys	key_end.rt	key_end.duration	participant	session	date	expName	psychopyVersion	frameRate	expStart	
								0.03911259999949834	0.04976069999975152	0.04976069999975152	0.03946420000283979	97.04063899999892	[0.7055555555555556]	[-0.4074074074074074]	[1]	[0]	[0]	[97.00056340000083]																																																	18	03	2024-02-08_15h47.52.652	GDT_exp	2023.2.3	119.92938557760114	2024-02-08 15h48.02.913900 +0100	
dice_5.png	5	0	0	0	4	97.12341309999829													97.04566639999757	97.12341309999829	97.12341309999829	97.12341309999829	97.12341309999829	97.12341309999829	97.12341309999829	97.12341309999829	97.12341309999829	97.12341309999829	97.12341309999829	97.12341309999829	97.12341309999829	97.12341309999829	97.12341309999829	97.12341309999829	97.12341309999829	97.12341309999829	97.12341309999829	97.12341309999829	97.12341309999829	97.12341309999829	97.12341309999829	97.12341309999829	97.12341309999829	97.12341309999829	0.026114599997526966	3.657833799999935	100.76515930000096	102.34029390000069	102.29307540000082	"[-0.6324074074074074, 0.25833333333333336]"	"[-0.34074074074074073, -0.225]"	"[1, 0]"	"[0, 0]"	"[0, 1]"	"[2.666712300000654, 3.599934199999552]"	4	-100										18	03	2024-02-08_15h47.52.652	GDT_exp	2023.2.3	119.92938557760114	2024-02-08 15h48.02.913900 +0100	
dice_1.png	1	0	1	1	0	102.34029390000069													102.29389209999863	102.34029390000069	102.34029390000069	102.34029390000069	102.34029390000069	102.34029390000069	102.34029390000069	102.34029390000069	102.34029390000069	102.34029390000069	102.34029390000069	102.34029390000069	102.34029390000069	102.34029390000069	102.34029390000069	102.34029390000069	102.34029390000069	102.34029390000069	102.34029390000069	102.34029390000069	102.34029390000069	102.34029390000069	102.34029390000069	102.34029390000069	102.34029390000069	102.34029390000069	0.018399299999146024	1.363315099999454	103.7404166999986	105.29895359999864	105.25140289999763	"[-0.3287037037037037, 0.2916666666666667]"	"[-0.3527777777777778, -0.20833333333333334]"	"[1, 0]"	"[0, 0]"	"[0, 1]"	"[0.6612514999978885, 1.3446513999988383]"	4	-100										18	03	2024-02-08_15h47.52.652	GDT_exp	2023.2.3	119.92938557760114	2024-02-08 15h48.02.913900 +0100	
dice_4.png	4	0	2	2	3	105.29895359999864													105.25197879999905	105.29895359999864	105.29895359999864	105.29895359999864	105.29895359999864	105.29895359999864	105.29895359999864	105.29895359999864	105.29895359999864	105.29895359999864	105.29895359999864	105.29895359999864	105.29895359999864	105.29895359999864	105.29895359999864	105.29895359999864	105.29895359999864	105.29895359999864	105.29895359999864	105.29895359999864	105.29895359999864	105.29895359999864	105.29895359999864	105.29895359999864	105.29895359999864	105.29895359999864	0.017833599998994032		106.33222749999914	107.89901869999812	107.85993139999846	"[-0.22407407407407406, 0.18703703703703703]"	"[-0.32592592592592595, -0.225]"	"[1, 0]"	"[0, 0]"	"[0, 1]"	"[0.42904249999992317, 0.9956990999999107]"	4	100	1.0137470000008761	2.5138855000004696								18	03	2024-02-08_15h47.52.652	GDT_exp	2023.2.3	119.92938557760114	2024-02-08 15h48.02.913900 +0100	
dice_2.png	2	0	3	3	1	107.89901869999812													107.86051840000073	107.89901869999812	107.89901869999812	107.89901869999812	107.89901869999812	107.89901869999812	107.89901869999812	107.89901869999812	107.89901869999812	107.89901869999812	107.89901869999812	107.89901869999812	107.89901869999812	107.89901869999812	107.89901869999812	107.89901869999812	107.89901869999812	107.89901869999812	107.89901869999812	107.89901869999812	107.89901869999812	107.89901869999812	107.89901869999812	107.89901869999812	107.89901869999812	107.89901869999812	0.014822500001173466		109.32425409999996	110.89089999999851	110.85159529999873	"[-0.19907407407407407, 0.19074074074074074]"	"[-0.3425925925925926, -0.22777777777777777]"	"[1, 0]"	"[0, 0]"	"[0, 1]"	"[0.8237163000012515, 1.3736132999983965]"	4	100	1.3887402000000293	2.897211600000446								18	03	2024-02-08_15h47.52.652	GDT_exp	2023.2.3	119.92938557760114	2024-02-08 15h48.02.913900 +0100	
dice_6.png	6	0	4	4	5	110.89089999999851													110.85212179999871	110.89089999999851	110.89089999999851	110.89089999999851	110.89089999999851	110.89089999999851	110.89089999999851	110.89089999999851	110.89089999999851	110.89089999999851	110.89089999999851	110.89089999999851	110.89089999999851	110.89089999999851	110.89089999999851	110.89089999999851	110.89089999999851	110.89089999999851	110.89089999999851	110.89089999999851	110.89089999999851	110.89089999999851	110.89089999999851	110.89089999999851	110.89089999999851	110.89089999999851	0.014790799999900628		111.94095369999923	113.49107979999826	113.45197629999893	"[0.1361111111111111, 0.15925925925925927]"	"[-0.3574074074074074, -0.2518518518518518]"	"[1, 0]"	"[0, 0]"	"[0, 1]"	"[0.5738334999987273, 1.0071418000006815]"	4	100	1.0222988000023179	2.5307809000005363								18	03	2024-02-08_15h47.52.652	GDT_exp	2023.2.3	119.92938557760114	2024-02-08 15h48.02.913900 +0100	
dice_3.png	3	0	5	5	2	113.49107979999826													113.45251799999824	113.49107979999826	113.49107979999826	113.49107979999826	113.49107979999826	113.49107979999826	113.49107979999826	113.49107979999826	113.49107979999826	113.49107979999826	113.49107979999826	113.49107979999826	113.49107979999826	113.49107979999826	113.49107979999826	113.49107979999826	113.49107979999826	113.49107979999826	113.49107979999826	113.49107979999826	113.49107979999826	113.49107979999826	113.49107979999826	113.49107979999826	113.49107979999826	113.49107979999826	0.014453399999183603		120.93325569999797	122.50014609999926	122.45228979999956	"[-0.24259259259259258, 0.06481481481481481]"	"[-0.362962962962963, -0.25833333333333336]"	"[1, 0]"	"[0, 0]"	"[0, 1]"	"[6.707797600000049, 7.391133600001922]"	4	100	7.405869999998686	8.906023299998196								18	03	2024-02-08_15h47.52.652	GDT_exp	2023.2.3	119.92938557760114	2024-02-08 15h48.02.913900 +0100	
dice_4.png	4	1	0	6	3	122.50014609999926													122.45286069999929	122.50014609999926	122.50014609999926	122.50014609999926	122.50014609999926	122.50014609999926	122.50014609999926	122.50014609999926	122.50014609999926	122.50014609999926	122.50014609999926	122.50014609999926	122.50014609999926	122.50014609999926	122.50014609999926	122.50014609999926	122.50014609999926	122.50014609999926	122.50014609999926	122.50014609999926	122.50014609999926	122.50014609999926	122.50014609999926	122.50014609999926	122.50014609999926	122.50014609999926	0.017708600000332808		123.53347329999815	125.10858539999754	125.0608401999998	"[-0.5537037037037037, 0.06851851851851852]"	"[-0.3509259259259259, -0.2361111111111111]"	"[1, 0]"	"[0, 0]"	"[0, 1]"	"[0.3048029999990831, 0.9878108999982942]"	4	100	1.0057122000034724	2.51428820000001								18	03	2024-02-08_15h47.52.652	GDT_exp	2023.2.3	119.92938557760114	2024-02-08 15h48.02.913900 +0100	
dice_6.png	6	1	1	7	5	125.10858539999754													125.06139659999826	125.10858539999754	125.10858539999754	125.10858539999754	125.10858539999754	125.10858539999754	125.10858539999754	125.10858539999754	125.10858539999754	125.10858539999754	125.10858539999754	125.10858539999754	125.10858539999754	125.10858539999754	125.10858539999754	125.10858539999754	125.10858539999754	125.10858539999754	125.10858539999754	125.10858539999754	125.10858539999754	125.10858539999754	125.10858539999754	125.10858539999754	125.10858539999754	125.10858539999754	0.017642099999648053		127.0753584999984	128.65895099999761	128.61156169999958	"[0.049074074074074076, 0.11203703703703703]"	"[-0.36203703703703705, -0.23425925925925925]"	"[1, 0]"	"[0, 0]"	"[0, 1]"	"[1.47969269999885, 1.9295863999977882]"	4	100	1.947459600000002	3.4475941999990027								18	03	2024-02-08_15h47.52.652	GDT_exp	2023.2.3	119.92938557760114	2024-02-08 15h48.02.913900 +0100	
dice_2.png	2	1	2	8	1	128.65895099999761													128.61211600000024	128.65895099999761	128.65895099999761	128.65895099999761	128.65895099999761	128.65895099999761	128.65895099999761	128.65895099999761	128.65895099999761	128.65895099999761	128.65895099999761	128.65895099999761	128.65895099999761	128.65895099999761	128.65895099999761	128.65895099999761	128.65895099999761	128.65895099999761	128.65895099999761	128.65895099999761	128.65895099999761	128.65895099999761	128.65895099999761	128.65895099999761	128.65895099999761	128.65895099999761	0.018253099999128608		129.9755499999992	131.55915019999884	131.51148470000044	"[-0.22777777777777777, 0.09444444444444444]"	"[-0.36203703703703705, -0.25277777777777777]"	"[1, 0]"	"[0, 0]"	"[0, 1]"	"[0.6450089999998454, 1.2699386999993294]"	4	100	1.2885792999986734	2.7970590999975684								18	03	2024-02-08_15h47.52.652	GDT_exp	2023.2.3	119.92938557760114	2024-02-08 15h48.02.913900 +0100	
dice_5.png	5	1	3	9	4	131.55915019999884													131.51208609999958	131.55915019999884	131.55915019999884	131.55915019999884	131.55915019999884	131.55915019999884	131.55915019999884	131.55915019999884	131.55915019999884	131.55915019999884	131.55915019999884	131.55915019999884	131.55915019999884	131.55915019999884	131.55915019999884	131.55915019999884	131.55915019999884	131.55915019999884	131.55915019999884	131.55915019999884	131.55915019999884	131.55915019999884	131.55915019999884	131.55915019999884	131.55915019999884	131.55915019999884	0.018055199998343596		133.83415569999852	135.38431539999874	135.33674450000035	"[0.09074074074074075, 0.13333333333333333]"	"[-0.3388888888888889, -0.2611111111111111]"	"[1, 0]"	"[0, 0]"	"[0, 1]"	"[1.7369744999996328, 2.2203523999996833]"	4	100	2.238907399998425	3.7641947000010987								18	03	2024-02-08_15h47.52.652	GDT_exp	2023.2.3	119.92938557760114	2024-02-08 15h48.02.913900 +0100	
dice_1.png	1	1	4	10	0	135.38431539999874													135.33781499999895	135.38431539999874	135.38431539999874	135.38431539999874	135.38431539999874	135.38431539999874	135.38431539999874	135.38431539999874	135.38431539999874	135.38431539999874	135.38431539999874	135.38431539999874	135.38431539999874	135.38431539999874	135.38431539999874	135.38431539999874	135.38431539999874	135.38431539999874	135.38431539999874	135.38431539999874	135.38431539999874	135.38431539999874	135.38431539999874	135.38431539999874	135.38431539999874	135.38431539999874	0.018314500000997214		136.70936739999888	138.2596463000009	138.21170250000068	"[-0.5277777777777778, 0.32037037037037036]"	"[-0.34629629629629627, -0.2]"	"[1, 0]"	"[0, 0]"	"[0, 1]"	"[0.628042699998332, 1.2864785999991]"	4	100	1.3051369999993767	2.805280500000663								18	03	2024-02-08_15h47.52.652	GDT_exp	2023.2.3	119.92938557760114	2024-02-08 15h48.02.913900 +0100	
dice_3.png	3	1	5	11	2	138.2596463000009													138.21225269999923	138.2596463000009	138.2596463000009	138.2596463000009	138.2596463000009	138.2596463000009	138.2596463000009	138.2596463000009	138.2596463000009	138.2596463000009	138.2596463000009	138.2596463000009	138.2596463000009	138.2596463000009	138.2596463000009	138.2596463000009	138.2596463000009	138.2596463000009	138.2596463000009	138.2596463000009	138.2596463000009	138.2596463000009	138.2596463000009	138.2596463000009	138.2596463000009	138.2596463000009	0.017430700001568766		139.82637109999996	141.37635579999915	141.3371377000003	"[0.15, 0.18796296296296297]"	"[-0.35462962962962963, -0.26944444444444443]"	"[1, 0]"	"[0, 0]"	"[0, 1]"	"[1.0881098999998358, 1.521502599996893]"	4	100	1.539131500001531	3.0643187000023318								18	03	2024-02-08_15h47.52.652	GDT_exp	2023.2.3	119.92938557760114	2024-02-08 15h48.02.913900 +0100	
dice_5.png	5	2	0	12	4	141.37635579999915													141.33770589999767	141.37635579999915	141.37635579999915	141.37635579999915	141.37635579999915	141.37635579999915	141.37635579999915	141.37635579999915	141.37635579999915	141.37635579999915	141.37635579999915	141.37635579999915	141.37635579999915	141.37635579999915	141.37635579999915	141.37635579999915	141.37635579999915	141.37635579999915	141.37635579999915	141.37635579999915	141.37635579999915	141.37635579999915	141.37635579999915	141.37635579999915	141.37635579999915	141.37635579999915	0.0146984999992128	1.9055898000005982	143.3181798000005	144.86840870000015	144.82889109999815	"[-0.5398148148148149, 0.29814814814814816]"	"[-0.362962962962963, -0.23148148148148148]"	"[1, 0]"	"[0, 0]"	"[0, 1]"	"[0.6823900999988837, 1.8908143999979075]"	4	-100										18	03	2024-02-08_15h47.52.652	GDT_exp	2023.2.3	119.92938557760114	2024-02-08 15h48.02.913900 +0100	
dice_3.png	3	2	1	13	2	144.86840870000015													144.82947489999788	144.86840870000015	144.86840870000015	144.86840870000015	144.86840870000015	144.86840870000015	144.86840870000015	144.86840870000015	144.86840870000015	144.86840870000015	144.86840870000015	144.86840870000015	144.86840870000015	144.86840870000015	144.86840870000015	144.86840870000015	144.86840870000015	144.86840870000015	144.86840870000015	144.86840870000015	144.86840870000015	144.86840870000015	144.86840870000015	144.86840870000015	144.86840870000015	144.86840870000015	0.014424899996811291		146.65164279999954	148.21021109999856	148.1711776000011	"[-0.5351851851851852, 0.3101851851851852]"	"[-0.34814814814814815, -0.16574074074074074]"	"[1, 0]"	"[0, 0]"	"[0, 1]"	"[1.1576955999989877, 1.7411355999975058]"	4	100	1.7557756999995036	3.281050599998707								18	03	2024-02-08_15h47.52.652	GDT_exp	2023.2.3	119.92938557760114	2024-02-08 15h48.02.913900 +0100	
dice_1.png	1	2	2	14	0	148.21021109999856													148.17180599999847	148.21021109999856	148.21021109999856	148.21021109999856	148.21021109999856	148.21021109999856	148.21021109999856	148.21021109999856	148.21021109999856	148.21021109999856	148.21021109999856	148.21021109999856	148.21021109999856	148.21021109999856	148.21021109999856	148.21021109999856	148.21021109999856	148.21021109999856	148.21021109999856	148.21021109999856	148.21021109999856	148.21021109999856	148.21021109999856	148.21021109999856	148.21021109999856	148.21021109999856	0.014714500000991393	0.8885779999982333	149.1270341999989	150.7020123000002	150.66306079999777	"[0.10092592592592593, 0.21574074074074073]"	"[-0.3425925925925926, -0.225]"	"[1, 0]"	"[0, 0]"	"[0, 1]"	"[0.27371449999918696, 0.8735448000006727]"	4	-100										18	03	2024-02-08_15h47.52.652	GDT_exp	2023.2.3	119.92938557760114	2024-02-08 15h48.02.913900 +0100	
dice_6.png	6	2	3	15	5	150.7020123000002													150.66363769999953	150.7020123000002	150.7020123000002	150.7020123000002	150.7020123000002	150.7020123000002	150.7020123000002	150.7020123000002	150.7020123000002	150.7020123000002	150.7020123000002	150.7020123000002	150.7020123000002	150.7020123000002	150.7020123000002	150.7020123000002	150.7020123000002	150.7020123000002	150.7020123000002	150.7020123000002	150.7020123000002	150.7020123000002	150.7020123000002	150.7020123000002	150.7020123000002	150.7020123000002	0.014985900001192931		151.4854125999991	153.0355496000011	152.9998205999982	"[0.13703703703703704, 0.22037037037037038]"	"[-0.35648148148148145, -0.2324074074074074]"	"[1, 0]"	"[0, 0]"	"[0, 1]"	"[0.21515010000075563, 0.74021029999858]"	4	100	0.7553737999987788	2.2720650999981444								18	03	2024-02-08_15h47.52.652	GDT_exp	2023.2.3	119.92938557760114	2024-02-08 15h48.02.913900 +0100	
dice_4.png	4	2	4	16	3	153.0355496000011													153.0003981000009	153.0355496000011	153.0355496000011	153.0355496000011	153.0355496000011	153.0355496000011	153.0355496000011	153.0355496000011	153.0355496000011	153.0355496000011	153.0355496000011	153.0355496000011	153.0355496000011	153.0355496000011	153.0355496000011	153.0355496000011	153.0355496000011	153.0355496000011	153.0355496000011	153.0355496000011	153.0355496000011	153.0355496000011	153.0355496000011	153.0355496000011	153.0355496000011	153.0355496000011	0.014575799999875017		155.03564489999917	156.5857552999987	156.5467682999988	"[-0.55, 0.3055555555555556]"	"[-0.36018518518518516, -0.21944444444444444]"	"[1, 0]"	"[0, 0]"	"[0, 1]"	"[0.7288679999983287, 1.9455935999976646]"	4	100	1.9603934999977355	3.4855631999998877								18	03	2024-02-08_15h47.52.652	GDT_exp	2023.2.3	119.92938557760114	2024-02-08 15h48.02.913900 +0100	
dice_2.png	2	2	5	17	1	156.5857552999987													156.54732030000014	156.5857552999987	156.5857552999987	156.5857552999987	156.5857552999987	156.5857552999987	156.5857552999987	156.5857552999987	156.5857552999987	156.5857552999987	156.5857552999987	156.5857552999987	156.5857552999987	156.5857552999987	156.5857552999987	156.5857552999987	156.5857552999987	156.5857552999987	156.5857552999987	156.5857552999987	156.5857552999987	156.5857552999987	156.5857552999987	156.5857552999987	156.5857552999987	156.5857552999987	0.015012199997727294	2.963788299999578	159.58614889999808	161.1110860000008	161.09699999999793	"[0.13240740740740742, 0.1925925925925926]"	"[-0.3398148148148148, -0.24166666666666667]"	"[1, 0]"	"[0, 0]"	"[0, 1]"	"[1.298422900003061, 2.948702700003196]"	4	-100										18	03	2024-02-08_15h47.52.652	GDT_exp	2023.2.3	119.92938557760114	2024-02-08 15h48.02.913900 +0100	
																																																												161.0974430999995	161.1110860000008	161.1110860000008	170.02883369999836	space	8.916882699999405	None	18	03	2024-02-08_15h47.52.652	GDT_exp	2023.2.3	119.92938557760114	2024-02-08 15h48.02.913900 +0100	
