image	max_pumps	pump_loop.thisRepN	pump_loop.thisTrialN	pump_loop.thisN	pump_loop.thisIndex	thisRow.t	notes	Start.started	text_start.started	continue_start.started	mouse_start.started	Start.stopped	mouse_start.x	mouse_start.y	mouse_start.leftButton	mouse_start.midButton	mouse_start.rightButton	mouse_start.time	trials.started	stim_balloon.started	stim_balloon_burst.started	stim_balloon_burst.stopped	text_ballon_value.started	text_bank.started	mouse.started	sound_bang.started	sound_bang.stopped	button_balloon.started	trials.stopped	n_pumps	earnings	popped	mouse.x	mouse.y	mouse.leftButton	mouse.midButton	mouse.rightButton	mouse.time	button_balloon.numClicks	button_balloon.timesOn	button_balloon.timesOff	Feedback.started	text_feedback.started	Feedback.stopped	text_feedback.stopped	End.started	text_end.started	key_end.started	End.stopped	key_end.keys	key_end.rt	key_end.duration	participant	session	date	expName	psychopyVersion	frameRate	expStart	
								0.005301800000324874	0.021273700000165263	0.021273700000165263	0.005761599999914324	2.121496400000069	[0.66]	[-0.4116666666666667]	[1]	[0]	[0]	[2.1148745000000417]																																			02	02	2023-12-14_13h44.22.620	BART_exp	2023.2.2	60.3691938418136	2023-12-14 13h44.36.473513 +0100	
balloon.png	79	0	0	0	18	2.2182141000002957													2.1299331000000166	2.2182141000002957	2.2182141000002957	2.2182141000002957	2.2182141000002957	2.2182141000002957	0.010778599999866856	0.010778599999866856	0.010778599999866856	2.2182141000002957	6.78657370000019	23	1.15	False	"[0.0575, 0.0575, 0.0575, 0.0575, 0.0575, 0.0575, 0.0575, 0.0575, 0.0575, 0.0575, 0.0575, 0.0575, 0.0575, 0.0575, 0.0575, 0.0575, 0.0575, 0.0575, 0.0575, 0.05416666666666667, 0.05333333333333334, 0.05333333333333334, 0.0525, 0.06666666666666667]"	"[-0.385, -0.385, -0.385, -0.385, -0.385, -0.385, -0.385, -0.385, -0.385, -0.385, -0.385, -0.385, -0.385, -0.385, -0.385, -0.385, -0.385, -0.385, -0.385, -0.38166666666666665, -0.38166666666666665, -0.38166666666666665, -0.38333333333333336, -0.23583333333333334]"	"[1, 1, 1, 1, 1, 1, 1, 1, 1, 1, 1, 1, 1, 1, 1, 1, 1, 1, 1, 1, 1, 1, 1, 0]"	"[0, 0, 0, 0, 0, 0, 0, 0, 0, 0, 0, 0, 0, 0, 0, 0, 0, 0, 0, 0, 0, 0, 0, 0]"	"[0, 0, 0, 0, 0, 0, 0, 0, 0, 0, 0, 0, 0, 0, 0, 0, 0, 0, 0, 0, 0, 0, 0, 1]"	"[0.874323000000004, 1.0417740999996568, 1.208017899999959, 1.3740843000000496, 1.540554400000019, 1.6903417999997146, 1.8408089999998083, 1.9902278999998089, 2.1400363999996443, 2.290255200000047, 2.4401742000000013, 2.5732441999998628, 2.723160199999711, 2.8894642999998723, 3.0728328000000147, 3.239618199999768, 3.422623499999645, 3.6057301999999254, 3.772424399999636, 3.9390607999998792, 4.106206499999644, 4.272457799999756, 4.422176799999761, 4.655258499999945]"	23	"[0.8008006999998543, 0.9682530999998562, 1.1344985999999153, 1.3005546999997932, 1.4670194000000265, 1.6168135999996593, 1.7672854999996161, 1.9166878999999426, 2.066485399999692, 2.216701499999999, 2.366610099999889, 2.4997340999998414, 2.649590199999693, 2.815908099999888, 2.9992828999997982, 3.16605619999973, 3.3490615999999136, 3.532163099999707, 3.6988659999997253, 3.865494299999682, 4.0326766999996835, 4.198904500000026, 4.348625899999661]"	"[0.90068569999994, 1.0506243999998333, 1.2004832999996324, 1.3668893999997636, 1.5166903999997885, 1.6833615999998983, 1.8333844999997382, 1.9831485999998222, 2.1496549999997114, 2.2827886000000035, 2.4159474999996746, 2.5659834999996747, 2.715811599999597, 2.865739399999711, 3.065599099999872, 3.232330099999672, 3.415335199999845, 3.581966299999749, 3.748525499999687, 3.931624499999998, 4.098355699999956, 4.264957899999899, 4.448066299999937]"	6.788651800000025	6.810056100000111	8.299386400000003									02	02	2023-12-14_13h44.22.620	BART_exp	2023.2.2	60.3691938418136	2023-12-14 13h44.36.473513 +0100	
balloon.png	23	0	1	1	5	8.341881100000137													8.299656700000014	8.341881100000137	8.341881100000137	8.341881100000137	8.341881100000137	8.341881100000137	0.012851999999838881	0.012851999999838881	0.012851999999838881	8.341881100000137	12.487613600000259	24	1.15	True	"[0.013333333333333334, 0.0125, 0.0125, 0.0125, 0.0125, 0.0125, 0.0125, 0.0125, 0.0125, 0.0125, 0.0125, 0.0125, 0.0125, 0.0125, 0.0125, 0.0125, 0.0125, 0.0125, 0.0125, 0.0125, 0.0125, 0.013333333333333334, 0.014166666666666666, 0.014166666666666666]"	"[-0.4191666666666667, -0.42, -0.42, -0.42, -0.42, -0.42, -0.42, -0.42, -0.42, -0.42, -0.42, -0.42, -0.42, -0.42, -0.42, -0.42, -0.42, -0.42, -0.42, -0.42, -0.42, -0.42, -0.4191666666666667, -0.4191666666666667]"	"[1, 1, 1, 1, 1, 1, 1, 1, 1, 1, 1, 1, 1, 1, 1, 1, 1, 1, 1, 1, 1, 1, 1, 1]"	"[0, 0, 0, 0, 0, 0, 0, 0, 0, 0, 0, 0, 0, 0, 0, 0, 0, 0, 0, 0, 0, 0, 0, 0]"	"[0, 0, 0, 0, 0, 0, 0, 0, 0, 0, 0, 0, 0, 0, 0, 0, 0, 0, 0, 0, 0, 0, 0, 0]"	"[0.11754199999995762, 0.3175186999997095, 0.48388599999998405, 0.6504680999996708, 0.8169448999997257, 0.9837651999996524, 1.167128899999625, 1.35008229999994, 1.5657162999996217, 1.683178599999792, 1.8499891999999818, 2.016551100000015, 2.183124399999997, 2.3500993999996354, 2.533395599999949, 2.699855899999875, 2.86631879999959, 3.032913899999585, 3.215903399999661, 3.3826508999995895, 3.548986799999966, 3.731885499999862, 3.915061499999865, 4.064982399999735]"	24	"[0.08572099999992133, 0.285699200000181, 0.45206710000002204, 0.6186524999998255, 0.7851273999999648, 0.9519438000002083, 1.1353180000000975, 1.3182671999998092, 1.5339051999999356, 1.6513678000001164, 1.8181819999999789, 1.9847392000001491, 2.151342300000124, 2.3183349000000817, 2.5016688999999133, 2.6680889999997817, 2.8345516999997926, 3.0011293000002297, 3.1841153000000304, 3.350861899999927, 3.5171798000001218, 3.70008370000005, 3.8832478999997875, 4.033172699999795]"	"[0.18540870000015275, 0.351944900000035, 0.5352720000000772, 0.718597999999929, 0.8849558000001707, 1.0517632000000958, 1.2348480000000563, 1.4016889999998057, 1.5679528999999093, 1.717851299999893, 1.9178145000000768, 2.0844317000000956, 2.251121400000102, 2.4011922999998205, 2.601060399999824, 2.767458799999986, 2.917178199999853, 3.083994999999959, 3.2670124999999643, 3.4335304999999607, 3.6001329000000624, 3.783221499999854, 3.9330841999999393, 4.099627600000076]"	12.489042100000006	12.502811300000303	13.995726000000104									02	02	2023-12-14_13h44.22.620	BART_exp	2023.2.2	60.3691938418136	2023-12-14 13h44.36.473513 +0100	
balloon.png	66	0	2	2	15	14.038766000000123													13.995987199999945	14.038766000000123	14.038766000000123	14.038766000000123	14.038766000000123	14.038766000000123	0.00890449999997145	0.00890449999997145	0.00890449999997145	14.038766000000123	17.7627679000002	21	1.05	False	"[0.019166666666666665, 0.019166666666666665, 0.019166666666666665, 0.019166666666666665, 0.025, 0.0275, 0.0275, 0.028333333333333332, 0.028333333333333332, 0.028333333333333332, 0.028333333333333332, 0.028333333333333332, 0.028333333333333332, 0.028333333333333332, 0.028333333333333332, 0.028333333333333332, 0.028333333333333332, 0.028333333333333332, 0.0325, 0.03333333333333333, 0.0275]"	"[-0.41833333333333333, -0.41833333333333333, -0.41833333333333333, -0.41833333333333333, -0.4216666666666667, -0.4241666666666667, -0.4241666666666667, -0.425, -0.425, -0.425, -0.425, -0.425, -0.425, -0.425, -0.425, -0.425, -0.425, -0.425, -0.425, -0.425, -0.07916666666666666]"	"[1, 1, 1, 1, 1, 1, 1, 1, 1, 1, 1, 1, 1, 1, 1, 1, 1, 1, 1, 1, 0]"	"[0, 0, 0, 0, 0, 0, 0, 0, 0, 0, 0, 0, 0, 0, 0, 0, 0, 0, 0, 0, 0]"	"[0, 0, 0, 0, 0, 0, 0, 0, 0, 0, 0, 0, 0, 0, 0, 0, 0, 0, 0, 0, 1]"	"[0.13428690000000643, 0.3166946999999709, 0.4842423999998573, 0.6345318999997289, 0.8011824000000161, 0.9840209999997569, 1.1506005999999616, 1.3183054000000993, 1.5004401000001053, 1.7001423000001523, 1.8832784999999603, 2.049938799999836, 2.2164457999997467, 2.4168202999999266, 2.5827878000000055, 2.749292399999831, 2.932320399999753, 3.0988674000000174, 3.265724699999737, 3.4652728999999454, 3.765425099999902]"	20	"[0.10176460000002407, 0.2842027000001508, 0.45175979999976335, 0.6020640000001549, 0.7687402999999904, 0.9515725000001112, 1.1181493999997656, 1.2858422999997856, 1.467962400000033, 1.6676416999998764, 1.8507998000000043, 2.0174354000000676, 2.183937700000115, 2.3843267000002015, 2.5502658999998857, 2.716773600000124, 2.899813600000016, 3.0663461999997708, 3.2332092999999986, 3.4327534999997624]"	"[0.18466099999977814, 0.3682810000000245, 0.5350014999999075, 0.7017157000000225, 0.868114500000047, 1.034755199999836, 1.201206799999909, 1.367641100000128, 1.5507892999999058, 1.7338039000001118, 1.917084000000159, 2.0835934000001544, 2.266733800000111, 2.433257600000161, 2.6165580000001682, 2.7831606999998257, 2.9663245000001552, 3.116157999999814, 3.3160119999997733, 3.4992364999998244]"	17.764024000000063	17.776596000000154	19.275667599999906									02	02	2023-12-14_13h44.22.620	BART_exp	2023.2.2	60.3691938418136	2023-12-14 13h44.36.473513 +0100	
balloon.png	105	0	3	3	24	19.296297400000185													19.27593449999995	19.296297400000185	19.296297400000185	19.296297400000185	19.296297400000185	19.296297400000185	0.014026499999999942	0.014026499999999942	0.014026499999999942	19.296297400000185	24.425430900000265	24	1.20	False	"[0.0075, 0.006666666666666667, 0.006666666666666667, 0.006666666666666667, 0.006666666666666667, 0.006666666666666667, 0.006666666666666667, 0.006666666666666667, 0.006666666666666667, 0.006666666666666667, 0.006666666666666667, 0.006666666666666667, 0.006666666666666667, 0.006666666666666667, 0.006666666666666667, 0.006666666666666667, 0.006666666666666667, 0.006666666666666667, 0.006666666666666667, 0.006666666666666667, 0.006666666666666667, 0.006666666666666667, 0.006666666666666667, 0.006666666666666667, 0.0075, 0.024166666666666666]"	"[-0.3433333333333333, -0.35833333333333334, -0.35833333333333334, -0.35833333333333334, -0.35833333333333334, -0.35833333333333334, -0.35833333333333334, -0.35833333333333334, -0.35833333333333334, -0.35833333333333334, -0.35833333333333334, -0.35833333333333334, -0.35833333333333334, -0.35833333333333334, -0.35833333333333334, -0.35833333333333334, -0.35833333333333334, -0.35833333333333334, -0.35833333333333334, -0.35833333333333334, -0.35833333333333334, -0.35833333333333334, -0.3591666666666667, -0.3591666666666667, -0.3591666666666667, -0.25583333333333336]"	"[1, 1, 1, 1, 1, 1, 1, 1, 1, 1, 1, 1, 1, 1, 1, 1, 1, 1, 1, 1, 1, 1, 1, 1, 1, 0]"	"[0, 0, 0, 0, 0, 0, 0, 0, 0, 0, 0, 0, 0, 0, 0, 0, 0, 0, 0, 0, 0, 0, 0, 0, 0, 0]"	"[0, 0, 0, 0, 0, 0, 0, 0, 0, 0, 0, 0, 0, 0, 0, 0, 0, 0, 0, 0, 0, 0, 0, 0, 0, 1]"	"[0.25070929999992586, 0.5338572999999087, 0.8836468999998033, 1.0833376999999018, 1.2498482000000877, 1.4001342999999906, 1.5665868000000955, 1.766388200000165, 1.9502588000000287, 2.1328568999997515, 2.3162680999998884, 2.499243100000058, 2.682548499999939, 2.865393900000072, 3.0490522999998575, 3.2487952000001314, 3.4154272000000674, 3.5986371999997573, 3.7986289999998917, 3.965240300000005, 4.164977399999771, 4.348212700000204, 4.548773900000015, 4.714912099999765, 4.881973000000016, 5.147935800000141]"	23	"[0.5253863000002639, 0.8751796000001377, 1.0748744000002262, 1.2413787000000411, 1.391670299999987, 1.5581077000001642, 1.7579251000001932, 1.941804300000058, 2.1243882000003396, 2.307791800000359, 2.490776200000255, 2.674082200000157, 2.856936399999995, 3.0405887000001712, 3.240320000000338, 3.406951100000242, 3.5901582999999846, 3.7901609000000462, 3.956777200000033, 4.156515200000285, 4.339763800000128, 4.706495500000074, 4.873652300000231]"	"[0.7750068000000283, 0.9581430000002911, 1.1580680000001848, 1.3079085000003943, 1.507745800000066, 1.6743830000000344, 1.8409777000001668, 2.0242065000002185, 2.2073278000002574, 2.3906106000004, 2.5738099000000147, 2.756995800000368, 2.956981799999994, 3.1400909000003594, 3.3066422000001694, 3.5064314000001104, 3.6896622000003845, 3.8729943000003004, 4.039691200000107, 4.239405400000123, 4.606221300000016, 4.789530000000013, 4.973091900000327]"	24.427204900000106	24.440556200000174	25.93807450000031									02	02	2023-12-14_13h44.22.620	BART_exp	2023.2.2	60.3691938418136	2023-12-14 13h44.36.473513 +0100	
balloon.png	44	0	4	4	10	25.97561870000027													25.938419000000067	25.97561870000027	25.97561870000027	25.97561870000027	25.97561870000027	25.97561870000027	0.01353049999988798	0.01353049999988798	0.01353049999988798	25.97561870000027	31.137202200000047	25	1.25	False	"[0.015833333333333335, 0.015833333333333335, 0.0175, 0.0175, 0.0175, 0.0175, 0.0175, 0.0175, 0.0175, 0.0175, 0.0175, 0.0175, 0.0175, 0.0175, 0.0175, 0.0175, 0.0175, 0.0175, 0.0175, 0.0175, 0.0175, 0.0175, 0.0175, 0.0175, 0.0175, 0.0175, 0.0175, 0.0175]"	"[-0.4375, -0.4375, -0.415, -0.415, -0.415, -0.415, -0.415, -0.415, -0.415, -0.415, -0.415, -0.415, -0.415, -0.415, -0.415, -0.415, -0.415, -0.415, -0.415, -0.415, -0.415, -0.415, -0.415, -0.415, -0.415, -0.415, -0.415, -0.29583333333333334]"	"[1, 1, 1, 1, 1, 1, 1, 1, 1, 1, 1, 1, 1, 1, 1, 1, 1, 1, 1, 1, 1, 1, 1, 1, 1, 1, 1, 0]"	"[0, 0, 0, 0, 0, 0, 0, 0, 0, 0, 0, 0, 0, 0, 0, 0, 0, 0, 0, 0, 0, 0, 0, 0, 0, 0, 0, 0]"	"[0, 0, 0, 0, 0, 0, 0, 0, 0, 0, 0, 0, 0, 0, 0, 0, 0, 0, 0, 0, 0, 0, 0, 0, 0, 0, 0, 1]"	"[0.18424060000006648, 0.35100939999983893, 0.6338182999998025, 0.800461599999835, 1.0001999999999498, 1.1832436999998208, 1.3501992999999857, 1.5498625999998694, 1.7331466999999066, 1.9162379999997938, 2.099181900000076, 2.2658743000001778, 2.448933499999839, 2.6321788000000197, 2.799139799999921, 2.9655729000000974, 3.132112700000107, 3.3151056000001518, 3.4981763999999202, 3.681413700000121, 3.8479742999998052, 4.0148457000000235, 4.198080600000139, 4.364720000000034, 4.547739499999807, 4.71432730000015, 4.897724500000095, 5.197134800000185]"	25	"[0.6091216999998323, 0.7757542999997895, 0.9754964999997355, 1.1585247999996682, 1.3254650999997466, 1.5251268999995773, 1.7084164999996574, 1.8914934999997968, 2.0744307999998455, 2.2411329999999907, 2.4241907999999057, 2.607430899999599, 2.7744079999997666, 2.9408296999999948, 3.1073820999999953, 3.2903480999998465, 3.4734222999995836, 3.656666200000018, 3.8232233999997334, 3.990094699999645, 4.173326599999655, 4.339968999999655, 4.522983599999861, 4.689566399999876, 4.872961199999736]"	"[0.7088354999996227, 0.8920567999998639, 1.075243099999625, 1.2417343999995865, 1.4249033999999483, 1.6081043999997746, 1.8078285999999935, 1.9744877999996788, 2.1575230999997075, 2.3241148999995858, 2.5073632999997244, 2.67388579999988, 2.840524899999764, 3.0236981999996715, 3.1903215999996064, 3.3570230999998785, 3.539935499999956, 3.7398068999996212, 3.889820999999756, 4.0896419999999125, 4.256170299999667, 4.422737999999754, 4.589223599999968, 4.772621799999797, 4.989034199999878]"	31.138799400000153	31.151082300000326	32.63427040000033	32.650303500000064								02	02	2023-12-14_13h44.22.620	BART_exp	2023.2.2	60.3691938418136	2023-12-14 13h44.36.473513 +0100	
balloon.png	62	0	5	5	14	32.650303500000064													32.63451179999993	32.650303500000064	32.650303500000064	32.650303500000064	32.650303500000064	32.650303500000064	0.011611899999934394	0.011611899999934394	0.011611899999934394	32.650303500000064	37.71662210000022	23	1.15	False	"[-0.0033333333333333335, -0.0033333333333333335, 0.014166666666666666, 0.014166666666666666, 0.014166666666666666, 0.014166666666666666, 0.014166666666666666, 0.014166666666666666, 0.014166666666666666, 0.014166666666666666, 0.014166666666666666, 0.016666666666666666, 0.018333333333333333, 0.018333333333333333, 0.018333333333333333, 0.019166666666666665, 0.019166666666666665, 0.020833333333333332, 0.0325, 0.035833333333333335, 0.035833333333333335, 0.035833333333333335, 0.04083333333333333, 0.04083333333333333, 0.03833333333333333, 0.0525]"	"[-0.42916666666666664, -0.42916666666666664, -0.3983333333333333, -0.3983333333333333, -0.3983333333333333, -0.3983333333333333, -0.3983333333333333, -0.3983333333333333, -0.3983333333333333, -0.3983333333333333, -0.3983333333333333, -0.39666666666666667, -0.39666666666666667, -0.39666666666666667, -0.39666666666666667, -0.39666666666666667, -0.39666666666666667, -0.395, -0.38916666666666666, -0.3875, -0.3875, -0.3875, -0.38666666666666666, -0.3875, -0.38916666666666666, -0.1]"	"[1, 1, 1, 1, 1, 1, 1, 1, 1, 1, 1, 1, 1, 1, 1, 1, 1, 1, 1, 1, 1, 1, 1, 1, 1, 0]"	"[0, 0, 0, 0, 0, 0, 0, 0, 0, 0, 0, 0, 0, 0, 0, 0, 0, 0, 0, 0, 0, 0, 0, 0, 0, 0]"	"[0, 0, 0, 0, 0, 0, 0, 0, 0, 0, 0, 0, 0, 0, 0, 0, 0, 0, 0, 0, 0, 0, 0, 0, 0, 1]"	"[0.16719789999979184, 0.350143399999979, 0.5836146000001463, 0.7668134000000464, 0.9662963000000673, 1.1495138000000225, 1.3327669999998761, 1.515980000000127, 1.716092000000117, 1.93252960000018, 2.165355499999805, 2.365534900000057, 2.58196450000014, 2.76537049999979, 2.9984795999998823, 3.1831750000001193, 3.3983901000001424, 3.5815096999999696, 3.7978822000000036, 3.9810332000001836, 4.147782300000017, 4.3144296999998915, 4.497483499999817, 4.647559800000181, 4.831654900000103, 5.080837299999985]"	23	"[0.5807494999999108, 0.7639367000001585, 0.9634252999999262, 1.1466371999999865, 1.3298986999998306, 1.5131194999999025, 1.7132212999999865, 1.9296509999999216, 2.1625017999999727, 2.3626734999998007, 2.579095000000052, 2.7625026000000616, 2.9956120000001647, 3.180313400000159, 3.3955237000000125, 3.5786400000001777, 3.795013800000106, 3.978162599999905, 4.144912799999929, 4.311559899999793, 4.494618400000036, 4.644699200000105, 4.828785300000163]"	"[0.6802431999999499, 0.863318100000015, 1.0465464999997494, 1.2463858999999502, 1.4131207999998878, 1.6129218999999466, 1.829411700000037, 2.029239899999993, 2.2458778999998685, 2.462420800000018, 2.6621682999998484, 2.8954352000000654, 3.111961600000086, 3.3118632999999136, 3.4783975000000282, 3.6615736999997353, 3.8448402999997597, 4.028004499999952, 4.211163999999826, 4.3945199999998295, 4.561054599999807, 4.7442965999998705, 4.927451099999871]"	37.71796930000028	37.73035690000006	39.22955129999991									02	02	2023-12-14_13h44.22.620	BART_exp	2023.2.2	60.3691938418136	2023-12-14 13h44.36.473513 +0100	
balloon.png	10	0	6	6	2	39.26521529999991													39.2298181000001	39.26521529999991	39.26521529999991	39.26521529999991	39.26521529999991	39.26521529999991	0.013806600000407343	0.013806600000407343	0.013806600000407343	39.26521529999991	41.43116680000003	11	0.50	True	"[-0.005833333333333334, -0.005833333333333334, -0.005833333333333334, -0.005833333333333334, -0.005833333333333334, -0.005833333333333334, -0.005833333333333334, -0.005833333333333334, -0.005833333333333334, -0.005833333333333334, -0.005833333333333334]"	"[-0.39416666666666667, -0.39416666666666667, -0.39416666666666667, -0.39416666666666667, -0.39416666666666667, -0.39416666666666667, -0.39416666666666667, -0.39416666666666667, -0.39416666666666667, -0.39416666666666667, -0.39416666666666667]"	"[1, 1, 1, 1, 1, 1, 1, 1, 1, 1, 1]"	"[0, 0, 0, 0, 0, 0, 0, 0, 0, 0, 0]"	"[0, 0, 0, 0, 0, 0, 0, 0, 0, 0, 0]"	"[0.267735200000061, 0.4338812000000871, 0.6169269000001805, 0.8000574000002416, 0.9834162000001925, 1.1668451999998979, 1.366690600000311, 1.5332754999999452, 1.7165431000003082, 1.8997380999999223, 2.0995115000000624]"	11	"[0.24305839999988166, 0.4091998999997486, 0.5922554999997374, 0.7753821999999673, 0.9587415999999394, 1.14218129999972, 1.3420155999997405, 1.5086034999999356, 1.6918802000000142, 1.8750663999999233, 2.074861900000087]"	"[0.3422302999997555, 0.508810899999844, 0.692032399999789, 0.8752414999999019, 1.04186559999971, 1.2250813999999082, 1.4082696000000396, 1.5914837000000261, 1.7746895000000222, 1.9745453000000452, 2.157785899999908]"	41.4322344000002	41.44456020000007	42.94370170000002									02	02	2023-12-14_13h44.22.620	BART_exp	2023.2.2	60.3691938418136	2023-12-14 13h44.36.473513 +0100	
balloon.png	84	0	7	7	19	42.98979720000034													42.943964999999935	42.98979720000034	42.98979720000034	42.98979720000034	42.98979720000034	42.98979720000034	0.013507799999842973	0.013507799999842973	0.013507799999842973	42.98979720000034	47.06066409999994	21	1.05	False	"[-0.005833333333333334, -0.005833333333333334, -0.005833333333333334, -0.005833333333333334, -0.005833333333333334, -0.005833333333333334, -0.005833333333333334, -0.005833333333333334, -0.005833333333333334, -0.005833333333333334, -0.005833333333333334, -0.005833333333333334, -0.005833333333333334, -0.005833333333333334, -0.005833333333333334, -0.005833333333333334, -0.005833333333333334, -0.005833333333333334, -0.005833333333333334, -0.005833333333333334, -0.005833333333333334, 0.04833333333333333]"	"[-0.39416666666666667, -0.39416666666666667, -0.39416666666666667, -0.39416666666666667, -0.39416666666666667, -0.39416666666666667, -0.39416666666666667, -0.39416666666666667, -0.39416666666666667, -0.39416666666666667, -0.39416666666666667, -0.39416666666666667, -0.39416666666666667, -0.39416666666666667, -0.39416666666666667, -0.39416666666666667, -0.39416666666666667, -0.39416666666666667, -0.39416666666666667, -0.39416666666666667, -0.39416666666666667, -0.21833333333333332]"	"[1, 1, 1, 1, 1, 1, 1, 1, 1, 1, 1, 1, 1, 1, 1, 1, 1, 1, 1, 1, 1, 0]"	"[0, 0, 0, 0, 0, 0, 0, 0, 0, 0, 0, 0, 0, 0, 0, 0, 0, 0, 0, 0, 0, 0]"	"[0, 0, 0, 0, 0, 0, 0, 0, 0, 0, 0, 0, 0, 0, 0, 0, 0, 0, 0, 0, 0, 1]"	"[0.04726249999976062, 0.2173878999997214, 0.4007302999998501, 0.6007181999998465, 0.8003125999998701, 0.983604799999739, 1.183312599999681, 1.3667452999998204, 1.5499343999999837, 1.7328843000000234, 1.899942199999714, 2.083157499999743, 2.2829290999998193, 2.466116399999919, 2.6493533999996544, 2.8326578999999583, 3.0323387999997067, 3.215420600000016, 3.398624199999631, 3.6155737999997655, 3.782137199999852, 4.115280099999836]"	21	"[0.0004758999998557556, 0.18185089999997217, 0.36519600000019636, 0.5652016999997613, 0.7647845000001325, 0.9480758999998216, 1.1477799999997842, 1.3312111000000186, 1.5144193000000996, 1.6973635999997896, 1.8644404000001487, 2.0476482999997643, 2.247482199999922, 2.430591800000002, 2.6138301000000865, 2.79713589999983, 2.9968110999998316, 3.179909200000111, 3.363100900000063, 3.5800946999997905, 3.7466777999998158]"	"[0.09826629999997749, 0.2648417000000336, 0.4647251999999753, 0.6480824000000212, 0.8479628000000048, 1.03110659999993, 1.214259200000015, 1.4141779999999926, 1.5974677999997766, 1.7807463999997708, 1.9639154000001326, 2.163734100000056, 2.3301775999998426, 2.5300600999999006, 2.6966937000001963, 2.8965180000000146, 3.09641640000018, 3.2631271000000197, 3.463277500000004, 3.663190499999928, 3.846479100000124]"	47.062281500000154	47.07428350000009	48.57314990000032									02	02	2023-12-14_13h44.22.620	BART_exp	2023.2.2	60.3691938418136	2023-12-14 13h44.36.473513 +0100	
balloon.png	118	0	8	8	27	48.60972330000004													48.573410100000274	48.60972330000004	48.60972330000004	48.60972330000004	48.60972330000004	48.60972330000004	0.013224000000263914	0.013224000000263914	0.013224000000263914	48.60972330000004	56.388039800000115	41	2.05	False	"[0.051666666666666666, 0.051666666666666666, 0.051666666666666666, 0.051666666666666666, 0.051666666666666666, 0.051666666666666666, 0.051666666666666666, 0.051666666666666666, 0.051666666666666666, 0.051666666666666666, 0.051666666666666666, 0.051666666666666666, 0.051666666666666666, 0.051666666666666666, 0.051666666666666666, 0.051666666666666666, 0.051666666666666666, 0.051666666666666666, 0.051666666666666666, 0.051666666666666666, 0.051666666666666666, 0.051666666666666666, 0.051666666666666666, 0.051666666666666666, 0.051666666666666666, 0.05416666666666667, 0.05416666666666667, 0.056666666666666664, 0.056666666666666664, 0.060833333333333336, 0.060833333333333336, 0.060833333333333336, 0.06416666666666666, 0.06583333333333333, 0.06583333333333333, 0.06583333333333333, 0.06583333333333333, 0.06583333333333333, 0.06583333333333333, 0.06333333333333334, 0.0525]"	"[-0.36666666666666664, -0.36666666666666664, -0.36666666666666664, -0.36666666666666664, -0.36666666666666664, -0.36666666666666664, -0.36666666666666664, -0.3675, -0.3675, -0.3675, -0.3675, -0.3675, -0.3675, -0.3675, -0.3675, -0.36833333333333335, -0.36833333333333335, -0.36833333333333335, -0.36833333333333335, -0.36833333333333335, -0.36833333333333335, -0.36833333333333335, -0.36833333333333335, -0.36833333333333335, -0.36833333333333335, -0.37083333333333335, -0.37083333333333335, -0.37416666666666665, -0.37416666666666665, -0.37666666666666665, -0.37666666666666665, -0.37666666666666665, -0.38166666666666665, -0.38166666666666665, -0.38166666666666665, -0.38166666666666665, -0.38166666666666665, -0.38166666666666665, -0.38166666666666665, -0.38166666666666665, -0.17666666666666667]"	"[1, 1, 1, 1, 1, 1, 1, 1, 1, 1, 1, 1, 1, 1, 1, 1, 1, 1, 1, 1, 1, 1, 1, 1, 1, 1, 1, 1, 1, 1, 1, 1, 1, 1, 1, 1, 1, 1, 1, 1, 0]"	"[0, 0, 0, 0, 0, 0, 0, 0, 0, 0, 0, 0, 0, 0, 0, 0, 0, 0, 0, 0, 0, 0, 0, 0, 0, 0, 0, 0, 0, 0, 0, 0, 0, 0, 0, 0, 0, 0, 0, 0, 0]"	"[0, 0, 0, 0, 0, 0, 0, 0, 0, 0, 0, 0, 0, 0, 0, 0, 0, 0, 0, 0, 0, 0, 0, 0, 0, 0, 0, 0, 0, 0, 0, 0, 0, 0, 0, 0, 0, 0, 0, 0, 1]"	"[0.18410949999997683, 0.3674682999999277, 0.5509342999998807, 0.7339302999998836, 0.9007345999998506, 1.083871299999828, 1.2671725000000151, 1.450315899999623, 1.6501934999996593, 1.8333967999997185, 2.0330919999996695, 2.2164734999996654, 2.416161899999679, 2.583038899999792, 2.7662736999996014, 2.982730199999878, 3.165887499999826, 3.332494599999791, 3.5321367999999893, 3.7152955999999904, 3.8984974999998485, 4.0819258999999875, 4.298141599999781, 4.4813663999998425, 4.681536699999924, 4.864566399999603, 5.064448199999788, 5.231236999999965, 5.414422399999694, 5.598043999999845, 5.780981399999746, 5.947604399999818, 6.148447499999747, 6.347127199999704, 6.513668699999926, 6.713614999999663, 6.929992899999888, 7.129896999999801, 7.329900799999905, 7.513064999999642, 7.813314099999843]"	40	"[0.15805779999982406, 0.34142819999988205, 0.524900500000058, 0.7078848000001017, 0.8746849999997721, 1.0578206000000137, 1.2411425999998755, 1.4242709000000104, 1.624156700000185, 1.8073542000001908, 2.0070558000002165, 2.190432899999905, 2.3901334000001953, 2.5569875999999567, 2.74023249999982, 2.9566885999997794, 3.1398371000000225, 3.3064543000000413, 3.506110599999829, 3.6892468999999437, 3.872457399999803, 4.055877499999951, 4.272084000000177, 4.455324399999881, 4.655499299999974, 4.838525699999991, 5.038404400000218, 5.20519349999995, 5.38838080000005, 5.5720148999998855, 5.754950300000019, 5.921589999999924, 6.12240920000022, 6.321083400000134, 6.487618199999815, 6.6875826999998935, 6.903957999999875, 7.103842699999859, 7.303868299999976, 7.48702319999984]"	"[0.24137460000019928, 0.42455310000013924, 0.6077927000001182, 0.8075745000001007, 0.9741094000000885, 1.1572692999998253, 1.3574125999998614, 1.5404284000001098, 1.7237408999999388, 1.9070252000001346, 2.0901826999997866, 2.289945500000158, 2.4566733999999997, 2.6564331999998103, 2.8397138999998788, 3.0228793999999652, 3.2394617999998445, 3.4226488999997855, 3.6057888000000275, 3.7890905999997813, 3.9722341000001506, 4.172113199999785, 4.355314999999791, 4.53860399999985, 4.738448499999777, 4.921842000000197, 5.12145129999999, 5.288110999999844, 5.488146300000153, 5.671215200000006, 5.8377096999997775, 6.021080600000005, 6.220747200000005, 6.387409099999786, 6.5873139000000265, 6.770518599999832, 6.986997699999847, 7.2034349999998994, 7.370089900000039, 7.636330700000144]"	56.39000269999997	56.402026000000205	57.90066800000022									02	02	2023-12-14_13h44.22.620	BART_exp	2023.2.2	60.3691938418136	2023-12-14 13h44.36.473513 +0100	
balloon.png	114	0	9	9	26	57.959512800000084													57.90093770000021	57.959512800000084	57.959512800000084	57.959512800000084	57.959512800000084	57.959512800000084	0.012694200000169076	0.012694200000169076	0.012694200000169076	57.959512800000084	64.13314859999991	28	1.40	False	"[-0.0575, -0.0575, -0.0575, -0.0575, -0.0575, -0.0575, -0.0575, -0.0575, -0.0575, -0.0575, -0.0575, -0.0575, -0.0575, -0.0575, -0.0575, -0.0575, -0.0575, -0.0575, -0.0575, -0.0575, -0.0575, -0.0575, -0.05583333333333333, -0.055, -0.055, -0.055, -0.055, -0.05333333333333334, -0.051666666666666666, -0.009166666666666667, 0.05333333333333334]"	"[-0.3675, -0.3675, -0.3675, -0.3675, -0.3675, -0.3675, -0.3675, -0.3675, -0.3675, -0.3675, -0.3675, -0.3675, -0.3675, -0.3675, -0.3675, -0.3675, -0.3675, -0.3675, -0.3675, -0.3675, -0.3675, -0.3675, -0.37083333333333335, -0.37166666666666665, -0.37166666666666665, -0.37166666666666665, -0.37166666666666665, -0.37166666666666665, -0.37166666666666665, -0.31416666666666665, 0.175]"	"[1, 1, 1, 1, 1, 1, 1, 1, 1, 1, 1, 1, 1, 1, 1, 1, 1, 1, 1, 1, 1, 1, 1, 1, 1, 1, 1, 1, 1, 1, 0]"	"[0, 0, 0, 0, 0, 0, 0, 0, 0, 0, 0, 0, 0, 0, 0, 0, 0, 0, 0, 0, 0, 0, 0, 0, 0, 0, 0, 0, 0, 0, 0]"	"[0, 0, 0, 0, 0, 0, 0, 0, 0, 0, 0, 0, 0, 0, 0, 0, 0, 0, 0, 0, 0, 0, 0, 0, 0, 0, 0, 0, 0, 0, 1]"	"[0.31768529999999373, 0.500759300000027, 0.7006062999998903, 0.8837578000002395, 1.0670039000001452, 1.2667382999998154, 1.4666348999999173, 1.6996208999998998, 1.8829162000001816, 2.082756899999822, 2.266237100000126, 2.466037000000142, 2.6491147000001547, 2.8491195000001426, 3.032336799999939, 3.23198339999999, 3.415285699999913, 3.5821068000000196, 3.7654382000000624, 3.965351499999997, 4.14835579999999, 4.3317562000002, 4.533658299999843, 4.733243799999855, 4.93118719999984, 5.148294999999962, 5.331327599999895, 5.516348499999822, 5.716285299999981, 5.931383600000117, 6.230752400000256]"	29	"[0.26911920000020473, 0.45220789999984845, 0.6520478000002186, 0.8352124000002732, 1.01844519999986, 1.2181829000001017, 1.418076700000256, 1.634706300000289, 1.8343691000000035, 2.0342012000000977, 2.217681099999936, 2.41747340000029, 2.600564100000156, 2.800562599999921, 2.983776200000193, 3.183419800000138, 3.366738499999883, 3.5335626999999477, 3.716900700000224, 3.9168079999999463, 4.099792400000297, 4.2832392000000254, 4.485153500000251, 4.684743199999957, 4.882659899999908, 5.09981740000012, 5.282834900000125, 5.467906599999878, 5.66784030000008]"	"[0.3683408000001691, 0.551533400000153, 0.7515809000001354, 0.9514852000002065, 1.1346720999999889, 1.3344970000002832, 1.5345029999998587, 1.7343025000000125, 1.9341158000001997, 2.117384099999981, 2.30060420000018, 2.500401199999942, 2.7003233000000364, 2.900229599999875, 3.0833631999998943, 3.266654600000038, 3.4500301000002764, 3.6498231000000487, 3.833051399999931, 4.016164800000297, 4.199402199999895, 4.399595800000043, 4.599359100000129, 4.799317999999857, 4.999180900000283, 5.1991901000001235, 5.415744100000211, 5.599971099999948, 5.800567000000228]"	64.13518060000024	64.14840640000011	65.6456191000002									02	02	2023-12-14_13h44.22.620	BART_exp	2023.2.2	60.3691938418136	2023-12-14 13h44.36.473513 +0100	
balloon.png	88	0	10	10	20	65.70861659999991													65.64588550000008	65.70861659999991	65.70861659999991	65.70861659999991	65.70861659999991	65.70861659999991	0.012649099999634927	0.012649099999634927	0.012649099999634927	65.70861659999991	70.44552980000026	24	1.20	False	"[-0.059166666666666666, -0.059166666666666666, -0.0575, -0.0575, -0.0575, -0.0575, -0.0575, -0.0575, -0.0575, -0.0575, -0.0575, -0.0575, -0.0575, -0.0575, -0.0575, -0.0575, -0.0575, -0.034166666666666665, -0.016666666666666666, -0.015, -0.015, -0.015, -0.014166666666666666, -0.014166666666666666, 0.028333333333333332]"	"[-0.38916666666666666, -0.38916666666666666, -0.38916666666666666, -0.38916666666666666, -0.38916666666666666, -0.38916666666666666, -0.38916666666666666, -0.38916666666666666, -0.38916666666666666, -0.38916666666666666, -0.38916666666666666, -0.38916666666666666, -0.38916666666666666, -0.38916666666666666, -0.38916666666666666, -0.38916666666666666, -0.38916666666666666, -0.39916666666666667, -0.4, -0.4, -0.4, -0.4, -0.4, -0.4, -0.2725]"	"[1, 1, 1, 1, 1, 1, 1, 1, 1, 1, 1, 1, 1, 1, 1, 1, 1, 1, 1, 1, 1, 1, 1, 1, 0]"	"[0, 0, 0, 0, 0, 0, 0, 0, 0, 0, 0, 0, 0, 0, 0, 0, 0, 0, 0, 0, 0, 0, 0, 0, 0]"	"[0, 0, 0, 0, 0, 0, 0, 0, 0, 0, 0, 0, 0, 0, 0, 0, 0, 0, 0, 0, 0, 0, 0, 0, 1]"	"[0.35053000000016254, 0.5010581999999886, 0.683667400000104, 0.8504913000001579, 1.0501048000000992, 1.2336497000001145, 1.43319560000009, 1.6164316000003964, 1.7829455000000962, 1.966490199999953, 2.166110900000149, 2.3493153000003986, 2.5327753000001394, 2.7158441000001403, 2.915794900000037, 3.0990558000003148, 3.282347700000173, 3.4655030000003535, 3.648489100000006, 3.8484292000002824, 4.014951699999983, 4.181955300000027, 4.364918800000396, 4.531725000000279, 4.7982042000003275]"	24	"[0.2980502999998862, 0.4485791000001882, 0.6167618999998012, 0.7980148000001464, 0.997622500000034, 1.1811931000002005, 1.3807198999998036, 1.5639565000001312, 1.7304583999998613, 1.9140034000001833, 2.113626899999872, 2.2968400999998266, 2.4802934999997888, 2.6633624000000964, 2.8633129999998346, 3.0465957999999773, 3.2298722999998972, 3.4130307999998877, 3.596024899999975, 3.795945700000175, 3.962484499999846, 4.129501299999902, 4.312481299999945, 4.479281299999911]"	"[0.3646115000001373, 0.5312566000002334, 0.7143833999998606, 0.8975236999999652, 1.0974709000001894, 1.2641266999999061, 1.4638580999999249, 1.6303431000001183, 1.8302324999999655, 2.0302317000000585, 2.213343899999927, 2.396568799999841, 2.5797413000000233, 2.7630597000002126, 2.9461919000000307, 3.1294883999999, 3.3129681000000346, 3.4960618999998587, 3.695868100000098, 3.8622802999998385, 4.029067599999962, 4.212375600000087, 4.3954014000000825, 4.5786653000000115]"	70.44700880000028	70.45905429999993	71.95829840000033									02	02	2023-12-14_13h44.22.620	BART_exp	2023.2.2	60.3691938418136	2023-12-14 13h44.36.473513 +0100	
balloon.png	110	0	11	11	25	72.01747550000027													71.95859169999994	72.01747550000027	72.01747550000027	72.01747550000027	72.01747550000027	72.01747550000027	0.013384200000018609	0.013384200000018609	0.013384200000018609	72.01747550000027	77.52385060000006	27	1.35	False	"[0.015833333333333335, 0.015833333333333335, 0.015833333333333335, 0.015833333333333335, 0.014166666666666666, 0.018333333333333333, 0.023333333333333334, 0.023333333333333334, 0.023333333333333334, 0.023333333333333334, 0.023333333333333334, 0.023333333333333334, 0.023333333333333334, 0.023333333333333334, 0.023333333333333334, 0.023333333333333334, 0.023333333333333334, 0.023333333333333334, 0.023333333333333334, 0.023333333333333334, 0.023333333333333334, 0.023333333333333334, 0.023333333333333334, 0.023333333333333334, 0.023333333333333334, 0.023333333333333334, 0.049166666666666664]"	"[-0.39, -0.39, -0.39, -0.39, -0.39166666666666666, -0.3925, -0.3925, -0.3925, -0.3925, -0.3925, -0.3925, -0.3925, -0.3925, -0.3925, -0.3925, -0.3925, -0.3925, -0.3925, -0.3925, -0.3925, -0.3925, -0.3925, -0.3925, -0.3925, -0.3925, -0.3925, -0.13083333333333333]"	"[1, 1, 1, 1, 1, 1, 1, 1, 1, 1, 1, 1, 1, 1, 1, 1, 1, 1, 1, 1, 1, 1, 1, 1, 1, 1, 0]"	"[0, 0, 0, 0, 0, 0, 0, 0, 0, 0, 0, 0, 0, 0, 0, 0, 0, 0, 0, 0, 0, 0, 0, 0, 0, 0, 0]"	"[0, 0, 0, 0, 0, 0, 0, 0, 0, 0, 0, 0, 0, 0, 0, 0, 0, 0, 0, 0, 0, 0, 0, 0, 0, 0, 1]"	"[0.13386029999992388, 0.3172862999999779, 0.5006794999999329, 0.7005586999998741, 0.9006816999999501, 1.1002677000001313, 1.2998377999997501, 1.483456699999806, 1.6998125999998592, 1.9163783999997577, 2.1162286999997377, 2.2994705000000977, 2.4827476999998908, 2.682509199999913, 2.899028400000134, 3.09903869999971, 3.315426899999693, 3.5317675000001145, 3.748601400000098, 3.9983326999999917, 4.198284000000058, 4.481017900000097, 4.68106089999992, 4.89757950000012, 5.080877200000032, 5.263949499999853, 5.563890399999764]"	26	"[0.0849913000001834, 0.2684309999999641, 0.45182660000000396, 0.6517036999998709, 0.8518248999998832, 1.0514137000000119, 1.251003800000035, 1.4346040999998877, 1.6509593000000677, 1.8675241000000824, 2.067374199999904, 2.250615200000084, 2.43388670000013, 2.633657100000164, 2.850173799999993, 3.050178099999812, 3.266572399999859, 3.4829165000001012, 3.699748500000169, 3.949476499999946, 4.149428400000033, 4.432174900000064, 4.632208500000161, 4.848734700000023, 5.032021600000007, 5.215094300000146]"	"[0.20151840000016819, 0.36807839999983116, 0.5679581999997936, 0.7513012999997954, 0.9676641000000927, 1.1509894999999233, 1.3509045999999216, 1.5507339999999203, 1.750628400000096, 1.950408900000184, 2.15025710000009, 2.3502134999998816, 2.550005399999918, 2.7499229000000014, 2.983064900000045, 3.1996500000000196, 3.3995488000000478, 3.6158564000002116, 3.849220200000218, 4.0657264000001305, 4.298936900000172, 4.565624400000161, 4.765302299999803, 4.948478599999817, 5.13171710000006, 5.314872299999934]"	77.52531350000027	77.5378026000003	79.03710200000023									02	02	2023-12-14_13h44.22.620	BART_exp	2023.2.2	60.3691938418136	2023-12-14 13h44.36.473513 +0100	
balloon.png	75	0	12	12	17	79.08648140000014													79.03736939999999	79.08648140000014	79.08648140000014	79.08648140000014	79.08648140000014	79.08648140000014	0.01383399999986068	0.01383399999986068	0.01383399999986068	79.08648140000014	84.88592990000006	25	1.25	False	"[0.018333333333333333, 0.018333333333333333, 0.018333333333333333, 0.018333333333333333, 0.018333333333333333, 0.018333333333333333, 0.018333333333333333, 0.018333333333333333, 0.018333333333333333, 0.018333333333333333, 0.018333333333333333, 0.018333333333333333, 0.018333333333333333, 0.018333333333333333, 0.018333333333333333, 0.018333333333333333, 0.018333333333333333, 0.018333333333333333, 0.018333333333333333, 0.018333333333333333, 0.018333333333333333, 0.018333333333333333, 0.018333333333333333, 0.018333333333333333, 0.018333333333333333, 0.0875]"	"[-0.35583333333333333, -0.35583333333333333, -0.35583333333333333, -0.35583333333333333, -0.35583333333333333, -0.35583333333333333, -0.35583333333333333, -0.35583333333333333, -0.35583333333333333, -0.35583333333333333, -0.35583333333333333, -0.3575, -0.3575, -0.3575, -0.3575, -0.3575, -0.3575, -0.3575, -0.3575, -0.3575, -0.3575, -0.3575, -0.3575, -0.3575, -0.3575, -0.10833333333333334]"	"[1, 1, 1, 1, 1, 1, 1, 1, 1, 1, 1, 1, 1, 1, 1, 1, 1, 1, 1, 1, 1, 1, 1, 1, 1, 0]"	"[0, 0, 0, 0, 0, 0, 0, 0, 0, 0, 0, 0, 0, 0, 0, 0, 0, 0, 0, 0, 0, 0, 0, 0, 0, 0]"	"[0, 0, 0, 0, 0, 0, 0, 0, 0, 0, 0, 0, 0, 0, 0, 0, 0, 0, 0, 0, 0, 0, 0, 0, 0, 1]"	"[0.31730389999984254, 0.48383960000001025, 0.6671784999998636, 0.8670832999996492, 1.0835088999997424, 1.2833928999998534, 1.499957600000016, 2.0159561999998914, 2.182881599999746, 2.382467699999779, 2.549308199999814, 2.732450399999834, 2.9325235999999677, 3.315488599999753, 3.531893299999865, 3.731784399999924, 3.914999699999953, 4.114945099999659, 4.314562300000034, 4.5145832999996856, 4.730976199999986, 4.931052500000078, 5.1307763999998315, 5.314067299999806, 5.513999699999658, 5.847240499999771]"	25	"[0.2782126000001881, 0.4447378999998364, 0.6280925000000934, 0.8279984999999215, 1.0444188999999824, 1.2443001999999979, 1.4608739000000242, 1.9768693000000894, 2.143793199999891, 2.3433718999999655, 2.5102249999999913, 2.693369000000075, 2.8934367000001657, 3.2763967000000775, 3.4927953000001253, 3.692689999999857, 3.8759101999999075, 4.075860999999804, 4.275474000000031, 4.475496600000042, 4.691881199999898, 4.891968899999938, 5.091690499999913, 5.274977900000067, 5.474913200000174]"	"[0.34440219999987676, 0.5444139999999607, 0.7276450999997905, 0.9607566999998198, 1.1440340999997716, 1.3272530999997798, 1.560428199999933, 2.0100185000001147, 2.243185899999844, 2.4262880000001132, 2.6263826999997946, 2.826295299999856, 3.192716300000029, 3.392561999999998, 3.5757542999999714, 3.7757321999997657, 3.958849099999952, 4.175355100000161, 4.375275800000054, 4.591669200000069, 4.7918822000001455, 5.0081466999999975, 5.191355200000089, 5.391447299999982, 5.607722499999909]"	84.88732870000013	84.8997445	86.38324130000001	86.39874240000017								02	02	2023-12-14_13h44.22.620	BART_exp	2023.2.2	60.3691938418136	2023-12-14 13h44.36.473513 +0100	
balloon.png	127	0	13	13	29	86.39874240000017													86.38385020000032	86.39874240000017	86.39874240000017	86.39874240000017	86.39874240000017	86.39874240000017	0.011520300000029238	0.011520300000029238	0.011520300000029238	86.39874240000017	91.81435890000012	26	1.30	False	"[0.025, 0.025, 0.025, 0.025, 0.025, 0.025, 0.025, 0.028333333333333332, 0.028333333333333332, 0.028333333333333332, 0.028333333333333332, 0.028333333333333332, 0.028333333333333332, 0.028333333333333332, 0.028333333333333332, 0.028333333333333332, 0.028333333333333332, 0.028333333333333332, 0.028333333333333332, 0.028333333333333332, 0.028333333333333332, 0.028333333333333332, 0.028333333333333332, 0.028333333333333332, 0.028333333333333332, 0.0575]"	"[-0.4075, -0.4075, -0.4075, -0.4075, -0.4075, -0.4075, -0.4075, -0.4058333333333333, -0.4058333333333333, -0.4058333333333333, -0.4058333333333333, -0.4058333333333333, -0.4058333333333333, -0.4058333333333333, -0.4058333333333333, -0.4058333333333333, -0.4058333333333333, -0.4058333333333333, -0.4058333333333333, -0.4058333333333333, -0.4058333333333333, -0.4058333333333333, -0.4058333333333333, -0.4058333333333333, -0.4058333333333333, -0.015833333333333335]"	"[1, 1, 1, 1, 1, 1, 1, 1, 1, 1, 1, 1, 1, 1, 1, 1, 1, 1, 1, 1, 1, 1, 1, 1, 1, 0]"	"[0, 0, 0, 0, 0, 0, 0, 0, 0, 0, 0, 0, 0, 0, 0, 0, 0, 0, 0, 0, 0, 0, 0, 0, 0, 0]"	"[0, 0, 0, 0, 0, 0, 0, 0, 0, 0, 0, 0, 0, 0, 0, 0, 0, 0, 0, 0, 0, 0, 0, 0, 0, 1]"	"[0.13277430000016466, 0.3328556000001299, 0.532356499999878, 0.7155527999998412, 0.9158462000000327, 1.0989978000002338, 1.3322422000001097, 1.898505699999987, 2.1150581000001694, 2.2980702999998357, 2.497969500000181, 2.697907199999918, 2.8979036000000633, 3.097667900000033, 3.2808444000002055, 3.480539300000146, 3.6639140000002044, 3.8804534999999305, 4.096825800000261, 4.280186800000138, 4.479895899999974, 4.663225100000091, 4.846285900000112, 5.029478200000085, 5.179424500000096, 5.429167499999949]"	25	"[0.12999600000011924, 0.3300893000000542, 0.5295883000003414, 0.7128006000002642, 0.9130890000001273, 1.0962498000003507, 1.3294922000000042, 1.895746500000314, 2.112296000000242, 2.2953083000002152, 2.495201000000179, 2.695143000000371, 2.8951522000002115, 3.0949139000003925, 3.2780853000003844, 3.477793600000041, 3.6611516000002666, 3.8777114000004076, 4.0940653000002385, 4.277424100000189, 4.4771380000001955, 4.660457899999983, 4.843528900000365, 5.0267250000001695, 5.176666800000021]"	"[0.24634510000032606, 0.41282600000022285, 0.5961125000003449, 0.8127363000003243, 1.012547799999993, 1.2124298000003364, 1.3956233000003522, 1.995186300000114, 2.2117449000002125, 2.394976100000349, 2.594653500000277, 2.778108500000144, 2.977998200000002, 3.1777450000004137, 3.3610593000003064, 3.5608728000001975, 3.744090700000015, 3.96066780000001, 4.143773900000269, 4.343692000000374, 4.543533700000353, 4.726817300000221, 4.909971700000369, 5.093252200000279, 5.259790800000246]"	91.81575470000007	91.82860100000016	93.32773980000002									02	02	2023-12-14_13h44.22.620	BART_exp	2023.2.2	60.3691938418136	2023-12-14 13h44.36.473513 +0100	
balloon.png	53	0	14	14	12	93.37438150000025													93.32799670000031	93.37438150000025	93.37438150000025	93.37438150000025	93.37438150000025	93.37438150000025	0.013971600000331819	0.013971600000331819	0.013971600000331819	93.37438150000025	99.55943400000024	27	1.35	False	"[0.06666666666666667, 0.06666666666666667, 0.06666666666666667, 0.06666666666666667, 0.06666666666666667, 0.06666666666666667, 0.06666666666666667, 0.06666666666666667, 0.06666666666666667, 0.06666666666666667, 0.06666666666666667, 0.06666666666666667, 0.06666666666666667, 0.06666666666666667, 0.06666666666666667, 0.06666666666666667, 0.06666666666666667, 0.06666666666666667, 0.06666666666666667, 0.06666666666666667, 0.06666666666666667, 0.06666666666666667, 0.06666666666666667, 0.06666666666666667, 0.06666666666666667, 0.06666666666666667, 0.06833333333333333, 0.15416666666666667]"	"[-0.37666666666666665, -0.37666666666666665, -0.37666666666666665, -0.37666666666666665, -0.37666666666666665, -0.37666666666666665, -0.37666666666666665, -0.37666666666666665, -0.37666666666666665, -0.37666666666666665, -0.37666666666666665, -0.37666666666666665, -0.37666666666666665, -0.37666666666666665, -0.37666666666666665, -0.37666666666666665, -0.37666666666666665, -0.37666666666666665, -0.37666666666666665, -0.37666666666666665, -0.37666666666666665, -0.37666666666666665, -0.37666666666666665, -0.37666666666666665, -0.37666666666666665, -0.37666666666666665, -0.3775, 0.09333333333333334]"	"[1, 1, 1, 1, 1, 1, 1, 1, 1, 1, 1, 1, 1, 1, 1, 1, 1, 1, 1, 1, 1, 1, 1, 1, 1, 1, 1, 0]"	"[0, 0, 0, 0, 0, 0, 0, 0, 0, 0, 0, 0, 0, 0, 0, 0, 0, 0, 0, 0, 0, 0, 0, 0, 0, 0, 0, 0]"	"[0, 0, 0, 0, 0, 0, 0, 0, 0, 0, 0, 0, 0, 0, 0, 0, 0, 0, 0, 0, 0, 0, 0, 0, 0, 0, 0, 1]"	"[0.28419850000000224, 0.4674609999997301, 0.6669921999996404, 0.8671345999996447, 1.1334411999996519, 1.3500046999997721, 1.5833391999999549, 2.0496151999996073, 2.232719399999951, 2.432843999999932, 2.6492121999999654, 2.883957399999872, 3.1157352000000174, 3.349000899999737, 3.582098099999712, 3.7983377999998993, 4.014902299999903, 4.198229099999935, 4.414810799999941, 4.614688399999977, 4.814533099999608, 4.9974749999996675, 5.180838499999936, 5.34753499999988, 5.547558699999627, 5.747115199999826, 5.914076000000023, 6.230102600000009]"	27	"[0.24773690000029092, 0.4310118000003058, 0.6305443000001105, 0.8306697000002714, 1.096982200000184, 1.313563400000021, 1.546885100000054, 2.013147800000297, 2.1962696000000506, 2.396392800000285, 2.6127486999998837, 2.8475129000003108, 3.079262799999924, 3.3125482000000375, 3.5456601999999293, 3.7618772999999237, 3.9784514000002673, 4.161762700000054, 4.378362100000231, 4.578222600000117, 4.778073599999971, 4.96101120000003, 5.144379000000299, 5.311068299999988, 5.511097999999947, 5.7106542000001355, 5.877611599999909]"	"[0.34727980000025127, 0.5305051999998796, 0.7470867000001817, 0.9968400000002475, 1.1967976000000817, 1.4133406000000832, 1.6797142999998869, 2.0961851000001843, 2.329486999999972, 2.5458051999999043, 2.7457398000001376, 2.9788610999999037, 3.2121139000000767, 3.4453926000001047, 3.6618852999999945, 3.861690400000043, 4.06149060000007, 4.26139349999994, 4.477928199999951, 4.661083899999994, 4.844234000000142, 5.02752670000018, 5.2107380000002195, 5.393973900000219, 5.593809400000282, 5.793760300000031, 5.977063600000292]"	99.56087030000026	99.57357420000017	101.07264310000028									02	02	2023-12-14_13h44.22.620	BART_exp	2023.2.2	60.3691938418136	2023-12-14 13h44.36.473513 +0100	
balloon.png	97	0	15	15	22	101.12848230000009													101.07292009999992	101.12848230000009	101.12848230000009	101.12848230000009	101.12848230000009	101.12848230000009	0.013861200000064855	0.013861200000064855	0.013861200000064855	101.12848230000009	107.77099829999997	31	1.55	False	"[0.0975, 0.0975, 0.0975, 0.0975, 0.0975, 0.0975, 0.0975, 0.0975, 0.10333333333333333, 0.10333333333333333, 0.10333333333333333, 0.10416666666666667, 0.10416666666666667, 0.10416666666666667, 0.10416666666666667, 0.10416666666666667, 0.10416666666666667, 0.10416666666666667, 0.10416666666666667, 0.10416666666666667, 0.10416666666666667, 0.10416666666666667, 0.10416666666666667, 0.10416666666666667, 0.10416666666666667, 0.10416666666666667, 0.10416666666666667, 0.10416666666666667, 0.10416666666666667, 0.10416666666666667, 0.10416666666666667, 0.11916666666666667]"	"[-0.385, -0.385, -0.385, -0.385, -0.385, -0.385, -0.385, -0.385, -0.385, -0.385, -0.385, -0.3858333333333333, -0.3908333333333333, -0.3908333333333333, -0.3908333333333333, -0.3908333333333333, -0.3908333333333333, -0.3908333333333333, -0.3908333333333333, -0.3908333333333333, -0.3908333333333333, -0.3908333333333333, -0.3908333333333333, -0.3908333333333333, -0.3908333333333333, -0.3908333333333333, -0.3908333333333333, -0.3908333333333333, -0.3908333333333333, -0.3908333333333333, -0.3908333333333333, -0.16833333333333333]"	"[1, 1, 1, 1, 1, 1, 1, 1, 1, 1, 1, 1, 1, 1, 1, 1, 1, 1, 1, 1, 1, 1, 1, 1, 1, 1, 1, 1, 1, 1, 1, 0]"	"[0, 0, 0, 0, 0, 0, 0, 0, 0, 0, 0, 0, 0, 0, 0, 0, 0, 0, 0, 0, 0, 0, 0, 0, 0, 0, 0, 0, 0, 0, 0, 0]"	"[0, 0, 0, 0, 0, 0, 0, 0, 0, 0, 0, 0, 0, 0, 0, 0, 0, 0, 0, 0, 0, 0, 0, 0, 0, 0, 0, 0, 0, 0, 0, 1]"	"[0.2841967000003933, 0.46754630000032193, 0.6672872000003736, 0.8672997000003306, 1.0837525000001733, 1.3168180000002394, 1.549835200000416, 1.749647200000254, 1.9497000999999727, 2.1494323000001714, 2.3328275000003487, 2.549264800000401, 2.717105200000333, 2.932209900000089, 3.1487472000003436, 3.332168300000376, 3.5318646000000626, 3.732002900000225, 3.931928400000288, 4.148182800000086, 4.348090700000284, 4.53152799999998, 4.714966200000163, 4.930937400000403, 5.130972700000257, 5.330787500000042, 5.530576699999983, 5.730629000000135, 5.9304063000004135, 6.097094800000377, 6.2805615000002035, 6.696723600000041]"	31	"[0.23873060000005353, 0.4220817000000352, 0.6218265000002248, 0.8218460000002779, 1.038310000000365, 1.2713572000002387, 1.5043846000003214, 1.704175600000326, 1.9042453000001842, 2.104033900000104, 2.2873764000000847, 2.503815100000338, 2.671650000000227, 2.8867466000001514, 3.1032837000002473, 3.2867089999999735, 3.4864031000001887, 3.6865498000001935, 3.886470200000076, 4.102722699999958, 4.302640000000338, 4.486068200000318, 4.669502100000045, 4.885472700000264, 5.085515600000235, 5.285346500000287, 5.485118000000057, 5.685179699999935, 5.884938300000158, 6.051634400000239, 6.235106500000256]"	"[0.3549772999999732, 0.5380661000003784, 0.738063400000101, 0.9545990000001439, 1.1711131000001842, 1.370908800000052, 1.6041348000003381, 1.8039787000002434, 1.9872694000000592, 2.1871181999999862, 2.4040263000001687, 2.603412400000252, 2.8199901000002683, 2.986627900000258, 3.1864863000000696, 3.386339200000293, 3.5863435999999638, 3.7861139999999978, 3.9859496000003674, 4.185723000000053, 4.385644299999967, 4.585563500000262, 4.785443000000214, 4.985258300000169, 5.168726600000355, 5.385117700000137, 5.568285800000012, 5.768116000000191, 5.984654100000171, 6.151278100000127, 6.36776540000028]"	107.77265680000028	107.78494679999994	109.28404040000032									02	02	2023-12-14_13h44.22.620	BART_exp	2023.2.2	60.3691938418136	2023-12-14 13h44.36.473513 +0100	
balloon.png	40	0	16	16	9	109.33696580000014													109.28429830000005	109.33696580000014	109.33696580000014	109.33696580000014	109.33696580000014	109.33696580000014	0.01335960000005798	0.01335960000005798	0.01335960000005798	109.33696580000014	113.43636839999999	20	1.00	False	"[-0.005, -0.005, -0.005, -0.005, -0.005, -0.005, -0.005, 0.0, 0.0125, 0.051666666666666666, 0.0625, 0.0625, 0.0625, 0.0625, 0.0625, 0.0625, 0.0625, 0.0625, 0.06416666666666666, 0.06583333333333333, 0.1675]"	"[-0.40166666666666667, -0.40166666666666667, -0.40166666666666667, -0.40166666666666667, -0.40166666666666667, -0.40166666666666667, -0.40166666666666667, -0.40166666666666667, -0.4, -0.39416666666666667, -0.39416666666666667, -0.39416666666666667, -0.39416666666666667, -0.39416666666666667, -0.39416666666666667, -0.39416666666666667, -0.39416666666666667, -0.39416666666666667, -0.39416666666666667, -0.39416666666666667, 0.07083333333333333]"	"[1, 1, 1, 1, 1, 1, 1, 1, 1, 1, 1, 1, 1, 1, 1, 1, 1, 1, 1, 1, 0]"	"[0, 0, 0, 0, 0, 0, 0, 0, 0, 0, 0, 0, 0, 0, 0, 0, 0, 0, 0, 0, 0]"	"[0, 0, 0, 0, 0, 0, 0, 0, 0, 0, 0, 0, 0, 0, 0, 0, 0, 0, 0, 0, 1]"	"[0.05367789999991146, 0.18413409999993746, 0.3840493999996397, 0.600377099999605, 0.7836374999997133, 0.9504579999997986, 1.1336373999997704, 1.3336045999999442, 1.5503657999997813, 1.734545799999978, 1.9185316999996758, 2.116240299999845, 2.3326696999997694, 2.516146099999787, 2.732432699999663, 2.9158276999996815, 3.0988884999997026, 3.38229149999961, 3.5988266999997904, 3.781938899999659, 4.150784799999656]"	20	"[0.00047869999980321154, 0.14194950000000972, 0.34185569999999643, 0.5581916999999521, 0.7414568999997755, 0.9082644000000073, 1.0914756000001944, 1.2914296999997532, 1.5081903999998758, 1.692370899999787, 1.8763576000001194, 2.0740578999998434, 2.274109999999837, 2.473970200000167, 2.690263800000139, 2.873681300000044, 3.056709899999987, 3.3401278000001184, 3.556655899999896, 3.7397578999998586]"	"[0.07496039999978166, 0.2415992000001097, 0.44151419999980135, 0.6247079999998277, 0.8246370000001662, 0.9911253000000215, 1.174466399999801, 1.3742441999997936, 1.5908401000001504, 1.773994600000151, 1.9571560999997928, 2.1403761999999915, 2.390327300000081, 2.5735100000001694, 2.756727800000135, 2.956612999999834, 3.1398380000000543, 3.423064499999782, 3.639538399999765, 3.8893097000000125]"	113.4376244	113.44849160000012	114.94700360000024									02	02	2023-12-14_13h44.22.620	BART_exp	2023.2.2	60.3691938418136	2023-12-14 13h44.36.473513 +0100	
balloon.png	101	0	17	17	23	115.03543990000026													114.94726870000022	115.03543990000026	115.03543990000026	115.03543990000026	115.03543990000026	115.03543990000026	0.011591599999974278	0.011591599999974278	0.011591599999974278	115.03543990000026	117.89759380000032	14	0.70	False	"[0.04833333333333333, 0.04833333333333333, 0.04833333333333333, 0.04833333333333333, 0.04833333333333333, 0.04833333333333333, 0.04833333333333333, 0.04833333333333333, 0.04833333333333333, 0.04833333333333333, 0.04833333333333333, 0.04833333333333333, 0.04833333333333333, 0.125]"	"[-0.42, -0.42, -0.42, -0.42, -0.42, -0.42, -0.42, -0.42, -0.42, -0.4216666666666667, -0.4216666666666667, -0.4216666666666667, -0.4216666666666667, -0.07166666666666667]"	"[1, 1, 1, 1, 1, 1, 1, 1, 1, 1, 1, 1, 1, 0]"	"[0, 0, 0, 0, 0, 0, 0, 0, 0, 0, 0, 0, 0, 0]"	"[0, 0, 0, 0, 0, 0, 0, 0, 0, 0, 0, 0, 0, 1]"	"[0.26721279999992475, 0.4673305999999684, 0.6835879000000205, 0.8835514000002149, 1.0836713000003328, 1.283519200000228, 1.4835259000001315, 1.6830635000001166, 1.8662027000000307, 2.066260399999919, 2.2664644000001317, 2.4660727000000406, 2.6491313999999875, 2.9489598000000115]"	13	"[0.1900922999998329, 0.390237199999774, 0.6064742999997179, 0.8064408999998705, 1.0065747999997257, 1.2064096999997673, 1.4064256999999998, 1.6059724000001552, 1.7890990999999303, 1.9891600999999355, 2.189378399999896, 2.3889844000000267, 2.5720226999997067]"	"[0.3065630000000965, 0.48974779999980456, 0.7062522000001081, 0.9062542000001486, 1.1061429000001226, 1.3059763000001112, 1.5057770999997047, 1.6723784000000705, 1.8723516000000018, 2.0726125999999567, 2.2721470999999838, 2.47217529999989, 2.68845999999985]"	117.8986645	117.91156010000032	119.41083479999998									02	02	2023-12-14_13h44.22.620	BART_exp	2023.2.2	60.3691938418136	2023-12-14 13h44.36.473513 +0100	
balloon.png	14	0	18	18	3	119.44033130000025													119.4110925	119.44033130000025	119.44033130000025	119.44033130000025	119.44033130000025	119.44033130000025	0.014156199999888486	0.014156199999888486	0.014156199999888486	119.44033130000025	122.57839330000024	15	0.70	True	"[-0.07, -0.07, -0.07, -0.07, -0.07, -0.07, -0.07, -0.07, -0.07, -0.07, -0.07, -0.07, -0.07, -0.07, -0.06916666666666667]"	"[-0.3858333333333333, -0.3858333333333333, -0.3858333333333333, -0.3858333333333333, -0.3858333333333333, -0.3858333333333333, -0.3858333333333333, -0.3858333333333333, -0.3858333333333333, -0.38166666666666665, -0.38166666666666665, -0.38166666666666665, -0.38166666666666665, -0.38166666666666665, -0.38166666666666665]"	"[1, 1, 1, 1, 1, 1, 1, 1, 1, 1, 1, 1, 1, 1, 1]"	"[0, 0, 0, 0, 0, 0, 0, 0, 0, 0, 0, 0, 0, 0, 0]"	"[0, 0, 0, 0, 0, 0, 0, 0, 0, 0, 0, 0, 0, 0, 0]"	"[0.25074439999980314, 0.46711439999990034, 0.6670679999997446, 0.8504763999999341, 1.0667663999997785, 1.2833029999997052, 1.4830714999998236, 1.6832197999997334, 1.8665271999998367, 2.0508466000001135, 2.249682799999846, 2.449217200000021, 2.64936200000011, 2.8657218999996985, 3.0654583999998977]"	15	"[0.23139379999975063, 0.4477523000000474, 0.6477412999997796, 0.8311239999998179, 1.047410900000159, 1.2639503999998851, 1.463707599999907, 1.6638646000001245, 1.8471752000000379, 2.031499900000199, 2.2303361999997833, 2.429871800000001, 2.6300108000000364, 2.8463783000001968, 3.046107900000152]"	"[0.3143209999998362, 0.5475224000001617, 0.7474403000001075, 0.9306639000001269, 1.1304826999999023, 1.3304001999999855, 1.5469374999997854, 1.746835099999771, 1.930192100000113, 2.1299189999999726, 2.329763499999899, 2.52965469999981, 2.729484500000126, 2.9128006999999343, 3.129310400000122]"	122.57960230000026	122.59184099999993	124.07533490000014	124.0910259000002								02	02	2023-12-14_13h44.22.620	BART_exp	2023.2.2	60.3691938418136	2023-12-14 13h44.36.473513 +0100	
balloon.png	27	0	19	19	6	124.0910259000002													124.07558640000025	124.0910259000002	124.0910259000002	124.0910259000002	124.0910259000002	124.0910259000002	0.011532099999840284			124.0910259000002	129.67466400000012	26	1.30	False	"[-0.06916666666666667, -0.06916666666666667, -0.06916666666666667, -0.06916666666666667, -0.06916666666666667, -0.06916666666666667, -0.06916666666666667, -0.06916666666666667, -0.06916666666666667, -0.06916666666666667, -0.06916666666666667, -0.06916666666666667, -0.0675, -0.06666666666666667, -0.06666666666666667, -0.06666666666666667, -0.06666666666666667, -0.06666666666666667, -0.06666666666666667, -0.06666666666666667, -0.06666666666666667, -0.06666666666666667, -0.06666666666666667, -0.06, -0.06, -0.06, 0.06833333333333333]"	"[-0.38166666666666665, -0.38166666666666665, -0.38166666666666665, -0.38166666666666665, -0.38166666666666665, -0.38166666666666665, -0.38166666666666665, -0.38166666666666665, -0.38166666666666665, -0.38166666666666665, -0.38166666666666665, -0.38166666666666665, -0.38083333333333336, -0.38083333333333336, -0.38083333333333336, -0.38083333333333336, -0.38083333333333336, -0.38083333333333336, -0.38083333333333336, -0.38083333333333336, -0.38083333333333336, -0.38083333333333336, -0.38083333333333336, -0.3775, -0.3775, -0.3775, -0.10083333333333333]"	"[1, 1, 1, 1, 1, 1, 1, 1, 1, 1, 1, 1, 1, 1, 1, 1, 1, 1, 1, 1, 1, 1, 1, 1, 1, 1, 0]"	"[0, 0, 0, 0, 0, 0, 0, 0, 0, 0, 0, 0, 0, 0, 0, 0, 0, 0, 0, 0, 0, 0, 0, 0, 0, 0, 0]"	"[0, 0, 0, 0, 0, 0, 0, 0, 0, 0, 0, 0, 0, 0, 0, 0, 0, 0, 0, 0, 0, 0, 0, 0, 0, 0, 1]"	"[0.26632599999993545, 0.45022709999966537, 0.6496204999998554, 0.8493628999999601, 1.0495152999997117, 1.2492809000000307, 1.448967299999822, 1.6493086999998923, 1.8656243000000359, 2.0654709999998886, 2.265343699999903, 2.4816430999999284, 2.6982899999998153, 2.898272399999769, 3.114797400000043, 3.3147079999998823, 3.5144682000000103, 3.7307980999999018, 3.9306523999998717, 4.130548999999974, 4.3305130999997345, 4.547086099999888, 4.7304119000000355, 4.913654299999962, 5.096614000000045, 5.263744599999882, 5.597760899999685]"	26	"[0.2637952000000041, 0.44769059999998717, 0.6470886000001883, 0.8468290000000707, 1.046983000000182, 1.2467475000003105, 1.4464503000003788, 1.6467751000000135, 1.8630824000001667, 2.0629398999999466, 2.26280560000032, 2.479116299999987, 2.6957647000003817, 2.8957377000001543, 3.112255600000026, 3.3121760000003633, 3.511935800000174, 3.7282608000000437, 3.928118700000141, 4.128010700000232, 4.327973000000384, 4.544560000000274, 4.7278777000001355, 4.91111520000004, 5.094074900000123, 5.261210699999992]"	"[0.3636854999999741, 0.5302629000002526, 0.7300666000001002, 0.9300931000002493, 1.1466294000001653, 1.3463759999999638, 1.5462178000002496, 1.7627055000002656, 1.9459654000002047, 2.162496700000247, 2.3795780000000377, 2.5956363000000238, 2.7954162000000906, 3.0286048000002666, 3.2118508000003203, 3.4117685999999594, 3.628249300000334, 3.828045100000054, 4.0279294000001755, 4.227773100000377, 4.427632200000062, 4.627632500000345, 4.810838100000183, 5.0107003000002805, 5.193856600000345, 5.410431799999969]"	129.6762901000002	129.68733870000005	131.18648239999993									02	02	2023-12-14_13h44.22.620	BART_exp	2023.2.2	60.3691938418136	2023-12-14 13h44.36.473513 +0100	
balloon.png	71	0	20	20	16	131.2226513999999													131.18674610000016	131.2226513999999	131.2226513999999	131.2226513999999	131.2226513999999	131.2226513999999	0.012396999999964464	0.012396999999964464	0.012396999999964464	131.2226513999999	135.90334729999995	22	1.10	False	"[0.0375, 0.0375, 0.0375, 0.043333333333333335, 0.043333333333333335, 0.043333333333333335, 0.043333333333333335, 0.043333333333333335, 0.043333333333333335, 0.043333333333333335, 0.043333333333333335, 0.043333333333333335, 0.043333333333333335, 0.043333333333333335, 0.043333333333333335, 0.043333333333333335, 0.043333333333333335, 0.043333333333333335, 0.043333333333333335, 0.043333333333333335, 0.043333333333333335, 0.043333333333333335, 0.17666666666666667]"	"[-0.37416666666666665, -0.37416666666666665, -0.37416666666666665, -0.37416666666666665, -0.37416666666666665, -0.37416666666666665, -0.37416666666666665, -0.37416666666666665, -0.37416666666666665, -0.37416666666666665, -0.37416666666666665, -0.37416666666666665, -0.37416666666666665, -0.37416666666666665, -0.37416666666666665, -0.37416666666666665, -0.37416666666666665, -0.37416666666666665, -0.37416666666666665, -0.37416666666666665, -0.37416666666666665, -0.37416666666666665, -0.135]"	"[1, 1, 1, 1, 1, 1, 1, 1, 1, 1, 1, 1, 1, 1, 1, 1, 1, 1, 1, 1, 1, 1, 0]"	"[0, 0, 0, 0, 0, 0, 0, 0, 0, 0, 0, 0, 0, 0, 0, 0, 0, 0, 0, 0, 0, 0, 0]"	"[0, 0, 0, 0, 0, 0, 0, 0, 0, 0, 0, 0, 0, 0, 0, 0, 0, 0, 0, 0, 0, 0, 1]"	"[0.30044020000013916, 0.4837999999999738, 0.6670836000002964, 0.8670408000002681, 1.066819900000155, 1.2666769000002205, 1.4499086000000716, 1.6331143000002157, 1.8329452000002675, 2.033125299999938, 2.232993399999941, 2.4495670999999675, 2.649459900000238, 2.84897570000021, 3.049143300000196, 3.2653371999999763, 3.4487718000000314, 3.68171140000004, 3.8651872999998886, 4.081582400000116, 4.248373400000219, 4.448178999999982, 4.71526810000023]"	22	"[0.27477849999968385, 0.45813589999988835, 0.6414350999998533, 0.8413963999996668, 1.0411736999999448, 1.2410253999996712, 1.424269899999672, 1.6074648999997407, 1.8072921999996652, 2.0074712999999065, 2.207337099999677, 2.423913099999936, 2.6238060999999107, 2.8233219999997345, 3.0234909999999218, 3.239678399999775, 3.423107799999798, 3.6560513999997966, 3.839539000000059, 4.0559330999999474, 4.222722099999828, 4.422522399999707]"	"[0.34132169999975304, 0.5412968999999066, 0.7246118999996725, 0.9244409999996606, 1.1242913999999473, 1.3241758999997728, 1.5241080999999213, 1.7239611999998488, 1.9238000000000284, 2.1235759999999573, 2.3235098000000107, 2.523388000000068, 2.739988999999696, 2.923147799999697, 3.1396255999998175, 3.339690799999971, 3.539305400000103, 3.7558595999998943, 3.9392442999997, 4.138996399999996, 4.338889199999812, 4.5553320999997595]"	135.90463799999998	135.91660600000023	137.41586880000023									02	02	2023-12-14_13h44.22.620	BART_exp	2023.2.2	60.3691938418136	2023-12-14 13h44.36.473513 +0100	
balloon.png	57	0	21	21	13	137.45449129999997													137.41613030000008	137.45449129999997	137.45449129999997	137.45449129999997	137.45449129999997	137.45449129999997	0.013253199999780918	0.013253199999780918	0.013253199999780918	137.45449129999997	143.9976526999999	31	1.55	False	"[0.043333333333333335, 0.043333333333333335, 0.043333333333333335, 0.043333333333333335, 0.043333333333333335, 0.043333333333333335, 0.043333333333333335, 0.043333333333333335, 0.043333333333333335, 0.043333333333333335, 0.043333333333333335, 0.043333333333333335, 0.043333333333333335, 0.043333333333333335, 0.043333333333333335, 0.043333333333333335, 0.043333333333333335, 0.043333333333333335, 0.043333333333333335, 0.043333333333333335, 0.043333333333333335, 0.043333333333333335, 0.043333333333333335, 0.043333333333333335, 0.043333333333333335, 0.043333333333333335, 0.043333333333333335, 0.043333333333333335, 0.043333333333333335, 0.043333333333333335, 0.043333333333333335, -0.06666666666666667]"	"[-0.4116666666666667, -0.4116666666666667, -0.4116666666666667, -0.4116666666666667, -0.4116666666666667, -0.4116666666666667, -0.4116666666666667, -0.4116666666666667, -0.4116666666666667, -0.4116666666666667, -0.4116666666666667, -0.4116666666666667, -0.4116666666666667, -0.4116666666666667, -0.4116666666666667, -0.4116666666666667, -0.4116666666666667, -0.4116666666666667, -0.4116666666666667, -0.4116666666666667, -0.4116666666666667, -0.4116666666666667, -0.4116666666666667, -0.4116666666666667, -0.4116666666666667, -0.4116666666666667, -0.4116666666666667, -0.4116666666666667, -0.4116666666666667, -0.4116666666666667, -0.4116666666666667, 0.08083333333333333]"	"[1, 1, 1, 1, 1, 1, 1, 1, 1, 1, 1, 1, 1, 1, 1, 1, 1, 1, 1, 1, 1, 1, 1, 1, 1, 1, 1, 1, 1, 1, 1, 0]"	"[0, 0, 0, 0, 0, 0, 0, 0, 0, 0, 0, 0, 0, 0, 0, 0, 0, 0, 0, 0, 0, 0, 0, 0, 0, 0, 0, 0, 0, 0, 0, 0]"	"[0, 0, 0, 0, 0, 0, 0, 0, 0, 0, 0, 0, 0, 0, 0, 0, 0, 0, 0, 0, 0, 0, 0, 0, 0, 0, 0, 0, 0, 0, 0, 1]"	"[0.3837297000000035, 0.5836275999999998, 0.800374500000089, 1.0002449999997225, 1.2331312999999682, 1.416733199999726, 1.6166220999998586, 1.8331654999997227, 2.032957500000066, 2.216143699999975, 2.4156158999999207, 2.599305899999763, 2.7989050999999563, 2.982370400000036, 3.1487130999998953, 3.3155901000000085, 3.498678800000107, 3.69856209999989, 3.8650457999997343, 4.048352999999679, 4.247969199999716, 4.414580899999692, 4.581297100000029, 4.764336899999762, 4.931174699999701, 5.097768899999664, 5.280917600000066, 5.4474424, 5.613706799999818, 5.763982399999804, 5.980445299999701, 6.58016809999981]"	31	"[0.35549959999980274, 0.5553925999997773, 0.7721450999997614, 0.9720360999999684, 1.204891100000168, 1.3884954000000107, 1.5883973999998489, 1.804943699999967, 2.0047300999999607, 2.187907699999869, 2.3873773999998775, 2.571069499999794, 2.7706749999997555, 2.9541423000000577, 3.120484900000065, 3.287364599999819, 3.4704376999998203, 3.6703278999998474, 3.8368086999998923, 4.020116199999848, 4.2197353000001385, 4.38634809999985, 4.553064000000177, 4.736119300000155, 4.902958900000158, 5.069543300000078, 5.2526975000000675, 5.419206999999915, 5.585472799999934, 5.735745299999962, 5.952213999999913]"	"[0.4553455000000213, 0.6552661000000626, 0.8717280999999275, 1.0882194999999228, 1.2881397000001016, 1.504733899999792, 1.7045938000001115, 1.8877889999998843, 2.087656899999729, 2.2707525000000714, 2.4707468999999946, 2.637220900000102, 2.820411100000001, 3.003806700000041, 3.1869566999998824, 3.3702801999997973, 3.553382900000088, 3.719895700000052, 3.9029388999997536, 4.086397399999896, 4.269622799999979, 4.452872299999854, 4.619298099999924, 4.802552900000137, 4.9858878, 5.152487199999996, 5.318886600000042, 5.485909500000162, 5.668708899999729, 5.868573599999763, 6.101685099999941]"	143.99919960000034	144.0114536000001	145.5105450000001									02	02	2023-12-14_13h44.22.620	BART_exp	2023.2.2	60.3691938418136	2023-12-14 13h44.36.473513 +0100	
balloon.png	49	0	22	22	11	145.58772399999998													145.5108037	145.58772399999998	145.58772399999998	145.58772399999998	145.58772399999998	145.58772399999998	0.013325699999768403	0.013325699999768403	0.013325699999768403	145.58772399999998	152.34205310000016	28	1.40	False	"[0.041666666666666664, 0.041666666666666664, 0.041666666666666664, 0.07333333333333333, 0.07333333333333333, 0.07333333333333333, 0.07333333333333333, 0.07333333333333333, 0.07333333333333333, 0.07333333333333333, 0.07333333333333333, 0.07333333333333333, 0.07333333333333333, 0.07333333333333333, 0.07333333333333333, 0.07333333333333333, 0.07333333333333333, 0.07333333333333333, 0.07333333333333333, 0.07333333333333333, 0.07333333333333333, 0.07333333333333333, 0.07333333333333333, 0.07333333333333333, 0.07333333333333333, 0.07333333333333333, 0.07333333333333333, 0.07333333333333333, 0.07333333333333333, 0.07916666666666666, 0.07916666666666666, 0.06916666666666667]"	"[-0.3433333333333333, -0.3433333333333333, -0.3433333333333333, -0.38166666666666665, -0.38166666666666665, -0.38166666666666665, -0.38166666666666665, -0.38166666666666665, -0.38166666666666665, -0.38166666666666665, -0.38166666666666665, -0.38166666666666665, -0.38166666666666665, -0.38166666666666665, -0.38166666666666665, -0.38166666666666665, -0.38166666666666665, -0.38166666666666665, -0.38166666666666665, -0.38166666666666665, -0.38166666666666665, -0.38166666666666665, -0.38166666666666665, -0.38166666666666665, -0.38166666666666665, -0.38166666666666665, -0.38166666666666665, -0.38166666666666665, -0.38166666666666665, -0.37666666666666665, -0.37666666666666665, -0.028333333333333332]"	"[1, 1, 1, 1, 1, 1, 1, 1, 1, 1, 1, 1, 1, 1, 1, 1, 1, 1, 1, 1, 1, 1, 1, 1, 1, 1, 1, 1, 1, 1, 1, 0]"	"[0, 0, 0, 0, 0, 0, 0, 0, 0, 0, 0, 0, 0, 0, 0, 0, 0, 0, 0, 0, 0, 0, 0, 0, 0, 0, 0, 0, 0, 0, 0, 0]"	"[0, 0, 0, 0, 0, 0, 0, 0, 0, 0, 0, 0, 0, 0, 0, 0, 0, 0, 0, 0, 0, 0, 0, 0, 0, 0, 0, 0, 0, 0, 0, 1]"	"[0.07807039999988774, 0.35024339999972653, 0.5506061999999474, 0.8191289999999753, 1.0334583999997449, 1.2669676000000436, 1.4998889999997118, 1.7000732999999855, 1.9162449000000379, 2.1162145999996937, 2.34967400000005, 2.566041999999925, 2.78266369999983, 2.9989943000000494, 3.232129099999838, 3.4654812999997375, 3.6986896999997043, 3.915285199999744, 4.115206299999954, 4.314768299999741, 4.5315755999999965, 4.714783899999929, 4.914564199999859, 5.097751199999948, 5.3141883999996935, 5.497533299999759, 5.697335899999871, 5.880319999999756, 6.06380739999986, 6.2634140999998635, 6.446594699999878, 6.829866999999922]"	28	"[0.7526334999997744, 0.9669482999997854, 1.2004879999999503, 1.4333919000000606, 1.6335742000001119, 1.849756399999933, 2.049710199999936, 2.283177599999817, 2.499536899999839, 2.7161541999998917, 2.932480899999973, 3.1656349999998383, 3.3989803999998003, 3.6321898000001056, 3.8487841000001026, 4.048698399999921, 4.24827520000008, 4.465081400000145, 4.648296500000015, 4.848058300000048, 5.0312574999998105, 5.247687300000052, 5.431033999999727, 5.630834699999923, 5.813819599999988, 5.997303199999806, 6.196908899999926, 6.380093400000078]"	"[0.8667918000001009, 1.0834467999998196, 1.300307999999859, 1.5165894000001572, 1.7330071000001226, 1.9329119999997602, 2.149320699999862, 2.365970599999855, 2.615816399999858, 2.815585199999987, 3.0154962999999952, 3.2654208999997536, 3.531811800000014, 3.7484481000001324, 3.948353599999791, 4.148102799999833, 4.348134400000163, 4.5478392999998505, 4.747761099999934, 4.947794400000021, 5.1473980999999185, 5.347066199999972, 5.530557300000055, 5.7139320000001135, 5.913573400000132, 6.11387220000006, 6.280043599999772, 6.463420199999746]"	152.34361380000018	152.3560104000003	153.85522750000018									02	02	2023-12-14_13h44.22.620	BART_exp	2023.2.2	60.3691938418136	2023-12-14 13h44.36.473513 +0100	
balloon.png	36	0	23	23	8	153.87254209999992													153.8554865000001	153.87254209999992	153.87254209999992	153.87254209999992	153.87254209999992	153.87254209999992	0.013604799999939132	0.013604799999939132	0.013604799999939132	153.87254209999992	159.53780580000011	26	1.30	False	"[-0.009166666666666667, -0.009166666666666667, -0.009166666666666667, -0.009166666666666667, -0.009166666666666667, -0.009166666666666667, -0.009166666666666667, -0.009166666666666667, -0.009166666666666667, -0.009166666666666667, -0.009166666666666667, -0.009166666666666667, -0.009166666666666667, -0.009166666666666667, -0.009166666666666667, -0.009166666666666667, -0.004166666666666667, -0.004166666666666667, -0.0025, -0.0008333333333333334, 0.0025, 0.005, 0.01, 0.023333333333333334, 0.023333333333333334, 0.023333333333333334, 0.06666666666666667]"	"[-0.3925, -0.3925, -0.3925, -0.3925, -0.3925, -0.3925, -0.3925, -0.3925, -0.3925, -0.3925, -0.3925, -0.3925, -0.3925, -0.3925, -0.3925, -0.3925, -0.3925, -0.3925, -0.3925, -0.3925, -0.3925, -0.3925, -0.3858333333333333, -0.38083333333333336, -0.38, -0.38, 0.10333333333333333]"	"[1, 1, 1, 1, 1, 1, 1, 1, 1, 1, 1, 1, 1, 1, 1, 1, 1, 1, 1, 1, 1, 1, 1, 1, 1, 1, 0]"	"[0, 0, 0, 0, 0, 0, 0, 0, 0, 0, 0, 0, 0, 0, 0, 0, 0, 0, 0, 0, 0, 0, 0, 0, 0, 0, 0]"	"[0, 0, 0, 0, 0, 0, 0, 0, 0, 0, 0, 0, 0, 0, 0, 0, 0, 0, 0, 0, 0, 0, 0, 0, 0, 0, 1]"	"[0.2839474999996128, 0.4507768999997097, 0.6338564999996379, 1.0169702999996844, 1.2165224999998827, 1.4000608999999713, 1.5833235999998578, 1.7662148999997953, 1.9830597000000125, 2.1993013999999675, 2.382323599999836, 2.582388099999662, 2.7825098999996953, 2.9657397999999375, 3.165367099999912, 3.3820707999998376, 3.6152955999996266, 3.8818562999999813, 4.081601599999885, 4.283000799999627, 4.4646976999997605, 4.631234699999823, 4.830947599999945, 4.997549399999571, 5.1477413999996315, 5.380847499999618, 5.680924599999798]"	26	"[0.27810790000012275, 0.4449312000001555, 0.6280133000000205, 1.0111262000000352, 1.2106752999998207, 1.3942246000001433, 1.5774866000001566, 1.7603730999999243, 1.9772312000000056, 2.1934565000001385, 2.3764899000002515, 2.5765611000001627, 2.7766716000000997, 2.9599002999998447, 3.159520000000157, 3.376233299999967, 3.6094637999999577, 3.876046899999892, 4.07575450000013, 4.277173999999832, 4.4588561999999, 4.625391399999899, 4.825104900000042, 4.9917066000002706, 5.141897800000152, 5.374994400000105]"	"[0.36123600000018996, 0.527672000000166, 0.9274328999999852, 1.110728200000267, 1.3104521999998724, 1.4938256999998885, 1.6770237000000634, 1.910060700000031, 2.0767252000000553, 2.2599138999999013, 2.459906900000078, 2.6763240999998743, 2.859564599999885, 3.0592962999999145, 3.2593087999998716, 3.509162599999854, 3.7590140000002066, 3.9921666999998706, 4.175372600000173, 4.375274099999842, 4.541846300000088, 4.708391799999845, 4.908402300000034, 5.074836000000232, 5.274591899999905, 5.491167300000143]"	159.53938800000014	159.55134910000015	161.05050800000026									02	02	2023-12-14_13h44.22.620	BART_exp	2023.2.2	60.3691938418136	2023-12-14 13h44.36.473513 +0100	
balloon.png	123	0	24	24	28	161.09477920000018													161.05077040000015	161.09477920000018	161.09477920000018	161.09477920000018	161.09477920000018	161.09477920000018	0.01315470000008645	0.01315470000008645	0.01315470000008645	161.09477920000018	166.29972840000028	26	1.30	False	"[0.034166666666666665, 0.034166666666666665, 0.034166666666666665, 0.034166666666666665, 0.034166666666666665, 0.034166666666666665, 0.034166666666666665, 0.034166666666666665, 0.034166666666666665, 0.034166666666666665, 0.034166666666666665, 0.034166666666666665, 0.034166666666666665, 0.034166666666666665, 0.034166666666666665, 0.034166666666666665, 0.034166666666666665, 0.034166666666666665, 0.034166666666666665, 0.034166666666666665, 0.034166666666666665, 0.034166666666666665, 0.034166666666666665, 0.034166666666666665, 0.034166666666666665, 0.034166666666666665, 0.07583333333333334]"	"[-0.4125, -0.4125, -0.4125, -0.4125, -0.4125, -0.4125, -0.4125, -0.4125, -0.4125, -0.4125, -0.4125, -0.4125, -0.4125, -0.4125, -0.4125, -0.4125, -0.4125, -0.4125, -0.4125, -0.4125, -0.4125, -0.4125, -0.4125, -0.4125, -0.4125, -0.4125, -0.2791666666666667]"	"[1, 1, 1, 1, 1, 1, 1, 1, 1, 1, 1, 1, 1, 1, 1, 1, 1, 1, 1, 1, 1, 1, 1, 1, 1, 1, 0]"	"[0, 0, 0, 0, 0, 0, 0, 0, 0, 0, 0, 0, 0, 0, 0, 0, 0, 0, 0, 0, 0, 0, 0, 0, 0, 0, 0]"	"[0, 0, 0, 0, 0, 0, 0, 0, 0, 0, 0, 0, 0, 0, 0, 0, 0, 0, 0, 0, 0, 0, 0, 0, 0, 0, 1]"	"[0.04504850000012084, 0.30051040000034845, 0.46724770000037097, 0.7002837, 0.8836708000003455, 1.0835242000002836, 1.2667206000000988, 1.4333432000003086, 1.616851200000383, 1.799791400000231, 1.9997428000001491, 2.199506900000415, 2.3828933000004326, 2.56597660000034, 2.7659247999999934, 2.96575810000013, 3.1486785000001873, 3.3320888000002924, 3.5153213000003234, 3.715094300000146, 3.881633100000272, 4.064875500000198, 4.231602500000008, 4.398194500000045, 4.564654900000278, 4.731076600000051, 5.247589000000062]"	26	"[0.00048139999989871285, 0.2669389000002411, 0.4336923000000752, 0.6667160000001786, 0.850115900000219, 1.0499681000001146, 1.233154800000193, 1.3997773000000961, 1.5833000000002357, 1.766227699999945, 1.9661830999998529, 2.1659340999999586, 2.349326099999871, 2.532428699999855, 2.7323663000001943, 2.932202999999845, 3.115111600000091, 3.2985223999999107, 3.481753800000206, 3.681557100000191, 3.8480783999998494, 4.031315799999902, 4.198045699999966, 4.364636300000257, 4.53109829999994, 4.697525099999893]"	"[0.06692680000014661, 0.3667257000001882, 0.5666630999999143, 0.7664537999999084, 0.9663746000001083, 1.1495966000002227, 1.3327595999999176, 1.4993711000001895, 1.6660296000000017, 1.8325367000002188, 2.015702499999861, 2.2155926999998883, 2.398704700000053, 2.5987122999999883, 2.7818851000001814, 2.9484863000002406, 3.1482998999999836, 3.3482073999998647, 3.5147415999999794, 3.714720800000123, 3.897903099999894, 4.081110699999954, 4.24761239999998, 4.4308421999999155, 4.613862100000006, 4.797320300000138]"	166.30119270000023	166.31367320000027	167.8128082000003									02	02	2023-12-14_13h44.22.620	BART_exp	2023.2.2	60.3691938418136	2023-12-14 13h44.36.473513 +0100	
balloon.png	18	0	25	25	4	167.8583037000003													167.8130653000003	167.8583037000003	167.8583037000003	167.8583037000003	167.8583037000003	167.8583037000003	0.013710799999898882	0.013710799999898882	0.013710799999898882	167.8583037000003	171.56332810000004	19	0.90	True	"[0.04583333333333333, 0.04583333333333333, 0.04583333333333333, 0.04583333333333333, 0.04583333333333333, 0.04583333333333333, 0.04583333333333333, 0.04583333333333333, 0.04583333333333333, 0.04583333333333333, 0.04583333333333333, 0.04583333333333333, 0.04583333333333333, 0.04583333333333333, 0.04583333333333333, 0.04583333333333333, 0.04583333333333333, 0.049166666666666664]"	"[-0.36333333333333334, -0.36333333333333334, -0.36333333333333334, -0.36333333333333334, -0.36333333333333334, -0.36333333333333334, -0.36333333333333334, -0.36333333333333334, -0.36333333333333334, -0.36333333333333334, -0.36333333333333334, -0.36333333333333334, -0.36333333333333334, -0.36333333333333334, -0.36333333333333334, -0.36333333333333334, -0.36333333333333334, -0.36333333333333334]"	"[1, 1, 1, 1, 1, 1, 1, 1, 1, 1, 1, 1, 1, 1, 1, 1, 1, 1]"	"[0, 0, 0, 0, 0, 0, 0, 0, 0, 0, 0, 0, 0, 0, 0, 0, 0, 0]"	"[0, 0, 0, 0, 0, 0, 0, 0, 0, 0, 0, 0, 0, 0, 0, 0, 0, 0]"	"[0.40071020000004864, 0.583652499999971, 0.7506180999998833, 0.9337963999996646, 1.1007526999997026, 1.3001917999999932, 1.4831610999999612, 1.6830337999999756, 1.8830665000000408, 2.083030199999939, 2.2996289999996407, 2.4993804999999156, 2.6823332999997547, 2.8658167999997204, 3.0654046999998172, 3.2655603999996856, 3.4487520999996377, 3.632020300000022]"	18	"[0.36547410000002856, 0.5484065999999075, 0.7153770999998414, 0.8985594000000674, 1.0655134999997244, 1.2649569000000156, 1.4479200000000674, 1.6478029999998398, 1.847825699999703, 2.0477906999999504, 2.2644000000000233, 2.4641493999997692, 2.6471065000000635, 2.8305875999999444, 3.030167099999744, 3.230337899999995, 3.413520999999946, 3.5967916999998124]"	"[0.44839749999982814, 0.6316462999998294, 0.8148397999998451, 0.9814560999998321, 1.1813409999999749, 1.3478409999997893, 1.5476750999996511, 1.7142541999996865, 1.914068000000043, 2.2138750999997683, 2.380501899999672, 2.5637821999998778, 2.746917499999654, 2.9302278000000115, 3.113343900000018, 3.3132889999997133, 3.529763600000024, 3.6962501999996675]"	171.56452639999998	171.57690279999997	173.07605439999998									02	02	2023-12-14_13h44.22.620	BART_exp	2023.2.2	60.3691938418136	2023-12-14 13h44.36.473513 +0100	
balloon.png	1	0	26	26	0	173.09962110000015													173.07632719999992	173.09962110000015	173.09962110000015	173.09962110000015	173.09962110000015	173.09962110000015	0.013612000000193802	0.013612000000193802	0.013612000000193802	173.09962110000015	173.72834180000018	2	0.05	True	"[0.05583333333333333, 0.05583333333333333]"	"[-0.36333333333333334, -0.36333333333333334]"	"[1, 1]"	"[0, 0]"	"[0, 0]"	"[0.36716230000001815, 0.5504750999998578]"	2	"[0.35414799999989555, 0.5374466999996912]"	"[0.4372908999998799, 0.6204432999998062]"	173.72908750000033	173.74217480000016	175.2413206000001									02	02	2023-12-14_13h44.22.620	BART_exp	2023.2.2	60.3691938418136	2023-12-14 13h44.36.473513 +0100	
balloon.png	31	0	27	27	7	175.3035388000003													175.24158260000013	175.3035388000003	175.3035388000003	175.3035388000003	175.3035388000003	175.3035388000003	0.014581999999791151	0.014581999999791151	0.014581999999791151	175.3035388000003	181.8399184	29	1.45	False	"[0.06, 0.06, 0.06, 0.06, 0.06, 0.06, 0.06, 0.06, 0.06, 0.06, 0.06, 0.06, 0.06, 0.06, 0.06, 0.06, 0.06, 0.06, 0.06, 0.0625, 0.06833333333333333, 0.06833333333333333, 0.06833333333333333, 0.1175, 0.1175, 0.1175, 0.1175, 0.125, 0.12583333333333332, 0.12666666666666668, 0.13333333333333333, 0.145, 0.08916666666666667]"	"[-0.3641666666666667, -0.3641666666666667, -0.3641666666666667, -0.3641666666666667, -0.3641666666666667, -0.3641666666666667, -0.3641666666666667, -0.3641666666666667, -0.3641666666666667, -0.3641666666666667, -0.3641666666666667, -0.3641666666666667, -0.3641666666666667, -0.3641666666666667, -0.3641666666666667, -0.3641666666666667, -0.3641666666666667, -0.3641666666666667, -0.3641666666666667, -0.3591666666666667, -0.3858333333333333, -0.42916666666666664, -0.42916666666666664, -0.41, -0.41, -0.41, -0.41, -0.41333333333333333, -0.405, -0.405, -0.41, -0.4125, -0.1575]"	"[1, 1, 1, 1, 1, 1, 1, 1, 1, 1, 1, 1, 1, 1, 1, 1, 1, 1, 1, 1, 1, 1, 1, 1, 1, 1, 1, 1, 1, 1, 1, 1, 0]"	"[0, 0, 0, 0, 0, 0, 0, 0, 0, 0, 0, 0, 0, 0, 0, 0, 0, 0, 0, 0, 0, 0, 0, 0, 0, 0, 0, 0, 0, 0, 0, 0, 0]"	"[0, 0, 0, 0, 0, 0, 0, 0, 0, 0, 0, 0, 0, 0, 0, 0, 0, 0, 0, 0, 0, 0, 0, 0, 0, 0, 0, 0, 0, 0, 0, 0, 1]"	"[0.08297930000026099, 0.2673871000001782, 0.4671053000001848, 0.6503656999998384, 0.8505269000002045, 1.0500124000000142, 1.266668700000082, 1.483150200000182, 1.6829482000002827, 1.8830791999998837, 2.0664191999999275, 2.2660461999998915, 2.4662594999999783, 2.68237820000013, 2.8825504999999794, 3.065799900000002, 3.2653291999999965, 3.448790299999928, 3.6153690999999526, 3.831684700000096, 4.065288000000237, 4.2816194000001815, 4.464824099999987, 4.68106059999991, 4.881180200000017, 5.081106600000112, 5.264230400000088, 5.480840300000182, 5.6806430000001455, 5.880889200000183, 6.113888299999871, 6.314161700000113, 6.596963700000288]"	31	"[0.031265499999790336, 0.21567860000004657, 0.41538649999984045, 0.598654599999918, 0.7988139999997657, 0.998298199999681, 1.2149909999998272, 1.4314399999998386, 1.6312347999996746, 1.8314136999997572, 2.0147179999999025, 2.214349399999719, 2.4145615999996153, 2.630670999999893, 2.830848099999912, 3.0140927999996165, 3.2136388999997507, 3.3970853999999235, 3.563660699999673, 3.7799818999997115, 4.013582799999767, 4.51259809999965, 4.629358599999705, 4.829475600000023, 5.029402399999981, 5.212513599999966, 5.429135099999712, 5.628943799999888, 5.829181299999618, 6.062178199999835, 6.262538999999833]"	"[0.13201089999984106, 0.2986636999999064, 0.4819267999996555, 0.6818034999996598, 0.8815952999998444, 1.0814940999998726, 1.2981181000000106, 1.5147285999996711, 1.7144272999998975, 1.9143306999999368, 2.0975790999996207, 2.314119099999971, 2.5306682999998884, 2.713801599999897, 2.913666899999953, 3.096879700000045, 3.2968462999997428, 3.480005799999617, 3.663200599999982, 3.879692299999988, 4.112997199999882, 4.512604499999725, 4.729185299999699, 4.929061499999989, 5.112257699999645, 5.328581199999917, 5.545346899999913, 5.7452235999999175, 5.92833359999986, 6.145042999999987, 6.361501099999714]"	181.8415169	181.85356300000012	183.35265130000016									02	02	2023-12-14_13h44.22.620	BART_exp	2023.2.2	60.3691938418136	2023-12-14 13h44.36.473513 +0100	
balloon.png	5	0	28	28	1	183.43359310000005													183.35292190000018	183.43359310000005	183.43359310000005	183.43359310000005	183.43359310000005	183.43359310000005	0.013419700000213197	0.013419700000213197	0.013419700000213197	183.43359310000005	184.3885037	6	0.25	True	"[0.07916666666666666, 0.07916666666666666, 0.07916666666666666, 0.07916666666666666, 0.07916666666666666]"	"[-0.4, -0.4, -0.4, -0.4, -0.4]"	"[1, 1, 1, 1, 1]"	"[0, 0, 0, 0, 0]"	"[0, 0, 0, 0, 0]"	"[0.11732329999995272, 0.3175618999998733, 0.5175583999998707, 0.7338402999998834, 0.9005984999998873]"	5	"[0.04693889999998646, 0.24720010000010006, 0.4472222999997939, 0.6634902999999213, 0.8302507999997033]"	"[0.1633641999997053, 0.3467510000000402, 0.546839899999668, 0.7465821000000687, 0.9465611999999055]"	184.38942160000033	184.4019346	185.90117970000028									02	02	2023-12-14_13h44.22.620	BART_exp	2023.2.2	60.3691938418136	2023-12-14 13h44.36.473513 +0100	
balloon.png	92	0	29	29	21	185.94154170000002													185.90144469999996	185.94154170000002	185.94154170000002	185.94154170000002	185.94154170000002	185.94154170000002	0.013995000000250002	0.013995000000250002	0.013995000000250002	185.94154170000002	193.54865640000025	38	1.90	False	"[0.07916666666666666, 0.07916666666666666, 0.07916666666666666, 0.07916666666666666, 0.07916666666666666, 0.07916666666666666, 0.07916666666666666, 0.07916666666666666, 0.07916666666666666, 0.07916666666666666, 0.07916666666666666, 0.07916666666666666, 0.07916666666666666, 0.07916666666666666, 0.07916666666666666, 0.07916666666666666, 0.07916666666666666, 0.075, 0.075, 0.07333333333333333, 0.07333333333333333, 0.07333333333333333, 0.07333333333333333, 0.07333333333333333, 0.07333333333333333, 0.07333333333333333, 0.07333333333333333, 0.07333333333333333, 0.07333333333333333, 0.07333333333333333, 0.07333333333333333, 0.07333333333333333, 0.07333333333333333, 0.07333333333333333, 0.07333333333333333, 0.07416666666666667, 0.07416666666666667, 0.09583333333333334]"	"[-0.4, -0.4, -0.4, -0.4, -0.4, -0.4, -0.4, -0.4, -0.4, -0.4, -0.4, -0.4, -0.4, -0.4, -0.4, -0.4, -0.4, -0.4116666666666667, -0.4116666666666667, -0.4141666666666667, -0.4141666666666667, -0.415, -0.415, -0.415, -0.415, -0.415, -0.415, -0.415, -0.415, -0.415, -0.415, -0.415, -0.415, -0.415, -0.415, -0.415, -0.415, -0.33166666666666667]"	"[1, 1, 1, 1, 1, 1, 1, 1, 1, 1, 1, 1, 1, 1, 1, 1, 1, 1, 1, 1, 1, 1, 1, 1, 1, 1, 1, 1, 1, 1, 1, 1, 1, 1, 1, 1, 1, 0]"	"[0, 0, 0, 0, 0, 0, 0, 0, 0, 0, 0, 0, 0, 0, 0, 0, 0, 0, 0, 0, 0, 0, 0, 0, 0, 0, 0, 0, 0, 0, 0, 0, 0, 0, 0, 0, 0, 0]"	"[0, 0, 0, 0, 0, 0, 0, 0, 0, 0, 0, 0, 0, 0, 0, 0, 0, 0, 0, 0, 0, 0, 0, 0, 0, 0, 0, 0, 0, 0, 0, 0, 0, 0, 0, 0, 0, 1]"	"[0.13418230000024778, 0.33380460000034873, 0.533842000000277, 0.7170900000000984, 0.9169099000000642, 1.1009020000001328, 1.3168347999999241, 1.5165614000002279, 1.7164366000001792, 1.932923600000322, 2.165860000000066, 2.3827354000000014, 2.549290800000108, 2.732480099999975, 2.9155961999999818, 3.1154449999999088, 3.3153925000001436, 3.5320183000003453, 3.7317551999999523, 3.9150159999999232, 4.114858800000093, 4.298124100000223, 4.497970700000224, 4.714489200000116, 4.9143606000002364, 5.130563400000028, 5.330515900000137, 5.530407300000206, 5.730255299999953, 5.930441900000005, 6.1469913000000815, 6.346717200000057, 6.54669530000001, 6.746221700000206, 6.9295907000000625, 7.129301400000259, 7.362698800000089, 7.645785600000181]"	36	"[0.10444439999992028, 0.3040717999997469, 0.5041006999999809, 0.6873588999997082, 0.8871691999997893, 1.0711858999998185, 1.2871046000000206, 1.4868273999995836, 1.686693899999682, 1.903174599999602, 2.1361323999999513, 2.353008199999749, 2.5195537999998123, 2.7027383999998165, 2.8858523999997487, 3.085701099999824, 3.285662499999944, 3.502285199999733, 3.7020166999996036, 3.88528099999985, 4.085124499999893, 4.268407899999602, 4.468234699999812, 4.684761999999864, 4.884620599999835, 5.300792300000012, 5.500680799999827, 5.700517299999774, 5.900714999999764, 6.117248999999902, 6.316981599999963, 6.516971099999864, 6.716487400000005, 6.899859699999979, 7.099559599999793, 7.332957599999645]"	"[0.20395339999959106, 0.4037682999996832, 0.6035908999997446, 0.7868842999996559, 0.9868177999996988, 1.1867127999998957, 1.3865297999996073, 1.5696419999999307, 1.7863039999997454, 2.052759799999876, 2.2193036999997275, 2.419183399999838, 2.602393299999676, 2.8022280000000137, 2.9854484999996203, 3.1686634999996386, 3.368557999999666, 3.585081799999898, 3.7849796999998944, 3.968022000000019, 4.1680632999996305, 4.367995599999631, 4.5512236999998095, 4.751020199999857, 5.1673376999997345, 5.367352399999618, 5.5671730999997635, 5.783719499999734, 6.0168541999996705, 6.200055499999962, 6.416498999999931, 6.616435099999762, 6.799701999999797, 6.999497799999972, 7.2327048999995895, 7.449229599999853]"	193.55045210000026	193.56277769999997	195.06184250000024									02	02	2023-12-14_13h44.22.620	BART_exp	2023.2.2	60.3691938418136	2023-12-14 13h44.36.473513 +0100	
																																														195.06189630000017	195.07834420000017	195.07834420000017	198.46030259999998	space	3.3736646999996083	None	02	02	2023-12-14_13h44.22.620	BART_exp	2023.2.2	60.3691938418136	2023-12-14 13h44.36.473513 +0100	
