image	max_pumps	pump_loop.thisRepN	pump_loop.thisTrialN	pump_loop.thisN	pump_loop.thisIndex	thisRow.t	notes	Start.started	text_start.started	continue_start.started	mouse_start.started	Start.stopped	mouse_start.x	mouse_start.y	mouse_start.leftButton	mouse_start.midButton	mouse_start.rightButton	mouse_start.time	trials.started	stim_balloon.started	stim_balloon_burst.started	stim_balloon_burst.stopped	text_ballon_value.started	text_bank.started	mouse.started	sound_bang.started	sound_bang.stopped	button_balloon.started	trials.stopped	n_pumps	earnings	popped	mouse.x	mouse.y	mouse.leftButton	mouse.midButton	mouse.rightButton	mouse.time	button_balloon.numClicks	button_balloon.timesOn	button_balloon.timesOff	Feedback.started	text_feedback.started	Feedback.stopped	text_feedback.stopped	End.started	text_end.started	key_end.started	End.stopped	key_end.keys	key_end.rt	key_end.duration	participant	session	date	expName	psychopyVersion	frameRate	expStart	
								0.03758530000004612	0.0465715000000273	0.0465715000000273	0.03795820000004824	120.59707759999992	[-0.05]	[0.1361111111111111]	[1]	[0]	[0]	[120.55850620000001]																																			09	03	2024-02-06_09h29.43.653	BART_exp	2023.2.3	119.93700908314673	2024-02-06 09h29.53.494126 +0100	
balloon.png	10	0	0	0	2	120.67157040000029													120.60507899999993	120.67157040000029	120.67157040000029	120.67157040000029	120.67157040000029	120.67157040000029	0.009664900000188936	0.009664900000188936	0.009664900000188936	120.67157040000029	129.21585300000015	11	0.50	True	"[-0.1537037037037037, -0.13518518518518519, 0.08148148148148149, 0.08055555555555556, 0.08055555555555556, 0.08055555555555556, 0.08055555555555556, 0.08055555555555556, 0.08055555555555556, 0.08055555555555556, 0.08055555555555556, 0.08055555555555556]"	"[-0.36018518518518516, -0.3851851851851852, -0.39814814814814814, -0.39814814814814814, -0.39814814814814814, -0.39814814814814814, -0.39814814814814814, -0.39814814814814814, -0.39814814814814814, -0.39814814814814814, -0.39814814814814814, -0.39814814814814814]"	"[1, 1, 1, 1, 1, 1, 1, 1, 1, 1, 1, 1]"	"[0, 0, 0, 0, 0, 0, 0, 0, 0, 0, 0, 0]"	"[0, 0, 0, 0, 0, 0, 0, 0, 0, 0, 0, 0]"	"[2.134187400000428, 2.617528900000252, 6.851054400000066, 7.0261145000004035, 7.234408600000279, 7.417656800000259, 7.701146200000039, 7.8679126000001816, 8.03465660000029, 8.209337700000106, 8.359425300000112, 8.501187100000152]"	12	"[2.0829226999999264, 2.566288800000166, 6.799782399999913, 6.974853300000177, 7.183133500000167, 7.366382000000158, 7.649869200000012, 7.816653899999892, 7.983381200000167, 8.158060000000205, 8.30815849999999, 8.449930100000074]"	"[2.1158854999998766, 2.691641200000049, 6.924531799999841, 7.099536300000182, 7.2578920999999355, 7.432880599999862, 7.732898400000067, 7.899702700000034, 8.058082999999897, 8.207917900000211, 8.37467740000011, 8.549727300000086]"	129.21704899999986	129.2304898000002	130.72232010000016									09	03	2024-02-06_09h29.43.653	BART_exp	2023.2.3	119.93700908314673	2024-02-06 09h29.53.494126 +0100	
balloon.png	114	0	1	1	26	130.73896120000018													130.72249980000015	130.73896120000018	130.73896120000018	130.73896120000018	130.73896120000018	130.73896120000018	0.006737100000009377	0.006737100000009377	0.006737100000009377	130.73896120000018	132.82418370000005	9	0.45	False	"[0.08055555555555556, 0.08055555555555556, 0.08055555555555556, 0.08055555555555556, 0.08055555555555556, 0.08055555555555556, 0.08055555555555556, 0.08055555555555556, 0.08055555555555556, 0.08055555555555556]"	"[-0.39814814814814814, -0.39814814814814814, -0.39814814814814814, -0.39814814814814814, -0.39814814814814814, -0.39814814814814814, -0.39814814814814814, -0.39814814814814814, -0.39814814814814814, -0.39814814814814814]"	"[1, 1, 1, 1, 1, 1, 1, 1, 1, 0]"	"[0, 0, 0, 0, 0, 0, 0, 0, 0, 0]"	"[0, 0, 0, 0, 0, 0, 0, 0, 0, 1]"	"[0.058796600000277977, 0.24209220000011555, 0.40879610000001776, 0.5589546999999584, 0.8088618000001588, 1.1590233000001717, 1.3590361000001394, 1.6588534000002255, 1.8840092000000368, 2.1007564000001366]"	10	"[0.05510919999960606, 0.2383999999997286, 0.40510519999997996, 0.5552647999998044, 0.8051712999999836, 1.1553334999998697, 1.3553429999997206, 1.6551573999995526, 1.8803224999996928, 2.0969974999998158]"	"[0.1465991000000031, 0.3133554999999433, 0.47993179999957647, 0.6299800999995568, 1.0966513999997005, 1.2466758999999001, 1.4467036999999436, 1.7884080999997423, 2.0550600999999915, 2.0970015999996576]"	132.8250597000001	132.83910240000023	134.3308778999999									09	03	2024-02-06_09h29.43.653	BART_exp	2023.2.3	119.93700908314673	2024-02-06 09h29.53.494126 +0100	
balloon.png	101	0	2	2	23	134.34750110000004													134.33105350000005	134.34750110000004	134.34750110000004	134.34750110000004	134.34750110000004	134.34750110000004	0.00723119999975097	0.00723119999975097	0.00723119999975097	134.34750110000004	140.77453939999987	28	1.40	False	"[0.08055555555555556, 0.08055555555555556, 0.08055555555555556, 0.08055555555555556, 0.08055555555555556, 0.08055555555555556, 0.08055555555555556, 0.08055555555555556, 0.08055555555555556, 0.08055555555555556, 0.08055555555555556, 0.08055555555555556, 0.08055555555555556, 0.08055555555555556, 0.08055555555555556, 0.08055555555555556, 0.08055555555555556, 0.08055555555555556, 0.08055555555555556, 0.08055555555555556, 0.08055555555555556, 0.08055555555555556, 0.08055555555555556, 0.08055555555555556, 0.08055555555555556, 0.08055555555555556, 0.08055555555555556, 0.08055555555555556, 0.08055555555555556, 0.08055555555555556]"	"[-0.39814814814814814, -0.39814814814814814, -0.39814814814814814, -0.39814814814814814, -0.39814814814814814, -0.39814814814814814, -0.39814814814814814, -0.39814814814814814, -0.39814814814814814, -0.39814814814814814, -0.39814814814814814, -0.39814814814814814, -0.39814814814814814, -0.39814814814814814, -0.39814814814814814, -0.39814814814814814, -0.39814814814814814, -0.39814814814814814, -0.39814814814814814, -0.39814814814814814, -0.39814814814814814, -0.39814814814814814, -0.39814814814814814, -0.39814814814814814, -0.39814814814814814, -0.39814814814814814, -0.39814814814814814, -0.39814814814814814, -0.39814814814814814, -0.39814814814814814]"	"[1, 1, 1, 1, 1, 1, 1, 1, 1, 1, 1, 1, 1, 1, 1, 1, 1, 1, 1, 1, 1, 1, 1, 1, 1, 1, 1, 1, 1, 1]"	"[0, 0, 0, 0, 0, 0, 0, 0, 0, 0, 0, 0, 0, 0, 0, 0, 0, 0, 0, 0, 0, 0, 0, 0, 0, 0, 0, 0, 0, 0]"	"[0, 0, 0, 0, 0, 0, 0, 0, 0, 0, 0, 0, 0, 0, 0, 0, 0, 0, 0, 0, 0, 0, 0, 0, 0, 0, 0, 0, 0, 1]"	"[0.025458699999944656, 0.23385069999994812, 0.40881450000006225, 0.6172638000002735, 0.8005382000001191, 1.000538300000244, 1.2172088000002077, 1.433885200000077, 1.6339109000000462, 1.817237600000226, 2.000612799999999, 2.175847900000008, 2.4089656999999534, 2.5923381000002337, 2.810345200000029, 3.0173195000002124, 3.2090244000000894, 3.484153100000185, 3.9508703999999852, 4.167556300000342, 4.559263699999974, 4.750939700000345, 4.96761830000014, 5.275797400000101, 5.4841645999999855, 5.675997400000142, 5.8591802999999345, 6.042537700000139, 6.267655999999988, 6.442591200000152]"	29	"[0.02015690000007453, 0.22854340000003504, 0.40351170000030834, 0.6119573000000855, 0.7952351000003546, 0.9952325000003839, 1.2119010000001254, 1.4285800000002382, 1.6286104000000705, 1.8119343000003028, 1.9953050000003714, 2.170544300000074, 2.403669400000126, 2.5870420000001104, 2.8051985000001878, 3.012017900000046, 3.203719699999965, 3.4788441000000603, 3.9455602000002727, 4.162250100000165, 4.553958200000125, 4.745629200000167, 4.962308600000142, 5.270491700000093, 5.4788540000004105, 5.6706928000003245, 5.853871000000254, 6.037226600000395, 6.262354800000139]"	"[0.12975550000010116, 0.32833460000028936, 0.48692300000038813, 0.6700819000002411, 0.8868279000002985, 1.0783823000001576, 1.3201434000002337, 1.4951320000000123, 1.711791600000197, 1.9035993000002236, 2.07017900000028, 2.2534755000001496, 2.471560700000282, 2.6534943000001476, 2.8785038000000895, 3.061859800000093, 3.328591899999992, 3.611886200000299, 4.070320300000276, 4.270281200000227, 4.6286261000000195, 4.845317600000271, 5.070323600000393, 5.428695400000379, 5.603694700000233, 5.77049020000004, 5.978903900000205, 6.1787428000002365, 6.4372166000002835]"	140.77568900000006	140.78961530000015	142.2814269999999									09	03	2024-02-06_09h29.43.653	BART_exp	2023.2.3	119.93700908314673	2024-02-06 09h29.53.494126 +0100	
balloon.png	53	0	3	3	12	142.29805280000028													142.28160000000025	142.29805280000028	142.29805280000028	142.29805280000028	142.29805280000028	142.29805280000028	0.007247300000017276	0.007247300000017276	0.007247300000017276	142.29805280000028	150.87517509999998	43	2.15	False	"[0.08055555555555556, 0.08055555555555556, 0.08055555555555556, 0.08055555555555556, 0.08055555555555556, 0.08055555555555556, 0.08055555555555556, 0.08055555555555556, 0.08055555555555556, 0.08055555555555556, 0.08055555555555556, 0.08055555555555556, 0.08055555555555556, 0.08055555555555556, 0.08055555555555556, 0.08055555555555556, 0.08055555555555556, 0.08055555555555556, 0.08055555555555556, 0.08055555555555556, 0.08055555555555556, 0.08055555555555556, 0.08055555555555556, 0.08055555555555556, 0.08055555555555556, 0.08055555555555556, 0.08055555555555556, 0.08055555555555556, 0.08055555555555556, 0.08055555555555556, 0.08055555555555556, 0.08055555555555556, 0.08055555555555556, 0.08055555555555556, 0.08055555555555556, 0.08055555555555556, 0.08055555555555556, 0.08055555555555556, 0.08055555555555556, 0.08055555555555556, 0.08055555555555556, 0.08055555555555556, 0.08055555555555556]"	"[-0.39814814814814814, -0.39814814814814814, -0.39814814814814814, -0.39814814814814814, -0.39814814814814814, -0.39814814814814814, -0.39814814814814814, -0.39814814814814814, -0.39814814814814814, -0.39814814814814814, -0.39814814814814814, -0.39814814814814814, -0.39814814814814814, -0.39814814814814814, -0.39814814814814814, -0.39814814814814814, -0.39814814814814814, -0.39814814814814814, -0.39814814814814814, -0.39814814814814814, -0.39814814814814814, -0.39814814814814814, -0.39814814814814814, -0.39814814814814814, -0.39814814814814814, -0.39814814814814814, -0.39814814814814814, -0.39814814814814814, -0.39814814814814814, -0.39814814814814814, -0.39814814814814814, -0.39814814814814814, -0.39814814814814814, -0.39814814814814814, -0.39814814814814814, -0.39814814814814814, -0.39814814814814814, -0.39814814814814814, -0.39814814814814814, -0.39814814814814814, -0.39814814814814814, -0.39814814814814814, -0.39814814814814814]"	"[1, 1, 1, 1, 1, 1, 1, 1, 1, 1, 1, 1, 1, 1, 1, 1, 1, 1, 1, 1, 1, 1, 1, 1, 1, 1, 1, 1, 1, 1, 1, 1, 1, 1, 1, 1, 1, 1, 1, 1, 1, 1, 0]"	"[0, 0, 0, 0, 0, 0, 0, 0, 0, 0, 0, 0, 0, 0, 0, 0, 0, 0, 0, 0, 0, 0, 0, 0, 0, 0, 0, 0, 0, 0, 0, 0, 0, 0, 0, 0, 0, 0, 0, 0, 0, 0, 0]"	"[0, 0, 0, 0, 0, 0, 0, 0, 0, 0, 0, 0, 0, 0, 0, 0, 0, 0, 0, 0, 0, 0, 0, 0, 0, 0, 0, 0, 0, 0, 0, 0, 0, 0, 0, 0, 0, 0, 0, 0, 0, 0, 1]"	"[0.08380650000026435, 0.2590637000002971, 0.4421535000001313, 0.617309600000226, 0.7923147999999856, 1.0006759000002603, 1.184082799999942, 1.3590549000000465, 1.6755490000000464, 1.9089109999999891, 2.0424057000000175, 2.2258427000001575, 2.4007862000003115, 2.5924448999999186, 2.784111800000119, 2.950802400000157, 3.142621500000132, 3.3425460000003113, 3.5256932000002053, 3.709139100000357, 3.917497800000092, 4.117515100000219, 4.309070600000268, 4.517630400000144, 4.809272599999986, 5.034141600000112, 5.2757964000002175, 5.492480400000204, 5.700945300000058, 5.909185900000011, 6.109211200000118, 6.384398300000157, 6.592726500000026, 6.776064700000006, 6.9844090000001415, 7.20112969999991, 7.384447500000078, 7.567773100000068, 7.7761388000003535, 7.967826099999911, 8.134478800000124, 8.384555000000091, 8.592681699999957]"	43	"[0.07913270000017292, 0.2543894000000364, 0.43748310000000856, 0.6126343999999335, 0.7876470999999583, 0.9959975000001577, 1.17940469999985, 1.3543754000002082, 1.6708739999999125, 1.9042331999999078, 2.0377269999999044, 2.2211637000000337, 2.3961128000000826, 2.587767399999848, 2.779438999999911, 2.9461221999999907, 3.1379471000000194, 3.3378812000000835, 3.521017800000209, 3.7044655999998213, 3.912824399999863, 4.112843599999906, 4.304399000000103, 4.5129588999998305, 4.8045938999998725, 5.029472799999894, 5.271121400000084, 5.487808500000028, 5.696273000000019, 5.9045138999999836, 6.104544799999985, 6.379733400000077, 6.588051600000199, 6.771389099999851, 6.979734500000177, 7.196464300000116, 7.379772899999807, 7.563100500000019, 7.771470399999998, 7.963152700000137, 8.129802500000096, 8.379881599999862, 8.58794510000007]"	"[0.17913129999988087, 0.3623210000000654, 0.5373125999999502, 0.6956794000002446, 0.9540148999999474, 1.112361399999827, 1.287386399999832, 1.4373823000000812, 1.770772500000021, 1.9625240000000304, 2.1291062999998758, 2.320775700000013, 2.504214999999931, 2.6624720999998317, 2.8542084000000614, 3.070832899999914, 3.25421950000009, 3.4459529999999177, 3.6208676999999625, 3.804210100000091, 4.012568799999826, 4.2292723999999, 4.429380699999911, 4.629276300000129, 4.912698300000102, 5.162671600000067, 5.387669100000039, 5.596060800000032, 5.8127746999998635, 6.012911000000258, 6.221050999999989, 6.487741800000094, 6.6710886999999275, 6.896095900000091, 7.087765199999922, 7.304441400000087, 7.487799300000006, 7.687829699999838, 7.887816999999814, 8.079496599999857, 8.254702799999905, 8.496232999999847, 8.587949199999912]"	150.87665470000002	150.89030189999994	152.3821229									09	03	2024-02-06_09h29.43.653	BART_exp	2023.2.3	119.93700908314673	2024-02-06 09h29.53.494126 +0100	
balloon.png	105	0	4	4	24	152.39874580000014													152.3822983	152.39874580000014	152.39874580000014	152.39874580000014	152.39874580000014	152.39874580000014	0.006961199999750534	0.006961199999750534	0.006961199999750534	152.39874580000014	165.28471230000014	61	3.05	False	"[0.06851851851851852, 0.06851851851851852, 0.06851851851851852, 0.06851851851851852, 0.06851851851851852, 0.06851851851851852, 0.06851851851851852, 0.06759259259259259, 0.06759259259259259, 0.06759259259259259, 0.06759259259259259, 0.06759259259259259, 0.06759259259259259, 0.06759259259259259, 0.06759259259259259, 0.06759259259259259, 0.06759259259259259, 0.06759259259259259, 0.06759259259259259, 0.06759259259259259, 0.06759259259259259, 0.06759259259259259, 0.06759259259259259, 0.06759259259259259, 0.06759259259259259, 0.06759259259259259, 0.06759259259259259, 0.06759259259259259, 0.06759259259259259, 0.06759259259259259, 0.06759259259259259, 0.06759259259259259, 0.06759259259259259, 0.06759259259259259, 0.06759259259259259, 0.06759259259259259, 0.06759259259259259, 0.06759259259259259, 0.06759259259259259, 0.06759259259259259, 0.06759259259259259, 0.06759259259259259, 0.06759259259259259, 0.06759259259259259, 0.06759259259259259, 0.06759259259259259, 0.06759259259259259, 0.06759259259259259, 0.06759259259259259, 0.06759259259259259, 0.06759259259259259, 0.06666666666666667, 0.06666666666666667, 0.06666666666666667, 0.06666666666666667, 0.06666666666666667, 0.06666666666666667, 0.06574074074074074, 0.06574074074074074, 0.06574074074074074, 0.06574074074074074, 0.06481481481481481]"	"[-0.39814814814814814, -0.39814814814814814, -0.39814814814814814, -0.39814814814814814, -0.39814814814814814, -0.39814814814814814, -0.39814814814814814, -0.3990740740740741, -0.3990740740740741, -0.3990740740740741, -0.3990740740740741, -0.3990740740740741, -0.3990740740740741, -0.3990740740740741, -0.3990740740740741, -0.3990740740740741, -0.3990740740740741, -0.3990740740740741, -0.3990740740740741, -0.3990740740740741, -0.3990740740740741, -0.3990740740740741, -0.3990740740740741, -0.3990740740740741, -0.3990740740740741, -0.3990740740740741, -0.3990740740740741, -0.3990740740740741, -0.3990740740740741, -0.3990740740740741, -0.3990740740740741, -0.4009259259259259, -0.40185185185185185, -0.4027777777777778, -0.4027777777777778, -0.4027777777777778, -0.4027777777777778, -0.4027777777777778, -0.4027777777777778, -0.4027777777777778, -0.4027777777777778, -0.4027777777777778, -0.4027777777777778, -0.4027777777777778, -0.4027777777777778, -0.4027777777777778, -0.40370370370370373, -0.40370370370370373, -0.40370370370370373, -0.40370370370370373, -0.40370370370370373, -0.4046296296296296, -0.4046296296296296, -0.4046296296296296, -0.4074074074074074, -0.4083333333333333, -0.4083333333333333, -0.4083333333333333, -0.4083333333333333, -0.4083333333333333, -0.4083333333333333, -0.4074074074074074]"	"[1, 1, 1, 1, 1, 1, 1, 1, 1, 1, 1, 1, 1, 1, 1, 1, 1, 1, 1, 1, 1, 1, 1, 1, 1, 1, 1, 1, 1, 1, 1, 1, 1, 1, 1, 1, 1, 1, 1, 1, 1, 1, 1, 1, 1, 1, 1, 1, 1, 1, 1, 1, 1, 1, 1, 1, 1, 1, 1, 1, 1, 0]"	"[0, 0, 0, 0, 0, 0, 0, 0, 0, 0, 0, 0, 0, 0, 0, 0, 0, 0, 0, 0, 0, 0, 0, 0, 0, 0, 0, 0, 0, 0, 0, 0, 0, 0, 0, 0, 0, 0, 0, 0, 0, 0, 0, 0, 0, 0, 0, 0, 0, 0, 0, 0, 0, 0, 0, 0, 0, 0, 0, 0, 0, 0]"	"[0, 0, 0, 0, 0, 0, 0, 0, 0, 0, 0, 0, 0, 0, 0, 0, 0, 0, 0, 0, 0, 0, 0, 0, 0, 0, 0, 0, 0, 0, 0, 0, 0, 0, 0, 0, 0, 0, 0, 0, 0, 0, 0, 0, 0, 0, 0, 0, 0, 0, 0, 0, 0, 0, 0, 0, 0, 0, 0, 0, 0, 1]"	"[0.10078249999969557, 0.3087852999997267, 0.47566079999978683, 0.6423184999998739, 0.8423146999998607, 1.0257754999997815, 1.2090711000000738, 1.4341402999998536, 1.6256711999999425, 1.8423872999997002, 2.050722599999972, 2.2424040999999306, 2.417446800000107, 2.6173985999998877, 2.850779500000044, 2.958976200000052, 3.2007494999998016, 3.3756625999999414, 3.584039599999869, 3.759056099999725, 3.959022300000015, 4.1590713000000505, 4.425888400000076, 4.692625700000008, 4.975767200000064, 5.19244499999968, 5.400898999999754, 5.6010261000001265, 5.817623299999923, 6.059363500000018, 6.284420500000124, 6.501150000000052, 6.742545000000064, 6.984260199999881, 7.184359500000028, 7.392768599999727, 7.617781599999944, 7.842774599999757, 8.02612229999977, 8.267814199999975, 8.492823399999907, 8.67617859999973, 8.89288869999973, 9.109518299999763, 9.326063099999828, 9.626244300000053, 9.834648000000016, 10.026264099999935, 10.209587199999987, 10.401307300000099, 10.64299600000004, 10.843029599999682, 11.04299839999976, 11.226353799999742, 11.527544699999908, 11.759567499999775, 11.951244699999734, 12.15129109999998, 12.326297499999782, 12.509638900000027, 12.676504900000054, 12.901496299999963]"	62	"[0.09741459999986546, 0.305417099999886, 0.4722935999998299, 0.6389533999999912, 0.8389482999996289, 1.022402499999771, 1.2056994999998096, 1.4307761999998547, 1.6223009999998794, 1.8390174999999545, 2.047356299999592, 2.2390379999997094, 2.414078899999822, 2.614026599999761, 2.84740789999978, 2.955606699999862, 3.1973799999996118, 3.372297399999752, 3.5806682999996156, 3.755682799999704, 3.9556548999998995, 4.15570469999966, 4.4225211999996645, 4.689253000000008, 4.972394399999757, 5.189077499999712, 5.3975288999999975, 5.597654799999873, 5.814254299999902, 6.055992499999775, 6.2810514999996485, 6.4977836999996725, 6.739176499999758, 6.9810420999997405, 7.180990699999711, 7.389401999999791, 7.614415999999892, 7.839411199999631, 8.022753199999897, 8.264447499999733, 8.489454000000023, 8.672811399999773, 8.889517699999942, 9.106146399999943, 9.322696799999903, 9.622868699999799, 9.831438799999887, 10.022893699999713, 10.20621439999968, 10.397933399999602, 10.639625599999817, 10.839658999999756, 11.039625999999771, 11.222983099999965, 11.524334399999589, 11.756199699999797, 11.947872699999607, 12.14792449999959, 12.322926999999709, 12.5062740999997, 12.67313409999997, 12.898062399999617]"	"[0.22191169999996418, 0.4052662999997665, 0.5719748999999865, 0.7553232000000207, 0.9552897999997185, 1.138660599999639, 1.3386452999998255, 1.5054866999998922, 1.730353599999944, 1.9387008999997306, 2.113725400000021, 2.3137587999999596, 2.5303971999996975, 2.7054292999996505, 2.8804354999997486, 3.063803900000039, 3.30550889999995, 3.48057929999959, 3.6472208000000137, 3.8471655999996983, 4.080512300000009, 4.3555811999999605, 4.572218999999677, 4.88074319999987, 5.113914699999896, 5.305592499999875, 5.530596999999943, 5.738944999999603, 5.930662499999926, 6.163996699999643, 6.389023499999894, 6.589102099999764, 6.930903899999976, 7.0807505999996465, 7.289129099999627, 7.505745699999807, 7.714175399999931, 7.914096799999697, 8.147485299999971, 8.35582439999962, 8.597491900000023, 8.789186999999856, 8.980859399999645, 9.20586239999966, 9.41424999999981, 9.764269099999638, 9.947622199999842, 10.15591859999995, 10.305951999999706, 10.50596429999996, 10.772728899999947, 10.947690099999818, 11.156001099999685, 11.356006999999863, 11.639370999999755, 11.839420099999643, 12.056090599999607, 12.231071799999881, 12.422747399999935, 12.58943539999973, 12.772792899999786, 12.89806950000002]"	165.2864509000001	165.29964710000013	166.79144480000014									09	03	2024-02-06_09h29.43.653	BART_exp	2023.2.3	119.93700908314673	2024-02-06 09h29.53.494126 +0100	
balloon.png	88	0	5	5	20	166.80806669999993													166.7916169	166.80806669999993	166.80806669999993	166.80806669999993	166.80806669999993	166.80806669999993	0.006491399999958958	0.006491399999958958	0.006491399999958958	166.80806669999993	173.86022709999997	33	1.65	False	"[0.06018518518518518, 0.06018518518518518, 0.05925925925925926, 0.05648148148148148, 0.05648148148148148, 0.05648148148148148, 0.05648148148148148, 0.05648148148148148, 0.05648148148148148, 0.05648148148148148, 0.05648148148148148, 0.05648148148148148, 0.05648148148148148, 0.05648148148148148, 0.05648148148148148, 0.05648148148148148, 0.05648148148148148, 0.05648148148148148, 0.05648148148148148, 0.05648148148148148, 0.05648148148148148, 0.05648148148148148, 0.05648148148148148, 0.05648148148148148, 0.05648148148148148, 0.05648148148148148, 0.05648148148148148, 0.05648148148148148, 0.05648148148148148, 0.05648148148148148, 0.05648148148148148, 0.05648148148148148, 0.05648148148148148]"	"[-0.4064814814814815, -0.4064814814814815, -0.4074074074074074, -0.40925925925925927, -0.40925925925925927, -0.40925925925925927, -0.40925925925925927, -0.40925925925925927, -0.40925925925925927, -0.40925925925925927, -0.40925925925925927, -0.4101851851851852, -0.4101851851851852, -0.4101851851851852, -0.4101851851851852, -0.4101851851851852, -0.4101851851851852, -0.4101851851851852, -0.4101851851851852, -0.4101851851851852, -0.4101851851851852, -0.4101851851851852, -0.4101851851851852, -0.4101851851851852, -0.4101851851851852, -0.4101851851851852, -0.4101851851851852, -0.4101851851851852, -0.4101851851851852, -0.4101851851851852, -0.4101851851851852, -0.4101851851851852, -0.4101851851851852]"	"[1, 1, 1, 1, 1, 1, 1, 1, 1, 1, 1, 1, 1, 1, 1, 1, 1, 1, 1, 1, 1, 1, 1, 1, 1, 1, 1, 1, 1, 1, 1, 1, 0]"	"[0, 0, 0, 0, 0, 0, 0, 0, 0, 0, 0, 0, 0, 0, 0, 0, 0, 0, 0, 0, 0, 0, 0, 0, 0, 0, 0, 0, 0, 0, 0, 0, 0]"	"[0, 0, 0, 0, 0, 0, 0, 0, 0, 0, 0, 0, 0, 0, 0, 0, 0, 0, 0, 0, 0, 0, 0, 0, 0, 0, 0, 0, 0, 0, 0, 0, 1]"	"[0.10879179999983535, 0.2839494999998351, 0.4756545999998707, 0.7840336999997817, 0.9589701999998397, 1.1339131999998244, 1.3588764999999512, 1.5172522999996545, 1.7172365999999784, 1.8922469999997702, 2.1255813999996462, 2.275787599999603, 2.4424878999998327, 2.6757753999995657, 2.8591514999998253, 3.034139199999572, 3.2258168999996997, 3.542405400000007, 3.767522099999951, 3.967605899999853, 4.159063499999775, 4.48410369999965, 4.709111099999973, 5.050944499999787, 5.2426643999997395, 5.459326099999998, 5.659420699999828, 5.9175523999997495, 6.100886799999898, 6.334219499999563, 6.592785599999843, 6.767718799999784, 7.0677230999999665]"	33	"[0.10464299999966897, 0.27979899999991176, 0.471507599999768, 0.7798822999998265, 0.9548307999998542, 1.1297674999996161, 1.3547258999997212, 1.5131032999997842, 1.7130871999997908, 1.8880964999998469, 2.1214285999999447, 2.2716403999997965, 2.4383436999996775, 2.671646399999645, 2.855002599999807, 3.029986000000008, 3.221666599999935, 3.5382557999996607, 3.7633710999998584, 3.963452899999993, 4.154909199999565, 4.479949999999917, 4.704956399999901, 5.046795099999599, 5.238513599999806, 5.4551815999998325, 5.655272399999831, 5.9134015999998155, 6.096737200000007, 6.33006929999965, 6.588630899999771, 6.763567499999681, 7.0635058999996545]"	"[0.20449579999967682, 0.35449719999996887, 0.57123029999957, 0.8795348999997259, 1.0545544999999947, 1.271281099999669, 1.47124199999962, 1.587921599999845, 1.8129501999997046, 1.9879626999995708, 2.1964226000000053, 2.404693699999825, 2.5796754999996665, 2.779666499999621, 2.954696899999817, 3.1380465999995977, 3.329745499999717, 3.671382199999698, 3.8798360999999204, 4.079753499999697, 4.2797686999997495, 4.613125399999717, 4.9715016999998625, 5.1548594999999295, 5.346580799999629, 5.554865999999947, 5.738382799999727, 6.004895199999737, 6.196675799999866, 6.446825399999852, 6.70499559999962, 6.980029799999556, 7.063509899999644]"	173.8614379999999	173.87523009999995	175.36703560000024									09	03	2024-02-06_09h29.43.653	BART_exp	2023.2.3	119.93700908314673	2024-02-06 09h29.53.494126 +0100	
balloon.png	14	0	6	6	3	175.38367229999994													175.36721410000018	175.38367229999994	175.38367229999994	175.38367229999994	175.38367229999994	175.38367229999994	0.007015099999989616	0.007015099999989616	0.007015099999989616	175.38367229999994	178.49409100000003	15	0.70	True	"[0.05555555555555555, 0.05555555555555555, 0.05555555555555555, 0.05555555555555555, 0.05555555555555555, 0.05462962962962963, 0.05185185185185185, 0.05185185185185185, 0.05185185185185185, 0.05185185185185185, 0.05185185185185185, 0.05185185185185185, 0.05185185185185185, 0.05185185185185185, 0.05185185185185185]"	"[-0.4101851851851852, -0.4101851851851852, -0.4101851851851852, -0.4101851851851852, -0.4101851851851852, -0.4101851851851852, -0.4111111111111111, -0.4111111111111111, -0.4111111111111111, -0.4111111111111111, -0.4111111111111111, -0.4111111111111111, -0.4111111111111111, -0.4111111111111111, -0.4111111111111111]"	"[1, 1, 1, 1, 1, 1, 1, 1, 1, 1, 1, 1, 1, 1, 1]"	"[0, 0, 0, 0, 0, 0, 0, 0, 0, 0, 0, 0, 0, 0, 0]"	"[0, 0, 0, 0, 0, 0, 0, 0, 0, 0, 0, 0, 0, 0, 0]"	"[0.04234940000014831, 0.39228970000021945, 0.6090164000002005, 0.8173423000002913, 1.017446100000143, 1.2173545999999078, 1.4425541000000521, 1.6257261999999173, 1.7840731999999662, 1.9840413000001718, 2.2507549000001745, 2.508961800000179, 2.6841220999999678, 2.8675606000001608, 3.0508088999999927]"	15	"[0.03340710000020408, 0.38333490000013626, 0.6000680000001921, 0.8083871000003455, 1.0084927000002608, 1.208397700000205, 1.4336071000002448, 1.6167758000001413, 1.7751170999999886, 1.9750882000003003, 2.2417997000002288, 2.5000082000001385, 2.675162900000032, 2.858602300000257, 3.0418471000002683]"	"[0.299683400000049, 0.49136399999997593, 0.6830463999999665, 0.916533999999956, 1.0914026000000376, 1.2997838000001138, 1.5333109000002878, 1.6914325000002464, 1.866453300000103, 2.1666557000003195, 2.3664945000000444, 2.5915419000002657, 2.7748759000000973, 2.9499731000000793, 3.1082077999999456]"	178.49496210000007	178.50053620000017	179.9925435	180.00899359999994								09	03	2024-02-06_09h29.43.653	BART_exp	2023.2.3	119.93700908314673	2024-02-06 09h29.53.494126 +0100	
balloon.png	79	0	7	7	18	180.00899359999994													179.9927243000002	180.00899359999994	180.00899359999994	180.00899359999994	180.00899359999994	180.00899359999994	-0.0009340999999949418	-0.0009340999999949418	-0.0009340999999949418	180.00899359999994	181.22777110000015	5	0.25	False	"[0.05185185185185185, 0.05185185185185185, 0.05185185185185185, 0.05185185185185185, 0.05185185185185185, 0.05185185185185185, 0.05185185185185185]"	"[-0.4111111111111111, -0.4111111111111111, -0.4111111111111111, -0.4111111111111111, -0.4111111111111111, -0.4111111111111111, -0.41203703703703703]"	"[1, 1, 1, 1, 1, 1, 1]"	"[0, 0, 0, 0, 0, 0, 0]"	"[0, 0, 0, 0, 0, 0, 1]"	"[0.09209370000007766, 0.2420697000002292, 0.4254201000003377, 0.5920946000001095, 0.7670838000003641, 0.9587864000000081, 1.2340315000001283]"	6	"[0.08916930000032153, 0.2391391000001022, 0.4224962000002961, 0.5891657000001942, 0.7641564000000471, 0.9558570000003783]"	"[0.14716160000034506, 0.29723009999997885, 0.4805470000001151, 0.6805260000000999, 0.8555258999999751, 1.231057100000271]"	181.22851459999993	181.23406669999986	182.72602749999987	182.7425535000002								09	03	2024-02-06_09h29.43.653	BART_exp	2023.2.3	119.93700908314673	2024-02-06 09h29.53.494126 +0100	
balloon.png	1	0	8	8	0	182.7425535000002													182.72620630000029	182.7425535000002	182.7425535000002	182.7425535000002	182.7425535000002	182.7425535000002	-0.0007810000001882145	-0.0007810000001882145	-0.0007810000001882145	182.7425535000002	183.01115710000022	2	0.05	True	[0.05185185185185185]	[-0.412962962962963]	[1]	[0]	[0]	[0.1835875000001579]	1	[0.17416150000008201]	[0.2657182000002649]	183.01166390000026	183.0175088000001	184.50955190000013	184.5259500000002								09	03	2024-02-06_09h29.43.653	BART_exp	2023.2.3	119.93700908314673	2024-02-06 09h29.53.494126 +0100	
balloon.png	66	0	9	9	15	184.5259500000002													184.50973599999998	184.5259500000002	184.5259500000002	184.5259500000002	184.5259500000002	184.5259500000002	-0.0006290000001172302	-0.0006290000001172302	-0.0006290000001172302	184.5259500000002	193.91163940000024	43	2.15	False	"[0.05185185185185185, 0.05185185185185185, 0.05185185185185185, 0.05185185185185185, 0.05185185185185185, 0.05185185185185185, 0.05185185185185185, 0.05185185185185185, 0.05185185185185185, 0.05185185185185185, 0.05185185185185185, 0.05185185185185185, 0.05185185185185185, 0.05185185185185185, 0.05185185185185185, 0.05185185185185185, 0.05185185185185185, 0.05185185185185185, 0.05185185185185185, 0.05185185185185185, 0.05185185185185185, 0.05185185185185185, 0.05185185185185185, 0.05185185185185185, 0.05185185185185185, 0.05185185185185185, 0.05185185185185185, 0.05185185185185185, 0.05185185185185185, 0.05185185185185185, 0.05185185185185185, 0.05185185185185185, 0.05185185185185185, 0.05185185185185185, 0.05185185185185185, 0.05185185185185185, 0.05185185185185185, 0.05185185185185185, 0.05185185185185185, 0.05185185185185185, 0.05185185185185185, 0.05185185185185185, 0.05092592592592592, 0.05092592592592592, 0.05092592592592592]"	"[-0.412962962962963, -0.412962962962963, -0.412962962962963, -0.412962962962963, -0.412962962962963, -0.412962962962963, -0.412962962962963, -0.412962962962963, -0.412962962962963, -0.412962962962963, -0.412962962962963, -0.412962962962963, -0.412962962962963, -0.412962962962963, -0.412962962962963, -0.412962962962963, -0.412962962962963, -0.412962962962963, -0.412962962962963, -0.412962962962963, -0.412962962962963, -0.412962962962963, -0.412962962962963, -0.412962962962963, -0.412962962962963, -0.412962962962963, -0.412962962962963, -0.412962962962963, -0.412962962962963, -0.412962962962963, -0.412962962962963, -0.412962962962963, -0.412962962962963, -0.412962962962963, -0.412962962962963, -0.412962962962963, -0.412962962962963, -0.412962962962963, -0.412962962962963, -0.412962962962963, -0.412962962962963, -0.412962962962963, -0.412962962962963, -0.412962962962963, -0.412962962962963]"	"[1, 1, 1, 1, 1, 1, 1, 1, 1, 1, 1, 1, 1, 1, 1, 1, 1, 1, 1, 1, 1, 1, 1, 1, 1, 1, 1, 1, 1, 1, 1, 1, 1, 1, 1, 1, 1, 1, 1, 1, 1, 1, 1, 1, 1]"	"[0, 0, 0, 0, 0, 0, 0, 0, 0, 0, 0, 0, 0, 0, 0, 0, 0, 0, 0, 0, 0, 0, 0, 0, 0, 0, 0, 0, 0, 0, 0, 0, 0, 0, 0, 0, 0, 0, 0, 0, 0, 0, 0, 0, 0]"	"[0, 0, 0, 0, 0, 0, 0, 0, 0, 0, 0, 0, 0, 0, 0, 0, 0, 0, 0, 0, 0, 0, 0, 0, 0, 0, 0, 0, 0, 0, 0, 0, 0, 0, 0, 0, 0, 0, 0, 0, 0, 0, 0, 0, 1]"	"[0.22529059999988021, 0.3851002999999764, 0.5668857999999091, 0.7585865000000922, 0.9586902000000919, 1.1669593000001441, 1.3836280999998962, 1.5419621000000916, 1.7503252999999859, 1.9171541999999135, 2.100503199999821, 2.317166299999826, 2.525513399999909, 2.7256240000001526, 2.9255709999997634, 3.1089287999998305, 3.3337768999999753, 3.5587667999998303, 3.7588055999999597, 3.9504735999998957, 4.234011600000031, 4.408823400000074, 4.600698299999749, 4.817188299999998, 5.008857799999987, 5.200570099999823, 5.367325199999868, 5.558957299999747, 5.733976099999836, 5.909298300000046, 6.092428599999948, 6.275819800000136, 6.467483200000061, 6.675822299999709, 6.867475000000013, 7.017449500000112, 7.250846999999794, 7.43421330000001, 7.6091630000000805, 7.834261599999991, 8.025949599999876, 8.334107300000142, 8.800799600000119, 9.15081569999984, 9.400958499999888]"	44	"[0.21903659999998126, 0.3790136999996321, 0.5606346999998095, 0.7523373999997602, 0.9524374999996326, 1.1607113999998546, 1.3773815999998078, 1.5357114999997066, 1.7440766999998232, 1.9109005999998772, 2.0942535999997745, 2.31092179999996, 2.519260999999915, 2.719377099999747, 2.9193262999997387, 3.102680799999689, 3.3275245999998333, 3.552516999999625, 3.7525571999999556, 3.9442182999996476, 4.227769899999657, 4.402574799999911, 4.594446199999766, 4.80274959999997, 5.002606399999877, 5.194318999999723, 5.361076799999864, 5.552706399999806, 5.72773369999959, 5.903061099999832, 6.0861777000000075, 6.26957369999991, 6.461234199999581, 6.669574499999726, 6.861218999999892, 7.011194899999737, 7.244593299999906, 7.42796109999972, 7.602933199999825, 7.828007599999637, 8.019735099999707, 8.327859499999704, 8.794556999999713, 9.144563199999993]"	"[0.31052679999993416, 0.4855232999998407, 0.6606664999999339, 0.8605221999996502, 1.0605367999996815, 1.243875599999683, 1.4605719999999565, 1.635581000000002, 1.8120280999996794, 2.0189573999996355, 2.20227419999992, 2.4022961999999097, 2.618980599999759, 2.8273105999996915, 3.019006999999874, 3.21068219999961, 3.4358386999997492, 3.6774140999996234, 3.869103300000006, 4.110793699999704, 4.319068399999651, 4.544109099999787, 4.735791099999915, 4.9274452999998175, 5.110868599999776, 5.3108186999998, 5.469152799999847, 5.652516099999957, 5.8191750999999385, 6.002544499999658, 6.202654799999891, 6.3775589999995645, 6.577571099999659, 6.727584599999773, 6.935939199999666, 7.1359410999998545, 7.327627599999687, 7.527825399999983, 7.719350399999712, 7.935994599999958, 8.119426499999918, 8.669402199999695, 8.93610819999958, 9.394655599999624]"	193.91304639999998	193.9182980999999	195.41022569999996	195.41835850000007								09	03	2024-02-06_09h29.43.653	BART_exp	2023.2.3	119.93700908314673	2024-02-06 09h29.53.494126 +0100	
balloon.png	40	0	10	10	9	195.41835850000007													195.41040870000006	195.41835850000007	195.41835850000007	195.41835850000007	195.41835850000007	195.41835850000007	0.005375000000185537	0.005375000000185537	0.005375000000185537	195.41835850000007	204.97937730000012	41	2.00	True	"[0.225, 0.225, 0.18611111111111112, 0.125, 0.12314814814814815, 0.12314814814814815, 0.12314814814814815, 0.12314814814814815, 0.12314814814814815, 0.12314814814814815, 0.12314814814814815, 0.12314814814814815, 0.12314814814814815, 0.12314814814814815, 0.12314814814814815, 0.12314814814814815, 0.12314814814814815, 0.12314814814814815, 0.12314814814814815, 0.12314814814814815, 0.12314814814814815, 0.12314814814814815, 0.12314814814814815, 0.12314814814814815, 0.12314814814814815, 0.12314814814814815, 0.12314814814814815, 0.12314814814814815, 0.12314814814814815, 0.12314814814814815, 0.12314814814814815, 0.12314814814814815, 0.12314814814814815, 0.12314814814814815, 0.12314814814814815, 0.12314814814814815, 0.12314814814814815, 0.12314814814814815, 0.12314814814814815, 0.12314814814814815, 0.12314814814814815, 0.12314814814814815, 0.12314814814814815, 0.12314814814814815]"	"[-0.2712962962962963, -0.2712962962962963, -0.35648148148148145, -0.36666666666666664, -0.36666666666666664, -0.36666666666666664, -0.36666666666666664, -0.36666666666666664, -0.36666666666666664, -0.36666666666666664, -0.36666666666666664, -0.36666666666666664, -0.36666666666666664, -0.36666666666666664, -0.36666666666666664, -0.36666666666666664, -0.36666666666666664, -0.36666666666666664, -0.36666666666666664, -0.36666666666666664, -0.36666666666666664, -0.36666666666666664, -0.36666666666666664, -0.36666666666666664, -0.36666666666666664, -0.36666666666666664, -0.36666666666666664, -0.36666666666666664, -0.36666666666666664, -0.36666666666666664, -0.36666666666666664, -0.36666666666666664, -0.36666666666666664, -0.36666666666666664, -0.36666666666666664, -0.36666666666666664, -0.36666666666666664, -0.36666666666666664, -0.36666666666666664, -0.36666666666666664, -0.36666666666666664, -0.36666666666666664, -0.36666666666666664, -0.36666666666666664]"	"[1, 1, 1, 1, 1, 1, 1, 1, 1, 1, 1, 1, 1, 1, 1, 1, 1, 1, 1, 1, 1, 1, 1, 1, 1, 1, 1, 1, 1, 1, 1, 1, 1, 1, 1, 1, 1, 1, 1, 1, 1, 1, 1, 1]"	"[0, 0, 0, 0, 0, 0, 0, 0, 0, 0, 0, 0, 0, 0, 0, 0, 0, 0, 0, 0, 0, 0, 0, 0, 0, 0, 0, 0, 0, 0, 0, 0, 0, 0, 0, 0, 0, 0, 0, 0, 0, 0, 0, 0]"	"[0, 0, 0, 0, 0, 0, 0, 0, 0, 0, 0, 0, 0, 0, 0, 0, 0, 0, 0, 0, 0, 0, 0, 0, 0, 0, 0, 0, 0, 0, 0, 0, 0, 0, 0, 0, 0, 0, 0, 0, 0, 0, 0, 0]"	"[0.2753290000000561, 0.45029440000007526, 0.8670129000001907, 1.9506415999999263, 2.1255629000002045, 2.2840430999999626, 2.4755427999998574, 2.625449199999821, 2.8090446000001066, 3.0254589999999553, 3.200619700000061, 3.400655800000095, 3.600661399999808, 3.800530399999843, 4.000728999999865, 4.134033799999997, 4.3256930000002285, 4.517377399999987, 4.692312700000002, 4.875586900000144, 5.060351600000104, 5.252010900000187, 5.433977700000014, 5.600858700000117, 5.792487000000165, 5.96757370000023, 6.175945899999988, 6.3759328000001005, 6.576024800000141, 6.79239890000008, 6.9426165999998375, 7.12590739999996, 7.342578599999797, 7.517623300000196, 7.742603300000155, 7.917618699999821, 8.1176375, 8.292628499999864, 8.492499699999826, 8.676065600000129, 8.884396899999956, 9.084349300000213, 9.267598700000235, 9.450903800000106]"	40	"[1.9487389999999323, 2.1236614999997983, 2.2821442999998, 2.473638899999969, 2.6235469999996894, 2.807147499999701, 3.023560699999962, 3.1987174000000778, 3.398753999999826, 3.598761199999899, 3.7986267999999654, 3.9988241999999445, 4.13213369999994, 4.323787100000118, 4.51547359999995, 4.690410899999733, 4.873688599999696, 5.058612400000129, 5.250283800000034, 5.4320763000000625, 5.598954000000049, 5.79057929999999, 5.965676700000131, 6.174039600000015, 6.374027099999694, 6.574146699999801, 6.790499100000034, 6.940715700000055, 7.124008700000104, 7.340672199999972, 7.515722499999811, 7.740696299999854, 7.915719199999785, 8.115741300000082, 8.290721800000028, 8.674167899999702, 8.882489699999951, 9.08245450000004, 9.265694100000019, 9.448997899999995]"	"[2.015035800000078, 2.1983666000000994, 2.3566875999999866, 2.531709899999896, 2.7165476999998646, 2.9151410999998006, 3.098478899999918, 3.2901600000000144, 3.481811899999684, 3.7067951999997604, 3.8735170999998445, 4.06536879999976, 4.248521600000004, 4.415234600000076, 4.590163299999858, 4.781937799999923, 4.956856899999821, 5.149451100000078, 5.356948999999986, 5.523575100000016, 5.740522099999907, 5.898751100000027, 6.082015899999988, 6.2821116000000075, 6.507118300000002, 6.715337600000112, 6.8570058000000245, 7.057054899999912, 7.265431199999966, 7.457085600000028, 7.657089100000121, 7.8487528999999085, 8.048749499999758, 8.207174499999837, 8.615454599999794, 8.798790899999858, 8.982165699999769, 9.182181700000001, 9.37383409999984, 9.557198799999696]"	204.98072820000016	204.98568019999993	206.4776723	206.48578260000022								09	03	2024-02-06_09h29.43.653	BART_exp	2023.2.3	119.93700908314673	2024-02-06 09h29.53.494126 +0100	
balloon.png	18	0	11	11	4	206.48578260000022													206.4778538999999	206.48578260000022	206.48578260000022	206.48578260000022	206.48578260000022	206.48578260000022	0.005113000000164902			206.48578260000022	210.09636709999995	19	0.90	True	"[0.12314814814814815, 0.12314814814814815, 0.12314814814814815, 0.12314814814814815, 0.12314814814814815, 0.12314814814814815, 0.12314814814814815, 0.12314814814814815, 0.12314814814814815, 0.12314814814814815, 0.12314814814814815, 0.12314814814814815, 0.12314814814814815, 0.12314814814814815, 0.12314814814814815, 0.12314814814814815, 0.12314814814814815, 0.12314814814814815, 0.12314814814814815]"	"[-0.36666666666666664, -0.36666666666666664, -0.36666666666666664, -0.36666666666666664, -0.36666666666666664, -0.36666666666666664, -0.36666666666666664, -0.36666666666666664, -0.36666666666666664, -0.36666666666666664, -0.36666666666666664, -0.36666666666666664, -0.36666666666666664, -0.36666666666666664, -0.36666666666666664, -0.36666666666666664, -0.36666666666666664, -0.36666666666666664, -0.36666666666666664]"	"[1, 1, 1, 1, 1, 1, 1, 1, 1, 1, 1, 1, 1, 1, 1, 1, 1, 1, 1]"	"[0, 0, 0, 0, 0, 0, 0, 0, 0, 0, 0, 0, 0, 0, 0, 0, 0, 0, 0]"	"[0, 0, 0, 0, 0, 0, 0, 0, 0, 0, 0, 0, 0, 0, 0, 0, 0, 0, 0]"	"[0.05874619999985953, 0.2337729999999283, 0.4171845000000758, 0.6004952999996931, 0.7919671999998172, 0.9919833999997536, 1.1670232999999826, 1.350358199999846, 1.5337009999998372, 1.72539659999984, 1.9005382000000282, 2.100551799999721, 2.267379500000061, 2.492258199999924, 2.6922882999997455, 2.9338904000001094, 3.125503199999912, 3.3089898999996876, 3.5171970999999758]"	19	"[0.056827899999916553, 0.23185499999999593, 0.4152692000002389, 0.5985737999999401, 0.7900482000000011, 0.9900707000001603, 1.1651022000000921, 1.3484352999998919, 1.5317832999999155, 1.7234779000000344, 1.8986215999998421, 2.098627700000179, 2.2654584000001705, 2.4903355999999803, 2.690381200000047, 2.9319721000001664, 3.1235835000002226, 3.307069599999977, 3.515283300000192]"	"[0.19821320000028209, 0.3483402000001661, 0.5315451000001303, 0.7149386000000959, 0.8982393999999658, 1.0565888999999515, 1.2649348999998438, 1.4316202999998495, 1.6233454000002894, 1.8233045000001766, 1.9983326000001398, 2.1984105999999883, 2.3983742999998867, 2.5816939000001184, 2.781735000000026, 3.0484125000002678, 3.231734999999844, 3.415063800000098, 3.6067747000001873]"	210.09721850000005	210.10270979999996	211.5946586	211.61946820000003								09	03	2024-02-06_09h29.43.653	BART_exp	2023.2.3	119.93700908314673	2024-02-06 09h29.53.494126 +0100	
balloon.png	123	0	12	12	28	211.61946820000003													211.59483320000027	211.61946820000003	211.61946820000003	211.61946820000003	211.61946820000003	211.61946820000003	-0.0009970999999495689	-0.0009970999999495689	-0.0009970999999495689	211.61946820000003	213.30463899999995	7	0.35	False	"[0.12314814814814815, 0.12314814814814815, 0.12314814814814815, 0.12314814814814815, 0.12314814814814815, 0.12314814814814815, 0.12314814814814815, 0.12314814814814815]"	"[-0.36666666666666664, -0.36666666666666664, -0.36666666666666664, -0.36666666666666664, -0.36666666666666664, -0.36666666666666664, -0.36666666666666664, -0.36666666666666664]"	"[1, 1, 1, 1, 1, 1, 1, 1]"	"[0, 0, 0, 0, 0, 0, 0, 0]"	"[0, 0, 0, 0, 0, 0, 0, 1]"	"[0.12547730000005686, 0.29211860000032175, 0.49214329999995243, 0.6670529000002716, 0.9255625999999211, 1.117192900000191, 1.4837087999999312, 1.708851500000037]"	7	"[0.11469390000002022, 0.28132929999992484, 0.4813600000002225, 0.6562773000000561, 0.9147732999999789, 1.1064053000000058, 1.4729182000000947]"	"[0.2643637999999555, 0.4061133999998674, 0.5727474999998776, 0.7393895999998676, 0.9977601000000504, 1.1811129000002438, 1.6980100000000675]"	213.3052971000002	213.3112559000001	214.80321120000008	214.8196828								09	03	2024-02-06_09h29.43.653	BART_exp	2023.2.3	119.93700908314673	2024-02-06 09h29.53.494126 +0100	
balloon.png	31	0	13	13	7	214.8196828													214.80338380000012	214.8196828	214.8196828	214.8196828	214.8196828	214.8196828	-0.0005639999999402789	-0.0005639999999402789	-0.0005639999999402789	214.8196828	216.38812970000026	9	0.45	False	"[0.12314814814814815, 0.12314814814814815, 0.12314814814814815, 0.12314814814814815, 0.12314814814814815, 0.12314814814814815, 0.12314814814814815, 0.12314814814814815, 0.12314814814814815]"	"[-0.36666666666666664, -0.36666666666666664, -0.36666666666666664, -0.36666666666666664, -0.36666666666666664, -0.36666666666666664, -0.36666666666666664, -0.36666666666666664, -0.36666666666666664]"	"[1, 1, 1, 1, 1, 1, 1, 1, 0]"	"[0, 0, 0, 0, 0, 0, 0, 0, 0]"	"[0, 0, 0, 0, 0, 0, 0, 0, 1]"	"[0.11712309999984427, 0.3005373999999392, 0.49213389999977153, 0.6586875999996664, 0.8337260999996943, 1.000366799999938, 1.1672254000000066, 1.3431765999998788, 1.5837950000000092]"	9	"[0.11488710000003266, 0.2982984000000215, 0.48989490000030855, 0.656447300000309, 0.8314917000002424, 0.9981281000000308, 1.164984800000184, 1.3412206000002698, 1.581493600000158]"	"[0.23128000000042448, 0.40626730000030875, 0.5813320000002022, 0.7646113000000696, 0.9146550000000389, 1.0896300000003976, 1.2729803000001993, 1.5647697000003973, 1.5814981000003172]"	216.3888578000001	216.39480420000018	217.8867733000002	217.9032333								09	03	2024-02-06_09h29.43.653	BART_exp	2023.2.3	119.93700908314673	2024-02-06 09h29.53.494126 +0100	
balloon.png	97	0	14	14	22	217.9032333													217.8869662000002	217.9032333	217.9032333	217.9032333	217.9032333	217.9032333	-0.0006267000003390422	-0.0006267000003390422	-0.0006267000003390422	217.9032333	218.73835910000025	3	0.15	False	"[0.12314814814814815, 0.12314814814814815, 0.12314814814814815, 0.12314814814814815, 0.12314814814814815]"	"[-0.36666666666666664, -0.36666666666666664, -0.36666666666666664, -0.36666666666666664, -0.36666666666666664]"	"[1, 1, 1, 1, 1]"	"[0, 0, 0, 0, 0]"	"[0, 0, 0, 0, 1]"	"[0.03375629999982266, 0.3755090999998174, 0.5502959999998893, 0.7169663999998193, 0.8504170999999587]"	4	"[0.024699900000086927, 0.3664487000000918, 0.541229000000385, 0.7079043000003367]"	"[0.29936280000038096, 0.45771730000024036, 0.6745500000001812, 0.8412920000000668]"	218.7390144000001	218.7449984	220.23698120000017	220.25344489999998								09	03	2024-02-06_09h29.43.653	BART_exp	2023.2.3	119.93700908314673	2024-02-06 09h29.53.494126 +0100	
balloon.png	75	0	15	15	17	220.25344489999998													220.2371637000001	220.25344489999998	220.25344489999998	220.25344489999998	220.25344489999998	220.25344489999998	-0.00043640000012601377	-0.00043640000012601377	-0.00043640000012601377	220.25344489999998	225.26378870000008	27	1.35	False	"[0.12314814814814815, 0.12314814814814815, 0.12314814814814815, 0.12314814814814815, 0.12314814814814815, 0.12314814814814815, 0.12314814814814815, 0.12314814814814815, 0.12314814814814815, 0.12314814814814815, 0.12222222222222222, 0.12222222222222222, 0.12222222222222222, 0.12222222222222222, 0.12222222222222222, 0.12222222222222222, 0.12222222222222222, 0.12222222222222222, 0.12222222222222222, 0.12222222222222222, 0.12222222222222222, 0.12222222222222222, 0.12222222222222222, 0.12222222222222222, 0.12222222222222222, 0.12222222222222222, 0.12222222222222222, 0.12222222222222222]"	"[-0.36666666666666664, -0.36666666666666664, -0.36666666666666664, -0.36666666666666664, -0.36666666666666664, -0.36666666666666664, -0.36666666666666664, -0.36666666666666664, -0.36666666666666664, -0.36666666666666664, -0.37037037037037035, -0.37037037037037035, -0.37037037037037035, -0.37037037037037035, -0.3712962962962963, -0.3712962962962963, -0.3712962962962963, -0.3712962962962963, -0.3712962962962963, -0.3712962962962963, -0.3712962962962963, -0.3712962962962963, -0.3712962962962963, -0.3712962962962963, -0.3712962962962963, -0.3712962962962963, -0.3712962962962963, -0.3712962962962963]"	"[1, 1, 1, 1, 1, 1, 1, 1, 1, 1, 1, 1, 1, 1, 1, 1, 1, 1, 1, 1, 1, 1, 1, 1, 1, 1, 1, 0]"	"[0, 0, 0, 0, 0, 0, 0, 0, 0, 0, 0, 0, 0, 0, 0, 0, 0, 0, 0, 0, 0, 0, 0, 0, 0, 0, 0, 0]"	"[0, 0, 0, 0, 0, 0, 0, 0, 0, 0, 0, 0, 0, 0, 0, 0, 0, 0, 0, 0, 0, 0, 0, 0, 0, 0, 0, 1]"	"[0.10034959999984494, 0.28373299999975643, 0.4753664999998364, 0.6587666999998874, 0.8337317000000439, 1.0337098999998489, 1.192063699999835, 1.3669458999997914, 1.5669576999998753, 1.7920162999998865, 1.9588157999996838, 2.117141199999878, 2.3088347999996586, 2.5005458999999064, 2.6755506999998033, 2.843598999999813, 3.0349647999996705, 3.208994099999927, 3.4004249999998137, 3.5754251999996995, 3.7588075999997272, 3.9339365999999245, 4.092351299999791, 4.267308799999682, 4.434046500000022, 4.6103863999996975, 4.8007887999997365, 5.025660699999662]"	28	"[0.09165689999963433, 0.2750538999998753, 0.46668199999976423, 0.6500812999997834, 0.8250404000000344, 1.025025999999798, 1.1833781999998791, 1.3582541999999194, 1.5582703999998557, 1.7833298999998988, 1.9501244999996743, 2.108453599999848, 2.300148199999967, 2.491856799999823, 2.666860799999995, 2.834934399999838, 3.026275999999598, 3.200309699999707, 3.391740000000027, 3.5667335999996794, 3.7501186999998026, 3.9252505999997993, 4.083665199999814, 4.258618800000022, 4.425355500000023, 4.60186049999993, 4.792097999999896, 5.016906099999687]"	"[0.2080231999998432, 0.38304799999968964, 0.5580692999997154, 0.7497220999998717, 0.9247667999998157, 1.0914553999996315, 1.2832141999997475, 1.466432999999597, 1.6164691999997558, 1.8581661999996868, 2.0081316999999217, 2.191594399999758, 2.3664977999997063, 2.599859699999797, 2.758205299999645, 2.93330399999968, 3.133266399999684, 3.31677209999998, 3.4999690999998165, 3.66660789999969, 3.8500844999998662, 4.008294299999761, 4.200006499999745, 4.366631799999595, 4.533313199999611, 4.7083426999997755, 4.883359799999653, 5.016910199999984]"	225.26499319999994	225.27040750000015	226.76242270000012	226.77063069999986								09	03	2024-02-06_09h29.43.653	BART_exp	2023.2.3	119.93700908314673	2024-02-06 09h29.53.494126 +0100	
balloon.png	71	0	16	16	16	226.77063069999986													226.7626005000002	226.77063069999986	226.77063069999986	226.77063069999986	226.77063069999986	226.77063069999986	0.005702899999960209	0.005702899999960209	0.005702899999960209	226.77063069999986	234.96430110000028	38	1.90	False	"[0.12037037037037036, 0.12037037037037036, 0.12037037037037036, 0.12037037037037036, 0.12037037037037036, 0.12037037037037036, 0.12129629629629629, 0.12129629629629629, 0.12037037037037036, 0.11851851851851852, 0.11666666666666667, 0.11851851851851852, 0.11851851851851852, 0.11851851851851852, 0.11851851851851852, 0.11851851851851852, 0.11851851851851852, 0.11851851851851852, 0.11851851851851852, 0.11851851851851852, 0.11851851851851852, 0.11851851851851852, 0.11851851851851852, 0.11666666666666667, 0.11388888888888889, 0.11388888888888889, 0.11388888888888889, 0.11388888888888889, 0.11388888888888889, 0.11388888888888889, 0.11388888888888889, 0.11388888888888889, 0.11388888888888889, 0.11388888888888889, 0.11388888888888889, 0.11388888888888889, 0.11388888888888889, 0.11203703703703703, 0.11203703703703703, 0.11203703703703703]"	"[-0.36944444444444446, -0.36944444444444446, -0.36944444444444446, -0.36944444444444446, -0.36944444444444446, -0.36944444444444446, -0.36944444444444446, -0.36944444444444446, -0.37222222222222223, -0.375, -0.3787037037037037, -0.37962962962962965, -0.37962962962962965, -0.37962962962962965, -0.37962962962962965, -0.37962962962962965, -0.37962962962962965, -0.37962962962962965, -0.37962962962962965, -0.37962962962962965, -0.37962962962962965, -0.37962962962962965, -0.37962962962962965, -0.3768518518518518, -0.3787037037037037, -0.3787037037037037, -0.3787037037037037, -0.3787037037037037, -0.3787037037037037, -0.3787037037037037, -0.3787037037037037, -0.3787037037037037, -0.3787037037037037, -0.3787037037037037, -0.3787037037037037, -0.3787037037037037, -0.3787037037037037, -0.37962962962962965, -0.37962962962962965, -0.37962962962962965]"	"[1, 1, 1, 1, 1, 1, 1, 1, 1, 1, 1, 1, 1, 1, 1, 1, 1, 1, 1, 1, 1, 1, 1, 1, 1, 1, 1, 1, 1, 1, 1, 1, 1, 1, 1, 1, 1, 1, 1, 1]"	"[0, 0, 0, 0, 0, 0, 0, 0, 0, 0, 0, 0, 0, 0, 0, 0, 0, 0, 0, 0, 0, 0, 0, 0, 0, 0, 0, 0, 0, 0, 0, 0, 0, 0, 0, 0, 0, 0, 0, 0]"	"[0, 0, 0, 0, 0, 0, 0, 0, 0, 0, 0, 0, 0, 0, 0, 0, 0, 0, 0, 0, 0, 0, 0, 0, 0, 0, 0, 0, 0, 0, 0, 0, 0, 0, 0, 0, 0, 0, 0, 1]"	"[0.050266400000055, 0.2502577000000201, 0.45024069999999483, 0.6336154000000533, 0.7921117000000777, 0.9671108000002278, 1.1504696000001786, 1.3338278999999602, 1.533890700000029, 1.6920743000000584, 1.8670897000001787, 2.0670411000000968, 2.2170381000000816, 2.392427100000077, 2.600575200000094, 2.767363800000112, 2.958995800000139, 3.15897700000005, 3.358940800000255, 3.5339595000000372, 3.717304199999944, 3.9089505000001736, 4.117311100000279, 4.359020200000032, 4.550715200000013, 4.7508756000001995, 4.97574829999985, 5.175737200000185, 5.359108699999979, 5.550778199999968, 5.735055999999986, 5.942459299999882, 6.192454500000167, 6.400774100000035, 6.575814199999968, 6.750845200000185, 7.000851799999964, 7.42572969999992, 7.87574960000029, 8.2007822999999]"	39	"[0.04828739999993559, 0.24827639999966777, 0.4482629999997698, 0.6316366000000926, 0.7901354999999057, 0.9651309999999285, 1.148496299999806, 1.3318481999999676, 1.5319119999999202, 1.690109399999983, 1.8651147000000492, 2.065073499999926, 2.215055399999983, 2.3904475999997885, 2.5986033999997744, 2.765384699999686, 2.957017299999734, 3.1569946999998137, 3.3569640999999137, 3.5319821999996748, 3.7153267999997297, 3.906970000000001, 4.115333899999769, 4.357048099999702, 4.5487341999996715, 4.74890699999969, 4.9737685999998575, 5.173775400000068, 5.357131799999934, 5.548801699999785, 5.733244399999876, 5.940480299999763, 6.190472599999794, 6.398793800000021, 6.573833099999774, 6.74886639999977, 6.998874299999898, 7.423751699999684, 7.873766499999874]"	"[0.173136699999759, 0.3314931999998407, 0.5564543999998932, 0.7148526999999376, 0.9065112999996927, 1.064842100000078, 1.2648291000000427, 1.4316196999998283, 1.6065874000000804, 1.7650324999999611, 1.9232262000000446, 2.1232311999997364, 2.306665900000098, 2.481840899999952, 2.6982778999999937, 2.873289399999976, 3.0816694000000098, 3.2733383999998296, 3.4734135999997306, 3.640042199999698, 3.848425199999838, 4.031697099999747, 4.223363000000063, 4.473389499999939, 4.681803299999956, 4.865161199999875, 5.098480899999686, 5.281827499999963, 5.465242100000069, 5.656873299999916, 5.83322999999973, 6.0735649999996895, 6.281851499999902, 6.47352039999987, 6.706891999999698, 6.873558799999955, 7.081901900000048, 7.523590400000103, 8.198731099999804]"	234.96558989999994	234.97099609999987	236.4631290000002	236.47951319999993								09	03	2024-02-06_09h29.43.653	BART_exp	2023.2.3	119.93700908314673	2024-02-06 09h29.53.494126 +0100	
balloon.png	110	0	17	17	25	236.47951319999993													236.46332350000012	236.47951319999993	236.47951319999993	236.47951319999993	236.47951319999993	236.47951319999993	-0.0009851999998318206	-0.0009851999998318206	-0.0009851999998318206	236.47951319999993	245.73195680000026	48	2.40	False	"[0.10555555555555556, 0.10555555555555556, 0.10555555555555556, 0.10555555555555556, 0.10555555555555556, 0.10555555555555556, 0.10555555555555556, 0.10555555555555556, 0.10555555555555556, 0.10555555555555556, 0.10555555555555556, 0.10555555555555556, 0.10555555555555556, 0.10555555555555556, 0.10555555555555556, 0.10555555555555556, 0.10555555555555556, 0.10555555555555556, 0.10555555555555556, 0.10555555555555556, 0.10555555555555556, 0.10555555555555556, 0.10555555555555556, 0.10555555555555556, 0.10555555555555556, 0.10555555555555556, 0.10555555555555556, 0.10462962962962963, 0.1037037037037037, 0.10277777777777777, 0.10277777777777777, 0.10277777777777777, 0.10277777777777777, 0.10277777777777777, 0.10092592592592593, 0.10092592592592593, 0.10092592592592593, 0.10092592592592593, 0.10092592592592593, 0.10092592592592593, 0.10092592592592593, 0.10092592592592593, 0.10092592592592593, 0.10092592592592593, 0.10092592592592593, 0.10092592592592593, 0.10092592592592593, 0.10092592592592593, 0.10092592592592593]"	"[-0.4083333333333333, -0.4083333333333333, -0.4083333333333333, -0.4083333333333333, -0.4083333333333333, -0.4083333333333333, -0.4083333333333333, -0.4083333333333333, -0.4083333333333333, -0.4083333333333333, -0.4083333333333333, -0.4064814814814815, -0.4064814814814815, -0.4064814814814815, -0.4064814814814815, -0.4064814814814815, -0.4064814814814815, -0.4064814814814815, -0.4064814814814815, -0.4064814814814815, -0.4064814814814815, -0.4064814814814815, -0.4064814814814815, -0.4064814814814815, -0.4064814814814815, -0.4064814814814815, -0.4064814814814815, -0.4064814814814815, -0.4064814814814815, -0.4074074074074074, -0.4074074074074074, -0.4074074074074074, -0.4074074074074074, -0.4074074074074074, -0.4074074074074074, -0.4074074074074074, -0.4074074074074074, -0.4074074074074074, -0.4074074074074074, -0.4074074074074074, -0.4074074074074074, -0.4074074074074074, -0.4074074074074074, -0.4074074074074074, -0.4074074074074074, -0.4074074074074074, -0.4074074074074074, -0.4074074074074074, -0.4074074074074074]"	"[1, 1, 1, 1, 1, 1, 1, 1, 1, 1, 1, 1, 1, 1, 1, 1, 1, 1, 1, 1, 1, 1, 1, 1, 1, 1, 1, 1, 1, 1, 1, 1, 1, 1, 1, 1, 1, 1, 1, 1, 1, 1, 1, 1, 1, 1, 1, 1, 0]"	"[0, 0, 0, 0, 0, 0, 0, 0, 0, 0, 0, 0, 0, 0, 0, 0, 0, 0, 0, 0, 0, 0, 0, 0, 0, 0, 0, 0, 0, 0, 0, 0, 0, 0, 0, 0, 0, 0, 0, 0, 0, 0, 0, 0, 0, 0, 0, 0, 0]"	"[0, 0, 0, 0, 0, 0, 0, 0, 0, 0, 0, 0, 0, 0, 0, 0, 0, 0, 0, 0, 0, 0, 0, 0, 0, 0, 0, 0, 0, 0, 0, 0, 0, 0, 0, 0, 0, 0, 0, 0, 0, 0, 0, 0, 0, 0, 0, 0, 1]"	"[0.5668524000002435, 0.7252593000002889, 0.9002049000000625, 1.050441100000171, 1.225390900000093, 1.4004229000001942, 1.5502544999999373, 1.7337925000001633, 1.8919905000002473, 2.083761900000354, 2.250488099999984, 2.4754682000002504, 2.633911299999909, 2.8421814000002996, 3.017206200000146, 3.2005011999999624, 3.358712900000228, 3.5253990000001068, 3.6839397000003373, 3.8672232000003532, 4.050666399999955, 4.250626300000022, 4.383931500000017, 4.608972900000026, 4.775477600000158, 4.950542999999925, 5.150704900000164, 5.317180900000039, 5.492213900000024, 5.659080899999935, 5.834158099999968, 6.017485000000306, 6.183908400000291, 6.350599600000351, 6.542450599999938, 6.717305900000156, 6.884034600000177, 7.0923109000000295, 7.292381900000237, 7.475726300000133, 7.642494600000191, 7.87584680000009, 8.192559300000084, 8.400867100000141, 8.567536200000177, 8.742426799999976, 8.925770100000136, 9.067586399999982, 9.267666600000211]"	49	"[0.5640610999998898, 0.7224637999997867, 0.897412599999825, 1.0476462999999967, 1.2225954000000456, 1.3976321999998618, 1.547464299999774, 1.7310010000001057, 1.8891982000000098, 2.0809659000001375, 2.2476990000000114, 2.472676699999738, 2.6311336999997366, 2.839393100000052, 3.01441769999974, 3.197709799999757, 3.3559156000001167, 3.522608400000081, 3.6811478999998144, 3.8644318000001476, 4.04787639999995, 4.247832499999731, 4.381136999999853, 4.606181300000117, 4.772682299999815, 4.947757200000069, 5.147914199999832, 5.3143857000000025, 5.489426399999957, 5.656288300000142, 5.831363599999804, 6.014694699999836, 6.181108700000095, 6.347803699999986, 6.539664399999765, 6.714515799999845, 6.881247499999972, 7.089519999999993, 7.289595299999746, 7.472934299999906, 7.639705199999753, 7.873060500000065, 8.189764299999752, 8.398075699999936, 8.564743800000088, 8.73963670000012, 8.922979999999825, 9.064806299999873, 9.264808999999786]"	"[0.6389251999999033, 0.7972743999998784, 0.9722685000001547, 1.1722824999997101, 1.3223321999998916, 1.4889769000001252, 1.6556673000000046, 1.847400799999832, 2.0223486999998386, 2.2056953999999678, 2.3390300999999454, 2.5321389000000636, 2.7307302999997773, 2.9225412999999207, 3.089082999999846, 3.2890950999999404, 3.405760900000132, 3.580805600000076, 3.780787700000019, 3.9558069999998224, 4.130815399999847, 4.31419969999979, 4.497528899999907, 4.7059734999998, 4.880947300000116, 5.072838099999899, 5.247686199999862, 5.397562300000118, 5.58103200000005, 5.75591889999987, 5.914273800000046, 6.105959200000143, 6.272625499999776, 6.447650600000088, 6.63103349999983, 6.797698299999865, 6.997671600000103, 7.2144515999998475, 7.364455099999759, 7.5561131999998, 7.764420500000142, 8.097768999999971, 8.289432900000065, 8.481109700000161, 8.67279329999974, 8.831136299999798, 8.972815499999797, 9.174240599999848, 9.264813100000083]"	245.7334676999999	245.73848399999997	247.23047279999992	247.23850290000019								09	03	2024-02-06_09h29.43.653	BART_exp	2023.2.3	119.93700908314673	2024-02-06 09h29.53.494126 +0100	
balloon.png	44	0	18	18	10	247.23850290000019													247.23065320000023	247.23850290000019	247.23850290000019	247.23850290000019	247.23850290000019	247.23850290000019	0.0051005000000259315	0.0051005000000259315	0.0051005000000259315	247.23850290000019	256.20776060000026	45	2.20	True	"[0.09907407407407408, 0.09907407407407408, 0.09907407407407408, 0.09907407407407408, 0.09907407407407408, 0.09907407407407408, 0.09907407407407408, 0.09907407407407408, 0.09907407407407408, 0.09907407407407408, 0.09907407407407408, 0.09907407407407408, 0.09907407407407408, 0.09907407407407408, 0.09907407407407408, 0.09907407407407408, 0.09907407407407408, 0.09907407407407408, 0.09907407407407408, 0.09907407407407408, 0.09907407407407408, 0.09907407407407408, 0.09907407407407408, 0.09907407407407408, 0.09907407407407408, 0.09907407407407408, 0.09907407407407408, 0.09907407407407408, 0.09907407407407408, 0.09907407407407408, 0.09907407407407408, 0.09907407407407408, 0.09907407407407408, 0.09907407407407408, 0.09907407407407408, 0.09907407407407408, 0.09907407407407408, 0.09907407407407408, 0.09907407407407408, 0.09907407407407408, 0.09907407407407408, 0.09907407407407408, 0.09907407407407408, 0.09907407407407408]"	"[-0.4111111111111111, -0.4111111111111111, -0.4111111111111111, -0.4111111111111111, -0.4111111111111111, -0.4111111111111111, -0.4111111111111111, -0.4111111111111111, -0.4111111111111111, -0.4111111111111111, -0.4111111111111111, -0.4111111111111111, -0.4111111111111111, -0.4111111111111111, -0.4111111111111111, -0.4111111111111111, -0.4111111111111111, -0.4111111111111111, -0.4111111111111111, -0.4111111111111111, -0.4111111111111111, -0.4111111111111111, -0.4111111111111111, -0.4111111111111111, -0.4111111111111111, -0.4111111111111111, -0.4111111111111111, -0.4111111111111111, -0.4111111111111111, -0.4111111111111111, -0.4111111111111111, -0.4111111111111111, -0.4111111111111111, -0.4111111111111111, -0.4111111111111111, -0.4111111111111111, -0.4111111111111111, -0.4111111111111111, -0.4111111111111111, -0.4111111111111111, -0.4111111111111111, -0.4111111111111111, -0.4111111111111111, -0.4111111111111111]"	"[1, 1, 1, 1, 1, 1, 1, 1, 1, 1, 1, 1, 1, 1, 1, 1, 1, 1, 1, 1, 1, 1, 1, 1, 1, 1, 1, 1, 1, 1, 1, 1, 1, 1, 1, 1, 1, 1, 1, 1, 1, 1, 1, 1]"	"[0, 0, 0, 0, 0, 0, 0, 0, 0, 0, 0, 0, 0, 0, 0, 0, 0, 0, 0, 0, 0, 0, 0, 0, 0, 0, 0, 0, 0, 0, 0, 0, 0, 0, 0, 0, 0, 0, 0, 0, 0, 0, 0, 0]"	"[0, 0, 0, 0, 0, 0, 0, 0, 0, 0, 0, 0, 0, 0, 0, 0, 0, 0, 0, 0, 0, 0, 0, 0, 0, 0, 0, 0, 0, 0, 0, 0, 0, 0, 0, 0, 0, 0, 0, 0, 0, 0, 0, 0]"	"[0.25880030000007537, 0.41725700000006327, 0.5837474999998449, 0.7669479999999567, 0.9836181000000579, 1.1503287000000455, 1.4838208000001032, 1.6673313999999664, 1.8588497000000643, 2.1003771000000597, 2.3337176, 2.508864099999755, 2.708826399999907, 2.892449800000122, 3.075826700000107, 3.2922991999998885, 3.459028899999794, 3.6589794999999867, 3.875719599999684, 4.050817599999846, 4.259031099999902, 4.45067919999974, 4.650695499999983, 4.817505299999993, 5.000694599999861, 5.200708999999733, 5.384069599999748, 5.57562229999985, 5.792442999999821, 6.000759399999879, 6.184229200000118, 6.434166600000026, 6.792492000000038, 7.0259791999997105, 7.234229099999993, 7.409206199999971, 7.60924470000009, 7.80087739999999, 7.984251299999869, 8.15914100000009, 8.325808600000073, 8.52599169999985, 8.709159900000031, 8.876041900000018]"	44	"[0.25676500000008673, 0.41521929999998974, 0.581713800000216, 0.7649162000002434, 0.9815846999999849, 1.1482953999998244, 1.4817891000002419, 1.665308300000106, 1.8568242000001192, 2.098338799999965, 2.331682699999874, 2.5068310999999994, 2.706789700000172, 2.890413300000091, 3.073790700000245, 3.2902657999998155, 3.4569949000001543, 3.6569479999998293, 3.873682700000245, 4.048790199999985, 4.2569947000001775, 4.44864060000009, 4.648657300000195, 4.815473199999815, 4.9986604999999145, 5.198673299999882, 5.382040699999834, 5.573585200000252, 5.790405400000054, 5.998731199999838, 6.182204100000035, 6.4321303000001535, 6.790460100000018, 7.02395179999985, 7.232193400000142, 7.4071703999998135, 7.60720769999989, 7.7988445000000866, 7.982215200000155, 8.157107800000176, 8.323777000000064, 8.523962700000084, 8.70712229999981, 8.874007500000062]"	"[0.3150227000000996, 0.5147685000001729, 0.6897715000000062, 0.8898048999999446, 1.081524900000204, 1.3981277000002592, 1.6065192000000934, 1.7816547000002174, 1.9231767000001128, 2.198228100000051, 2.43154689999983, 2.62329630000022, 2.81489479999982, 2.9983290000000125, 3.189952600000197, 3.3982765000000654, 3.606644299999971, 3.773326900000029, 3.9818215999998756, 4.190144099999998, 4.390028199999961, 4.556687499999953, 4.7400431000000935, 4.9234065000000555, 5.11509389999992, 5.315080899999884, 5.515081900000041, 5.690091200000097, 5.931803800000125, 6.115134399999988, 6.3151584000002, 6.698539500000152, 6.881858799999918, 7.131864100000257, 7.340206599999874, 7.506899200000134, 7.7069203000000925, 7.898587499999849, 8.065294300000005, 8.265347600000041, 8.4152938000002, 8.61529070000006, 8.790311199999906, 8.965345999999954]"	256.20909919999986	256.2142583	257.7061804	257.7226402000001								09	03	2024-02-06_09h29.43.653	BART_exp	2023.2.3	119.93700908314673	2024-02-06 09h29.53.494126 +0100	
balloon.png	49	0	19	19	11	257.7226402000001													257.70636000000013	257.7226402000001	257.7226402000001	257.7226402000001	257.7226402000001	257.7226402000001	0.013608599999770377			257.7226402000001	266.3414871	43	2.15	False	"[0.09907407407407408, 0.09907407407407408, 0.09907407407407408, 0.09907407407407408, 0.09907407407407408, 0.09907407407407408, 0.09907407407407408, 0.09907407407407408, 0.09907407407407408, 0.09907407407407408, 0.09907407407407408, 0.09814814814814815, 0.09722222222222222, 0.0962962962962963, 0.0962962962962963, 0.09537037037037037, 0.09537037037037037, 0.09537037037037037, 0.09537037037037037, 0.09537037037037037, 0.09537037037037037, 0.09537037037037037, 0.09537037037037037, 0.09537037037037037, 0.09537037037037037, 0.09537037037037037, 0.09537037037037037, 0.09537037037037037, 0.09537037037037037, 0.09537037037037037, 0.09537037037037037, 0.09537037037037037, 0.09537037037037037, 0.09537037037037037, 0.09537037037037037, 0.09537037037037037, 0.09537037037037037, 0.09537037037037037, 0.09537037037037037, 0.09537037037037037, 0.09537037037037037, 0.09537037037037037, 0.09537037037037037]"	"[-0.4111111111111111, -0.4111111111111111, -0.4111111111111111, -0.4111111111111111, -0.4111111111111111, -0.4111111111111111, -0.4111111111111111, -0.4111111111111111, -0.4111111111111111, -0.4111111111111111, -0.4111111111111111, -0.41388888888888886, -0.41388888888888886, -0.4148148148148148, -0.4148148148148148, -0.4148148148148148, -0.4148148148148148, -0.4148148148148148, -0.4148148148148148, -0.4148148148148148, -0.4148148148148148, -0.4148148148148148, -0.4148148148148148, -0.4148148148148148, -0.4148148148148148, -0.4148148148148148, -0.4148148148148148, -0.4148148148148148, -0.4148148148148148, -0.4148148148148148, -0.4148148148148148, -0.4148148148148148, -0.4148148148148148, -0.4148148148148148, -0.4148148148148148, -0.4148148148148148, -0.4148148148148148, -0.4148148148148148, -0.4148148148148148, -0.4148148148148148, -0.4148148148148148, -0.4148148148148148, -0.4148148148148148]"	"[1, 1, 1, 1, 1, 1, 1, 1, 1, 1, 1, 1, 1, 1, 1, 1, 1, 1, 1, 1, 1, 1, 1, 1, 1, 1, 1, 1, 1, 1, 1, 1, 1, 1, 1, 1, 1, 1, 1, 1, 1, 1, 0]"	"[0, 0, 0, 0, 0, 0, 0, 0, 0, 0, 0, 0, 0, 0, 0, 0, 0, 0, 0, 0, 0, 0, 0, 0, 0, 0, 0, 0, 0, 0, 0, 0, 0, 0, 0, 0, 0, 0, 0, 0, 0, 0, 0]"	"[0, 0, 0, 0, 0, 0, 0, 0, 0, 0, 0, 0, 0, 0, 0, 0, 0, 0, 0, 0, 0, 0, 0, 0, 0, 0, 0, 0, 0, 0, 0, 0, 0, 0, 0, 0, 0, 0, 0, 0, 0, 0, 1]"	"[0.158819400000084, 0.34218509999982416, 0.5254539000002296, 0.7254343999998127, 0.900331400000141, 1.0754108000000997, 1.2503827000000456, 1.5671870000001036, 1.7588973000001715, 1.9422374000000673, 2.1339100000000144, 2.358936300000096, 2.517319800000223, 2.701013299999886, 2.8921448000000964, 3.0754791999997906, 3.2671312000002217, 3.4505356999998185, 3.642163999999866, 3.8507331999999224, 4.067400899999939, 4.242262400000072, 4.442231800000172, 4.625575200000185, 4.7924128999998175, 4.9757675000000745, 5.075915299999906, 5.275611200000185, 5.459137400000145, 5.650648100000126, 5.842374899999868, 6.025831200000084, 6.217355100000077, 6.409213899999941, 6.61741260000008, 6.80906159999995, 7.042473599999994, 7.259125399999903, 7.4424300000000585, 7.6591222000001835, 8.01046150000002, 8.24247779999996, 8.634199399999943]"	43	"[0.15656360000002678, 0.3399271999996927, 0.523194599999897, 0.7231736999997338, 0.8980741999998827, 1.0731528999999682, 1.2481192000000192, 1.5649296999999933, 1.7566400999999132, 1.9399828000000525, 2.1316523999998935, 2.3566799999998693, 2.5150711999999658, 2.6989200999996683, 2.8898825000001125, 3.07322350000004, 3.2648685999997724, 3.4482758999997714, 3.6398997000001145, 3.848476799999844, 4.06513700000005, 4.240003500000057, 4.439973999999893, 4.623318299999937, 4.790156900000056, 4.97351639999988, 5.073652499999753, 5.273347899999862, 5.456876799999918, 5.648391100000026, 5.84013079999977, 6.023572199999762, 6.215095999999903, 6.406959399999778, 6.615157700000054, 6.806802699999935, 7.040213199999926, 7.256870700000036, 7.4401694999996835, 7.656860600000073, 8.008377499999824, 8.240220299999692, 8.631878499999857]"	"[0.2645923000000039, 0.4562407999997049, 0.6479319000000032, 0.7978862999998455, 0.9896026999999776, 1.1729992000000493, 1.33962369999972, 1.681301600000097, 1.8563914999999724, 2.064665200000036, 2.2396975999999995, 2.448074800000086, 2.606409900000017, 2.781375399999888, 2.998094999999921, 3.1814306000001125, 3.3647304999999506, 3.5648244999997587, 3.748109199999817, 3.9398575000000164, 4.18170710000004, 4.3648112999999285, 4.54824890000009, 4.714876199999708, 4.923178799999732, 5.031522599999789, 5.181530299999849, 5.373200300000008, 5.573297500000081, 5.73990219999996, 5.939947999999731, 6.139955199999804, 6.323278299999856, 6.50673740000002, 6.739970600000106, 6.948361899999782, 7.190017599999919, 7.365076499999759, 7.590032600000086, 7.781729399999676, 8.16508709999971, 8.406801499999801, 8.631882799999858]"	266.3428250000002	266.34825630000023	267.8401818000002	267.8483277								09	03	2024-02-06_09h29.43.653	BART_exp	2023.2.3	119.93700908314673	2024-02-06 09h29.53.494126 +0100	
balloon.png	27	0	20	20	6	267.8483277													267.8403575000002	267.8483277	267.8483277	267.8483277	267.8483277	267.8483277	0.0055672000003141875	0.0055672000003141875	0.0055672000003141875	267.8483277	273.4090707999999	28	1.35	True	"[0.09537037037037037, 0.09537037037037037, 0.09537037037037037, 0.09537037037037037, 0.09537037037037037, 0.09537037037037037, 0.09537037037037037, 0.09537037037037037, 0.09537037037037037, 0.09537037037037037, 0.09537037037037037, 0.09537037037037037, 0.09537037037037037, 0.09537037037037037, 0.09537037037037037, 0.09537037037037037, 0.09537037037037037, 0.09537037037037037, 0.09537037037037037, 0.09537037037037037, 0.09537037037037037, 0.09537037037037037, 0.09537037037037037, 0.09537037037037037, 0.09537037037037037, 0.09537037037037037, 0.09537037037037037, 0.09537037037037037]"	"[-0.4148148148148148, -0.4148148148148148, -0.4148148148148148, -0.4148148148148148, -0.4148148148148148, -0.4148148148148148, -0.4148148148148148, -0.4148148148148148, -0.4148148148148148, -0.4148148148148148, -0.4148148148148148, -0.4148148148148148, -0.4148148148148148, -0.4148148148148148, -0.4148148148148148, -0.4148148148148148, -0.4148148148148148, -0.4148148148148148, -0.4148148148148148, -0.4148148148148148, -0.4148148148148148, -0.4148148148148148, -0.4148148148148148, -0.4148148148148148, -0.4148148148148148, -0.4148148148148148, -0.4148148148148148, -0.4148148148148148]"	"[1, 1, 1, 1, 1, 1, 1, 1, 1, 1, 1, 1, 1, 1, 1, 1, 1, 1, 1, 1, 1, 1, 1, 1, 1, 1, 1, 1]"	"[0, 0, 0, 0, 0, 0, 0, 0, 0, 0, 0, 0, 0, 0, 0, 0, 0, 0, 0, 0, 0, 0, 0, 0, 0, 0, 0, 0]"	"[0, 0, 0, 0, 0, 0, 0, 0, 0, 0, 0, 0, 0, 0, 0, 0, 0, 0, 0, 0, 0, 0, 0, 0, 0, 0, 0, 0]"	"[0.2753253999999288, 0.45058220000009896, 0.6005792000000838, 0.7589729000001171, 0.9349778999999216, 1.1003663000001325, 1.2753821000001153, 1.4505356999998185, 1.6007461999997759, 1.7673079999999572, 1.9422432999999728, 2.1171073999998953, 2.2921222999998463, 2.450467000000117, 2.784031600000162, 2.9422061000000213, 3.1353665000001456, 3.3006319999999505, 3.68387359999997, 3.85077739999997, 4.0507103999998435, 4.217401100000188, 4.392425800000183, 4.575807000000168, 4.742395400000078, 4.934009399999923, 5.108993899999859, 5.45081859999982]"	28	"[0.2734856000001855, 0.448740700000144, 0.5987427000000025, 0.7571428999999625, 0.9332956000002923, 1.098520699999881, 1.2735376000000542, 1.4486922999999479, 1.5989251000000877, 1.7654735999999502, 1.9403981000000385, 2.115260699999908, 2.2902822000000924, 2.448628099999951, 2.7821920999999747, 2.9403606000000764, 3.133690000000115, 3.2987911999998687, 3.682031100000131, 3.848940400000174, 4.048869000000195, 4.215560900000128, 4.390591200000017, 4.573986100000184, 4.740551299999879, 4.932164700000158, 5.107146599999851, 5.448973900000055]"	"[0.32333340000013777, 0.49838869999985036, 0.6901012000002993, 0.8569480000001022, 1.0400374000000738, 1.2234188000002177, 1.3817419000001792, 1.5483978000002026, 1.6985985999999684, 1.8984292999998615, 2.0651302000001124, 2.2151370000001407, 2.406804700000066, 2.72348779999993, 2.9151652999998987, 3.0568263999998635, 3.2235507000000325, 3.4235450999999557, 3.781910600000174, 3.9485984000002645, 4.148606499999914, 4.340286999999989, 4.498649900000146, 4.665282599999955, 4.857001700000183, 5.031981600000108, 5.206991200000175, 5.55702569999994]"	273.4100889000001	273.41537530000005	274.90740460000006	274.9238402000001								09	03	2024-02-06_09h29.43.653	BART_exp	2023.2.3	119.93700908314673	2024-02-06 09h29.53.494126 +0100	
balloon.png	127	0	21	21	29	274.9238402000001													274.9075877	274.9238402000001	274.9238402000001	274.9238402000001	274.9238402000001	274.9238402000001	-0.0009273000000575848	-0.0009273000000575848	-0.0009273000000575848	274.9238402000001	279.5674957000001	24	1.20	False	"[0.09537037037037037, 0.09537037037037037, 0.09537037037037037, 0.09537037037037037, 0.09537037037037037, 0.09537037037037037, 0.09537037037037037, 0.09537037037037037, 0.09537037037037037, 0.09537037037037037, 0.09537037037037037, 0.09537037037037037, 0.09537037037037037, 0.09537037037037037, 0.09537037037037037, 0.09537037037037037, 0.09537037037037037, 0.09537037037037037, 0.09537037037037037, 0.09537037037037037, 0.09537037037037037, 0.09537037037037037, 0.09537037037037037, 0.09537037037037037]"	"[-0.4148148148148148, -0.4148148148148148, -0.4148148148148148, -0.4148148148148148, -0.4148148148148148, -0.4148148148148148, -0.4148148148148148, -0.4148148148148148, -0.4148148148148148, -0.4148148148148148, -0.4148148148148148, -0.4148148148148148, -0.4148148148148148, -0.4148148148148148, -0.4148148148148148, -0.4148148148148148, -0.4148148148148148, -0.4148148148148148, -0.4148148148148148, -0.4148148148148148, -0.4148148148148148, -0.4148148148148148, -0.4148148148148148, -0.4148148148148148]"	"[1, 1, 1, 1, 1, 1, 1, 1, 1, 1, 1, 1, 1, 1, 1, 1, 1, 1, 1, 1, 1, 1, 1, 0]"	"[0, 0, 0, 0, 0, 0, 0, 0, 0, 0, 0, 0, 0, 0, 0, 0, 0, 0, 0, 0, 0, 0, 0, 0]"	"[0, 0, 0, 0, 0, 0, 0, 0, 0, 0, 0, 0, 0, 0, 0, 0, 0, 0, 0, 0, 0, 0, 0, 1]"	"[0.18358450000005178, 0.3586945000001833, 0.5171119999999974, 0.7172845000000052, 0.9004073999999491, 1.0837467999999717, 1.275432400000227, 1.467022100000122, 1.6336424999999508, 1.8086769000001368, 1.9671299000001454, 2.150499100000161, 2.3005065000002105, 2.492141100000026, 2.6671667000000525, 2.85038940000004, 3.033725499999946, 3.2504045000000588, 3.433782500000234, 3.658756799999992, 3.858900000000176, 4.075559599999906, 4.408820699999978, 4.6589615000002595]"	24	"[0.17509209999980158, 0.35020159999976386, 0.5086249999999382, 0.7088269999999284, 0.891925099999753, 1.0752577999996902, 1.2669495999998617, 1.4585338999995656, 1.6251550999995743, 1.8001978999996027, 1.9586366999997153, 2.142011399999774, 2.2920186999999714, 2.4836537999999564, 2.6586755999996967, 2.8419025999996848, 3.0252402999999504, 3.2419166999998197, 3.4252902999996877, 3.650269099999605, 3.8504109999998946, 4.067068299999846, 4.400331099999676, 4.6504086999998435]"	"[0.2748964999996133, 0.44157529999984035, 0.6250081999996837, 0.8249362999999903, 0.9999573000000055, 1.191662699999597, 1.3916731999997864, 1.5499788999995872, 1.716707299999598, 1.8833630999997695, 2.066692399999738, 2.2583949999998367, 2.4083671999997023, 2.60003609999967, 2.766720499999792, 2.958430099999987, 3.1418064999998023, 3.366769999999633, 3.5501353999998173, 3.775134199999684, 4.0001438999997845, 4.283580699999675, 4.558514500000001, 4.650412799999685]"	279.5684529	279.5741876000002	281.0661101999999	281.0825683000003								09	03	2024-02-06_09h29.43.653	BART_exp	2023.2.3	119.93700908314673	2024-02-06 09h29.53.494126 +0100	
balloon.png	36	0	22	22	8	281.0825683000003													281.06628260000025	281.0825683000003	281.0825683000003	281.0825683000003	281.0825683000003	281.0825683000003	-0.0008277000001726265	-0.0008277000001726265	-0.0008277000001726265	281.0825683000003	288.46008919999986	37	1.80	True	"[0.09537037037037037, 0.09537037037037037, 0.09537037037037037, 0.09537037037037037, 0.09537037037037037, 0.09537037037037037, 0.09537037037037037, 0.09537037037037037, 0.09537037037037037, 0.09537037037037037, 0.09537037037037037, 0.09537037037037037, 0.09537037037037037, 0.09537037037037037, 0.09537037037037037, 0.09537037037037037, 0.09537037037037037, 0.09537037037037037, 0.09537037037037037, 0.09537037037037037, 0.09537037037037037, 0.09537037037037037, 0.09537037037037037, 0.09537037037037037, 0.09537037037037037, 0.09537037037037037, 0.09537037037037037, 0.09537037037037037, 0.09537037037037037, 0.09537037037037037, 0.09537037037037037, 0.09537037037037037, 0.09537037037037037, 0.09537037037037037, 0.09537037037037037, 0.09537037037037037]"	"[-0.4148148148148148, -0.4148148148148148, -0.4148148148148148, -0.4148148148148148, -0.4148148148148148, -0.4148148148148148, -0.4148148148148148, -0.4148148148148148, -0.4148148148148148, -0.4148148148148148, -0.4148148148148148, -0.4148148148148148, -0.4148148148148148, -0.4148148148148148, -0.4148148148148148, -0.4148148148148148, -0.4148148148148148, -0.4148148148148148, -0.4148148148148148, -0.4148148148148148, -0.4148148148148148, -0.4148148148148148, -0.4148148148148148, -0.4148148148148148, -0.4148148148148148, -0.4148148148148148, -0.4148148148148148, -0.4148148148148148, -0.4148148148148148, -0.4148148148148148, -0.4148148148148148, -0.4148148148148148, -0.4148148148148148, -0.4148148148148148, -0.4148148148148148, -0.4148148148148148]"	"[1, 1, 1, 1, 1, 1, 1, 1, 1, 1, 1, 1, 1, 1, 1, 1, 1, 1, 1, 1, 1, 1, 1, 1, 1, 1, 1, 1, 1, 1, 1, 1, 1, 1, 1, 1]"	"[0, 0, 0, 0, 0, 0, 0, 0, 0, 0, 0, 0, 0, 0, 0, 0, 0, 0, 0, 0, 0, 0, 0, 0, 0, 0, 0, 0, 0, 0, 0, 0, 0, 0, 0, 0]"	"[0, 0, 0, 0, 0, 0, 0, 0, 0, 0, 0, 0, 0, 0, 0, 0, 0, 0, 0, 0, 0, 0, 0, 0, 0, 0, 0, 0, 0, 0, 0, 0, 0, 0, 0, 0]"	"[0.15044219999981578, 0.3170769999996992, 0.5002975999996124, 0.6919871000000057, 0.8420003999999608, 1.0420111999997062, 1.2088488999997935, 1.3421574999997574, 1.5005627000000459, 1.8589113999996698, 2.358955100000003, 2.57571949999965, 2.759046699999999, 2.917302099999688, 3.400662999999895, 3.5673580999996375, 3.750671499999953, 4.000700099999904, 4.167393400000037, 4.350714599999719, 4.517405499999768, 4.692342699999699, 4.850590699999884, 5.033959999999752, 5.20901879999974, 5.392536899999868, 5.575806899999861, 5.75081259999979, 5.934277199999997, 6.100811399999657, 6.275691899999856, 6.484032299999853, 6.650836999999683, 6.859075999999732, 7.034285499999896, 7.250759399999879]"	36	"[0.14087369999970178, 0.30749939999986964, 0.49074919999975464, 0.6824122999996689, 0.8324247999998988, 1.0324499999996988, 1.1992754999996578, 1.332584699999643, 1.4909966000000168, 1.8493361999999252, 2.3493767999998454, 2.566156299999875, 2.749471999999969, 2.907732699999997, 3.3910996999998133, 3.5577848999996604, 3.7411247999998523, 3.9911279999996623, 4.157818899999711, 4.34114419999969, 4.507829099999981, 4.682790099999693, 4.841028800000004, 5.02438869999969, 5.199448899999879, 5.382961499999965, 5.566238999999769, 5.741242300000067, 5.924712199999703, 6.091233899999679, 6.266115599999921, 6.474457699999675, 6.64129819999971, 6.8494997999996485, 7.024715199999719, 7.241189200000008]"	"[0.25722240000004604, 0.43223760000000766, 0.5990220999997291, 0.7822486999998546, 0.9420104999999239, 1.1156221999999616, 1.3073147999998582, 1.4572994999998627, 1.7992256999996243, 2.3323677999997017, 2.4990665000000263, 2.682395599999836, 2.83245689999967, 2.982412199999999, 3.482568799999626, 3.682495300000028, 3.857504499999777, 4.074150699999791, 4.27416889999995, 4.4574963999998545, 4.6075237000000016, 4.790869399999792, 4.9658744999997, 5.124256699999933, 5.315949699999692, 5.482636599999751, 5.682672199999615, 5.899489399999766, 6.0243093999997654, 6.200666100000035, 6.399316099999851, 6.56605239999999, 6.766050899999755, 6.966050399999858, 7.124379899999894, 7.374377999999979]"	288.4613122999999	288.4664028000002	289.95835780000016	289.96656540000004								09	03	2024-02-06_09h29.43.653	BART_exp	2023.2.3	119.93700908314673	2024-02-06 09h29.53.494126 +0100	
balloon.png	57	0	23	23	13	289.96656540000004													289.95853309999984	289.96656540000004	289.96656540000004	289.96656540000004	289.96656540000004	289.96656540000004	0.005313500000283966			289.96656540000004	297.38541410000016	38	1.90	False	"[0.09537037037037037, 0.09537037037037037, 0.09537037037037037, 0.09537037037037037, 0.09537037037037037, 0.09537037037037037, 0.09537037037037037, 0.09537037037037037, 0.09537037037037037, 0.09537037037037037, 0.09537037037037037, 0.09537037037037037, 0.09537037037037037, 0.09537037037037037, 0.09537037037037037, 0.09537037037037037, 0.09537037037037037, 0.09537037037037037, 0.09537037037037037, 0.09537037037037037, 0.09537037037037037, 0.09537037037037037, 0.09537037037037037, 0.09537037037037037, 0.09537037037037037, 0.09537037037037037, 0.09537037037037037, 0.09537037037037037, 0.09537037037037037, 0.09537037037037037, 0.09537037037037037, 0.09537037037037037, 0.09537037037037037, 0.09537037037037037, 0.09537037037037037, 0.09537037037037037, 0.09537037037037037, 0.09537037037037037]"	"[-0.41574074074074074, -0.41574074074074074, -0.41574074074074074, -0.41574074074074074, -0.41574074074074074, -0.41574074074074074, -0.41574074074074074, -0.41574074074074074, -0.41574074074074074, -0.41574074074074074, -0.41574074074074074, -0.41574074074074074, -0.41574074074074074, -0.41574074074074074, -0.41574074074074074, -0.41574074074074074, -0.41574074074074074, -0.41574074074074074, -0.41574074074074074, -0.41574074074074074, -0.41574074074074074, -0.41574074074074074, -0.41574074074074074, -0.41574074074074074, -0.41574074074074074, -0.41574074074074074, -0.41574074074074074, -0.41574074074074074, -0.41574074074074074, -0.41574074074074074, -0.41574074074074074, -0.41574074074074074, -0.41574074074074074, -0.41574074074074074, -0.41574074074074074, -0.41574074074074074, -0.41574074074074074, -0.41574074074074074]"	"[1, 1, 1, 1, 1, 1, 1, 1, 1, 1, 1, 1, 1, 1, 1, 1, 1, 1, 1, 1, 1, 1, 1, 1, 1, 1, 1, 1, 1, 1, 1, 1, 1, 1, 1, 1, 1, 0]"	"[0, 0, 0, 0, 0, 0, 0, 0, 0, 0, 0, 0, 0, 0, 0, 0, 0, 0, 0, 0, 0, 0, 0, 0, 0, 0, 0, 0, 0, 0, 0, 0, 0, 0, 0, 0, 0, 0]"	"[0, 0, 0, 0, 0, 0, 0, 0, 0, 0, 0, 0, 0, 0, 0, 0, 0, 0, 0, 0, 0, 0, 0, 0, 0, 0, 0, 0, 0, 0, 0, 0, 0, 0, 0, 0, 0, 1]"	"[0.19195760000002338, 0.3670060000004014, 0.5170388000001367, 0.6838196000003336, 0.8838520000003882, 1.0921870000001945, 1.3171801000003143, 1.433878100000129, 1.6255471000004036, 1.7921629000002213, 1.9587440000000242, 2.1337524000000485, 2.383948099999998, 2.5922081000003345, 2.7504672000000028, 2.925499899999977, 3.0923321000000215, 3.2590063000002374, 3.425798300000224, 3.600764700000127, 3.7923193999999967, 3.983886700000312, 4.152205500000036, 4.367256500000167, 4.542263900000307, 4.700769600000058, 4.925627400000394, 5.092450999999983, 5.267456200000197, 5.450807200000327, 5.68437780000022, 5.925694400000339, 6.125848500000302, 6.3590549000000465, 6.584084200000234, 6.817568700000265, 7.134099400000196, 7.4259571000002325]"	38	"[0.1898761000002196, 0.36492530000032275, 0.5149540000002162, 0.6817393000001175, 0.8817673000003197, 1.090106900000137, 1.3150985000002038, 1.4318007000001671, 1.623469500000283, 1.790078700000322, 1.9566580000000613, 2.131670700000086, 2.3818684000002577, 2.5901284000001397, 2.7483846000000085, 2.9234169000001202, 3.0902553000000808, 3.256926900000053, 3.4237200000002304, 3.5986861000001227, 3.7902334000000337, 3.9818105000003925, 4.150288400000136, 4.365171400000236, 4.540176400000291, 4.698686200000338, 4.92354880000039, 5.090372300000126, 5.265382000000045, 5.448725800000375, 5.682301800000005, 5.923616800000218, 6.123768700000255, 6.356976500000201, 6.58200510000006, 6.8154858000002605, 7.132017900000392, 7.423809400000209]"	"[0.28976460000012594, 0.46472840000024007, 0.6230774000000565, 0.814749699999993, 0.9897690000002513, 1.189954299999954, 1.373159300000225, 1.5314956000001985, 1.7399179000003642, 1.889842800000224, 2.0648841000001994, 2.3065513000001374, 2.5232562000001053, 2.6817281000003277, 2.8399152000001777, 3.0232598000002326, 3.1983424000000014, 3.3566107999999986, 3.564960400000018, 3.7150454000002355, 3.8899771000001238, 4.073446600000352, 4.231680300000335, 4.415022800000315, 4.648364700000002, 4.831779900000129, 5.006781100000353, 5.1985147000000325, 5.40681880000011, 5.573422700000265, 5.840114300000096, 6.056792800000039, 6.281850900000336, 6.498613100000057, 6.706876600000214, 6.940193400000226, 7.190211900000122, 7.423813400000199]"	297.38666190000004	297.3920432	298.88404279999986	298.89217880000024								09	03	2024-02-06_09h29.43.653	BART_exp	2023.2.3	119.93700908314673	2024-02-06 09h29.53.494126 +0100	
balloon.png	92	0	24	24	21	298.89217880000024													298.8842287000002	298.89217880000024	298.89217880000024	298.89217880000024	298.89217880000024	298.89217880000024	0.0055793999999878	0.0055793999999878	0.0055793999999878	298.89217880000024	307.3194346	38	1.90	False	"[0.09537037037037037, 0.09537037037037037, 0.09537037037037037, 0.09537037037037037, 0.09537037037037037, 0.09537037037037037, 0.09537037037037037, 0.09537037037037037, 0.09537037037037037, 0.09537037037037037, 0.09537037037037037, 0.09537037037037037, 0.09537037037037037, 0.09537037037037037, 0.09537037037037037, 0.09537037037037037, 0.09537037037037037, 0.09537037037037037, 0.09537037037037037, 0.09537037037037037, 0.09537037037037037, 0.09537037037037037, 0.09537037037037037, 0.09537037037037037, 0.09537037037037037, 0.09537037037037037, 0.09537037037037037, 0.09537037037037037, 0.09537037037037037, 0.09537037037037037, 0.09537037037037037, 0.09537037037037037, 0.09537037037037037, 0.09537037037037037, 0.09537037037037037, 0.09537037037037037, 0.09537037037037037, 0.09537037037037037, 0.09537037037037037, 0.09537037037037037]"	"[-0.41574074074074074, -0.41574074074074074, -0.41574074074074074, -0.41574074074074074, -0.41574074074074074, -0.41574074074074074, -0.41574074074074074, -0.41574074074074074, -0.41574074074074074, -0.41574074074074074, -0.41574074074074074, -0.41574074074074074, -0.41574074074074074, -0.41574074074074074, -0.41574074074074074, -0.41574074074074074, -0.41574074074074074, -0.41574074074074074, -0.41574074074074074, -0.41574074074074074, -0.41574074074074074, -0.41574074074074074, -0.41574074074074074, -0.41574074074074074, -0.41574074074074074, -0.41574074074074074, -0.41574074074074074, -0.41574074074074074, -0.41574074074074074, -0.41574074074074074, -0.41574074074074074, -0.41574074074074074, -0.41574074074074074, -0.41574074074074074, -0.41574074074074074, -0.41574074074074074, -0.41574074074074074, -0.41574074074074074, -0.41574074074074074, -0.41574074074074074]"	"[1, 1, 1, 1, 1, 1, 1, 1, 1, 1, 1, 1, 1, 1, 1, 1, 1, 1, 1, 1, 1, 1, 1, 1, 1, 1, 1, 1, 1, 1, 1, 1, 1, 1, 1, 1, 1, 1, 1, 1]"	"[0, 0, 0, 0, 0, 0, 0, 0, 0, 0, 0, 0, 0, 0, 0, 0, 0, 0, 0, 0, 0, 0, 0, 0, 0, 0, 0, 0, 0, 0, 0, 0, 0, 0, 0, 0, 0, 0, 0, 0]"	"[0, 0, 0, 0, 0, 0, 0, 0, 0, 0, 0, 0, 0, 0, 0, 0, 0, 0, 0, 0, 0, 0, 0, 0, 0, 0, 0, 0, 0, 0, 0, 0, 0, 0, 0, 0, 0, 0, 0, 1]"	"[0.07544880000023113, 0.3087651000000733, 0.48462990000007267, 0.8337301999999909, 1.0085793000002923, 1.2336122000001524, 1.4086294000003363, 1.5669643999999607, 1.7587852999999996, 1.925528000000213, 2.09212720000005, 2.250523300000168, 2.417024500000025, 2.6253586000002542, 2.817013400000178, 2.9672562000000653, 3.2005951000001005, 3.375402800000302, 3.583852900000238, 3.8087838999999803, 3.9921128000000863, 4.208795200000168, 4.45052990000022, 4.63382989999991, 4.950667300000077, 5.134046500000295, 5.334028400000079, 5.550709000000097, 5.684060500000214, 5.9090940000000955, 6.142444000000069, 6.383964500000275, 6.567636199999924, 6.750853600000028, 6.959119399999963, 7.142485000000306, 7.617370100000244, 7.925891200000024, 8.225768199999948, 8.434243600000173]"	39	"[0.07353459999967527, 0.30684999999994034, 0.48299649999989924, 0.8318359999998393, 1.0066626999996515, 1.231692800000019, 1.4067117999998118, 1.5650485999999546, 1.7568695999998454, 1.9236117999998896, 2.0902077999999165, 2.248603699999876, 2.4151056999999128, 2.623440500000015, 2.8150903000000653, 2.965351499999997, 3.198681999999735, 3.3734847999999147, 3.581935899999735, 3.806865099999868, 3.9901952000000165, 4.20688169999994, 4.448608400000012, 4.631906799999797, 4.948749499999849, 5.132126699999844, 5.3321123999999145, 5.548791899999742, 5.682145499999933, 5.907179599999836, 6.140525699999671, 6.382058199999847, 6.565719799999897, 6.748931699999957, 6.957203399999798, 7.140567899999951, 7.615452699999878, 7.923980399999891, 8.223848799999814]"	"[0.22312650000003487, 0.42315959999996267, 0.7232068999996955, 0.9315185000000383, 1.1565551999997297, 1.3315837000000101, 1.4982206999998198, 1.6899371999998039, 1.8566789999999855, 1.9899062999998023, 2.148256799999672, 2.356634799999938, 2.5149444999997286, 2.7649673000000803, 2.948739399999795, 3.090196399999968, 3.3066835999998148, 3.465046899999834, 3.7317715999997745, 3.923429599999963, 4.106732799999918, 4.315120899999783, 4.556747499999801, 4.87346720000005, 5.056781899999805, 5.2401286999997865, 5.456829899999775, 5.640158100000008, 5.790326699999696, 6.015229199999794, 6.248579499999778, 6.448548399999709, 6.665415199999643, 6.848576399999729, 7.090242899999794, 7.523650699999962, 7.773654399999941, 8.115413199999693, 8.432266999999683]"	307.32069619999993	307.32603040000004	308.8180188000001	308.8261381000002								09	03	2024-02-06_09h29.43.653	BART_exp	2023.2.3	119.93700908314673	2024-02-06 09h29.53.494126 +0100	
balloon.png	23	0	25	25	5	308.8261381000002													308.81819810000025	308.8261381000002	308.8261381000002	308.8261381000002	308.8261381000002	308.8261381000002	0.005519800000001851	0.005519800000001851	0.005519800000001851	308.8261381000002	313.53689410000015	24	1.15	True	"[0.09537037037037037, 0.09537037037037037, 0.09537037037037037, 0.09537037037037037, 0.09537037037037037, 0.09537037037037037, 0.09537037037037037, 0.09537037037037037, 0.09537037037037037, 0.09537037037037037, 0.09537037037037037, 0.09537037037037037, 0.09537037037037037, 0.09537037037037037, 0.09537037037037037, 0.09537037037037037, 0.09537037037037037, 0.09537037037037037, 0.09537037037037037, 0.09537037037037037, 0.09537037037037037, 0.09537037037037037, 0.09537037037037037, 0.09537037037037037]"	"[-0.41574074074074074, -0.41574074074074074, -0.41574074074074074, -0.41574074074074074, -0.41574074074074074, -0.41574074074074074, -0.41574074074074074, -0.41574074074074074, -0.41574074074074074, -0.41574074074074074, -0.41574074074074074, -0.41574074074074074, -0.41574074074074074, -0.41574074074074074, -0.41574074074074074, -0.41574074074074074, -0.41574074074074074, -0.41574074074074074, -0.41574074074074074, -0.41574074074074074, -0.41574074074074074, -0.41574074074074074, -0.41574074074074074, -0.41574074074074074]"	"[1, 1, 1, 1, 1, 1, 1, 1, 1, 1, 1, 1, 1, 1, 1, 1, 1, 1, 1, 1, 1, 1, 1, 1]"	"[0, 0, 0, 0, 0, 0, 0, 0, 0, 0, 0, 0, 0, 0, 0, 0, 0, 0, 0, 0, 0, 0, 0, 0]"	"[0, 0, 0, 0, 0, 0, 0, 0, 0, 0, 0, 0, 0, 0, 0, 0, 0, 0, 0, 0, 0, 0, 0, 0]"	"[0.025312299999768584, 0.2670990999999958, 0.4836113999999725, 0.8503011999996488, 1.075363599999946, 1.2587517999995725, 1.4337366999998267, 1.6005286999998134, 1.775535199999922, 1.950554099999863, 2.1422105999999985, 2.309020099999998, 2.4837634999998954, 2.7005294999999023, 2.850463399999626, 3.0504543999995803, 3.2254699000000073, 3.4006758999998965, 3.5756633999999394, 3.7426009999999224, 3.9508154999998624, 4.200744199999917, 4.384053199999926, 4.600775399999748]"	24	"[0.023450200000297627, 0.26523420000012266, 0.48174199999994016, 0.8484367999999449, 1.073501700000179, 1.2568859000002703, 1.431879199999912, 1.5986633000002257, 1.7736767000001237, 1.9486893000002965, 2.1403448000000935, 2.307155899999998, 2.4819016999999803, 2.6986643999998705, 2.8485976000001756, 3.0485960000000887, 3.223601499999859, 3.398815200000172, 3.573802400000204, 3.7407474000001457, 3.9489558000000216, 4.1988813000002665, 4.3821867000001475, 4.598909899999853]"	"[0.18997380000018893, 0.37325989999999365, 0.7483065000001261, 0.9483017000002292, 1.1983577000000878, 1.306710700000167, 1.5316815000001043, 1.6984783000002608, 1.8734549999999217, 2.0662107000002834, 2.2317450000000463, 2.42353409999987, 2.590153399999963, 2.773419300000114, 2.940125999999964, 3.14845860000014, 3.331807000000026, 3.5234737999999197, 3.6818140000000312, 3.8737718000002133, 4.040222699999958, 4.2822384999999485, 4.490335500000128, 4.706966600000214]"	313.5381344000002	313.54314750000003	315.0350687	315.05158470000015								09	03	2024-02-06_09h29.43.653	BART_exp	2023.2.3	119.93700908314673	2024-02-06 09h29.53.494126 +0100	
balloon.png	84	0	26	26	19	315.05158470000015													315.03524289999996	315.05158470000015	315.05158470000015	315.05158470000015	315.05158470000015	315.05158470000015	0.013517299999875831			315.05158470000015	320.0534551999999	26	1.30	False	"[0.09537037037037037, 0.09537037037037037, 0.09537037037037037, 0.09537037037037037, 0.09537037037037037, 0.09537037037037037, 0.09537037037037037, 0.09537037037037037, 0.09537037037037037, 0.09537037037037037, 0.09537037037037037, 0.09537037037037037, 0.09537037037037037, 0.09537037037037037, 0.09537037037037037, 0.09537037037037037, 0.09537037037037037, 0.09537037037037037, 0.09537037037037037, 0.09537037037037037, 0.09537037037037037, 0.09537037037037037, 0.09537037037037037, 0.09537037037037037, 0.09537037037037037, 0.09537037037037037]"	"[-0.41574074074074074, -0.41574074074074074, -0.41574074074074074, -0.41574074074074074, -0.41574074074074074, -0.41574074074074074, -0.41574074074074074, -0.41574074074074074, -0.41574074074074074, -0.41574074074074074, -0.41574074074074074, -0.41574074074074074, -0.41574074074074074, -0.41574074074074074, -0.41574074074074074, -0.41574074074074074, -0.41574074074074074, -0.41574074074074074, -0.41574074074074074, -0.41574074074074074, -0.41574074074074074, -0.41574074074074074, -0.41574074074074074, -0.41574074074074074, -0.41574074074074074, -0.41574074074074074]"	"[1, 1, 1, 1, 1, 1, 1, 1, 1, 1, 1, 1, 1, 1, 1, 1, 1, 1, 1, 1, 1, 1, 1, 1, 1, 0]"	"[0, 0, 0, 0, 0, 0, 0, 0, 0, 0, 0, 0, 0, 0, 0, 0, 0, 0, 0, 0, 0, 0, 0, 0, 0, 0]"	"[0, 0, 0, 0, 0, 0, 0, 0, 0, 0, 0, 0, 0, 0, 0, 0, 0, 0, 0, 0, 0, 0, 0, 0, 0, 1]"	"[0.10048540000025241, 0.26702990000012505, 0.46700559999999314, 0.6253341999999975, 0.833673600000111, 1.0170498000002226, 1.2170614999999998, 1.425425599999926, 1.6253945000003114, 1.850447400000121, 2.0171761000001425, 2.2004495999999563, 2.392273800000112, 2.600482800000009, 2.8088465000000724, 2.992170100000294, 3.208904699999948, 3.433897700000216, 3.658880599999975, 3.8505506999999852, 4.100809000000027, 4.284043000000111, 4.492386100000203, 4.684086199999911, 4.842293499999869, 5.017282900000282]"	26	"[0.09841189999997368, 0.26495539999996254, 0.4649240000003374, 0.6232560000003105, 0.8316401000001861, 1.014976200000092, 1.2149779000001217, 1.4233446000002914, 1.6233259999999063, 1.8483672000002116, 2.0150956000002225, 2.198364700000184, 2.390191500000128, 2.5984003000003213, 2.8067660000001524, 2.9900870000001305, 3.206824400000187, 3.4318170999999893, 3.6568003000002136, 3.848471000000245, 4.0987520000003315, 4.281964799999969, 4.490305799999987, 4.6820080000002235, 4.8402148000000125, 5.0151355000002695]"	"[0.2064473000000362, 0.3398879000001216, 0.5398506999999881, 0.7481203000002097, 0.906449099999918, 1.1232018000000608, 1.3231465000003482, 1.548282400000062, 1.739860800000315, 1.9398534000001746, 2.114897800000108, 2.314939900000354, 2.4982365999999274, 2.7316995999999563, 2.9317700999999943, 3.123286300000018, 3.3240325000001576, 3.5817471000000296, 3.7650597000001653, 3.9899978000003102, 4.206675800000085, 4.423356900000272, 4.640080099999977, 4.72340770000028, 4.940092100000129, 5.015139900000122]"	320.05453220000027	320.0603197999999	321.55219940000006	321.56867409999995								09	03	2024-02-06_09h29.43.653	BART_exp	2023.2.3	119.93700908314673	2024-02-06 09h29.53.494126 +0100	
balloon.png	5	0	27	27	1	321.56867409999995													321.5523773	321.56867409999995	321.56867409999995	321.56867409999995	321.56867409999995	321.56867409999995	-0.0009205000001202279	-0.0009205000001202279	-0.0009205000001202279	321.56867409999995	322.54571750000014	6	0.25	True	"[0.09537037037037037, 0.09907407407407408, 0.09907407407407408, 0.09907407407407408, 0.09907407407407408, 0.09907407407407408]"	"[-0.41574074074074074, -0.41574074074074074, -0.41574074074074074, -0.41574074074074074, -0.41574074074074074, -0.41574074074074074]"	"[1, 1, 1, 1, 1, 1]"	"[0, 0, 0, 0, 0, 0]"	"[0, 0, 0, 0, 0, 0]"	"[0.04218929999979082, 0.24216529999966951, 0.36701289999973596, 0.5587907999997697, 0.6836680999999771, 0.8920258999996804]"	6	"[0.03864229999999225, 0.23861279999982798, 0.3552178999998432, 0.5552443000001404, 0.6801175999999032, 0.8884775999999874]"	"[0.1717065000002549, 0.2800013000000945, 0.43832620000011957, 0.6049670000002152, 0.7716622000002644, 0.9800325000001067]"	322.5466477	322.55214449999994	324.0440330000001	324.0521818000002								09	03	2024-02-06_09h29.43.653	BART_exp	2023.2.3	119.93700908314673	2024-02-06 09h29.53.494126 +0100	
balloon.png	62	0	28	28	14	324.0521818000002													324.0442072000001	324.0521818000002	324.0521818000002	324.0521818000002	324.0521818000002	324.0521818000002	0.005597200000011071			324.0521818000002	325.5123174999999	6	0.30	False	"[0.09814814814814815, 0.09814814814814815, 0.09814814814814815, 0.09814814814814815, 0.09814814814814815, 0.09814814814814815, 0.09814814814814815]"	"[-0.412962962962963, -0.412962962962963, -0.412962962962963, -0.412962962962963, -0.412962962962963, -0.412962962962963, -0.412962962962963]"	"[1, 1, 1, 1, 1, 1, 0]"	"[0, 0, 0, 0, 0, 0, 0]"	"[0, 0, 0, 0, 0, 0, 1]"	"[0.18380779999961305, 0.3588644999999815, 0.5504767999996147, 0.8336640999996234, 1.0420758000000205, 1.225352799999655, 1.4671823999997287]"	7	"[0.18168710000009014, 0.35674820000031104, 0.5483540000000175, 0.8315400999999838, 1.0399633000001813, 1.2232268000002477, 1.4649994000001243]"	"[0.2813813000002483, 0.48156050000034156, 0.5980371000000559, 0.9314637000002222, 1.1481527000000824, 1.3481000000001586, 1.4650036000002729]"	325.5130081000002	325.51899219999996	327.0109190000003	327.0273883								09	03	2024-02-06_09h29.43.653	BART_exp	2023.2.3	119.93700908314673	2024-02-06 09h29.53.494126 +0100	
