diceImage	d_number	dice_loop.thisRepN	dice_loop.thisTrialN	dice_loop.thisN	dice_loop.thisIndex	thisRow.t	notes	Start.started	text_start.started	continue_start.started	mouse_start.started	Start.stopped	mouse_start.x	mouse_start.y	mouse_start.leftButton	mouse_start.midButton	mouse_start.rightButton	mouse_start.time	trial.started	box_dice.started	text_dice_header.started	text_gain.started	value_gain.started	text_bank.started	value_bank.started	img_dice_1.started	img_dice_2.started	img_dice_3.started	img_dice_4.started	img_dice_5.started	img_dice_6.started	img_dice_1_2.started	img_dice_3_4.started	img_dice_5_6.started	img_dice_1_2_3.started	img_dice_4_5_6.started	img_dice_1_2_3_4.started	img_dice_2_3_4_5.started	img_dice_3_4_5_6.started	text_value_header.started	text_value_1000.started	text_value_500.started	text_value_200.started	text_value_100.started	mouse_task.started	img_dice_throw_trials.started	img_dice_throw_trials.stopped	trial.stopped	mouse_task.x	mouse_task.y	mouse_task.leftButton	mouse_task.midButton	mouse_task.rightButton	mouse_task.time	choice	gain	End.started	text_end.started	key_end.started	End.stopped	key_end.keys	key_end.rt	key_end.duration	participant	session	date	expName	psychopyVersion	frameRate	expStart	
								0.00552050000987947	0.024941800045780838	0.024941800045780838	0.0059652000200003386	2.9742948000784963	[0.615]	[-0.3825]	[1]	[0]	[0]	[2.9674995000241324]																																														01	02	2023-12-13_16h23.01.996	GDT_exp	2023.2.2	None	2023-12-13 16h23.33.764854 +0100	
dice_6.png	6	0	0	0	5	3.1287679000524804													2.9959010999882594	3.1287679000524804	3.1287679000524804	3.1287679000524804	3.1287679000524804	3.1287679000524804	3.1287679000524804	3.1287679000524804	3.1287679000524804	3.1287679000524804	3.1287679000524804	3.1287679000524804	3.1287679000524804	3.1287679000524804	3.1287679000524804	3.1287679000524804	3.1287679000524804	3.1287679000524804	3.1287679000524804	3.1287679000524804	3.1287679000524804	3.1287679000524804	3.1287679000524804	3.1287679000524804	3.1287679000524804	3.1287679000524804	0.04217789997346699	5.836785300052725	7.400031100027263	7.365688999998383	"[0.041666666666666664, 0.13666666666666666]"	"[-0.33666666666666667, -0.28833333333333333]"	"[1, 0]"	"[0, 0]"	"[0, 1]"	"[2.239719199948013, 2.6948399000102654]"	4	100								01	02	2023-12-13_16h23.01.996	GDT_exp	2023.2.2	None	2023-12-13 16h23.33.764854 +0100	
dice_2.png	2	0	1	1	1	7.400031100027263													7.36669900000561	7.400031100027263	7.400031100027263	7.400031100027263	7.400031100027263	7.400031100027263	7.400031100027263	7.400031100027263	7.400031100027263	7.400031100027263	7.400031100027263	7.400031100027263	7.400031100027263	7.400031100027263	7.400031100027263	7.400031100027263	7.400031100027263	7.400031100027263	7.400031100027263	7.400031100027263	7.400031100027263	7.400031100027263	7.400031100027263	7.400031100027263	7.400031100027263	7.400031100027263	0.005816500051878393	8.774952100007795	10.333597399992868	10.294947399990633	"[-0.18333333333333332, -0.04083333333333333]"	"[-0.3433333333333333, -0.37416666666666665]"	"[1, 0]"	"[0, 0]"	"[0, 1]"	"[0.9267833000048995, 1.3254292999627069]"	4	100								01	02	2023-12-13_16h23.01.996	GDT_exp	2023.2.2	None	2023-12-13 16h23.33.764854 +0100	
dice_4.png	4	0	2	2	3	10.333597399992868													10.295903100050054	10.333597399992868	10.333597399992868	10.333597399992868	10.333597399992868	10.333597399992868	10.333597399992868	10.333597399992868	10.333597399992868	10.333597399992868	10.333597399992868	10.333597399992868	10.333597399992868	10.333597399992868	10.333597399992868	10.333597399992868	10.333597399992868	10.333597399992868	10.333597399992868	10.333597399992868	10.333597399992868	10.333597399992868	10.333597399992868	10.333597399992868	10.333597399992868	10.333597399992868	0.010067499941214919	11.1187484000111	12.680343899992295	12.63932980003301	"[-0.5425, -0.4025]"	"[-0.3408333333333333, -0.36666666666666664]"	"[1, 0]"	"[0, 0]"	"[0, 1]"	"[0.33955649996642023, 0.7344425999326631]"	4	100								01	02	2023-12-13_16h23.01.996	GDT_exp	2023.2.2	None	2023-12-13 16h23.33.764854 +0100	
dice_1.png	1	0	3	3	0	12.680343899992295													12.639996000099927	12.680343899992295	12.680343899992295	12.680343899992295	12.680343899992295	12.680343899992295	12.680343899992295	12.680343899992295	12.680343899992295	12.680343899992295	12.680343899992295	12.680343899992295	12.680343899992295	12.680343899992295	12.680343899992295	12.680343899992295	12.680343899992295	12.680343899992295	12.680343899992295	12.680343899992295	12.680343899992295	12.680343899992295	12.680343899992295	12.680343899992295	12.680343899992295	12.680343899992295	0.01201720000244677	13.42750990006607	14.979954600101337	14.941559200058691	"[-0.36833333333333335, -0.3858333333333333]"	"[-0.2325, -0.3466666666666667]"	"[1, 0]"	"[0, 0]"	"[0, 1]"	"[0.18334840005263686, 0.6983929000562057]"	3	200								01	02	2023-12-13_16h23.01.996	GDT_exp	2023.2.2	None	2023-12-13 16h23.33.764854 +0100	
dice_5.png	5	0	4	4	4	14.979954600101337													14.94228220009245	14.979954600101337	14.979954600101337	14.979954600101337	14.979954600101337	14.979954600101337	14.979954600101337	14.979954600101337	14.979954600101337	14.979954600101337	14.979954600101337	14.979954600101337	14.979954600101337	14.979954600101337	14.979954600101337	14.979954600101337	14.979954600101337	14.979954600101337	14.979954600101337	14.979954600101337	14.979954600101337	14.979954600101337	14.979954600101337	14.979954600101337	14.979954600101337	14.979954600101337	0.009634200017899275	15.760633600060828	17.303609600057825	17.26628460001666	"[-0.06, -0.09416666666666666]"	"[-0.2608333333333333, -0.3475]"	"[1, 0]"	"[0, 0]"	"[0, 1]"	"[0.359883000026457, 0.7268744999310002]"	3	200								01	02	2023-12-13_16h23.01.996	GDT_exp	2023.2.2	None	2023-12-13 16h23.33.764854 +0100	
dice_3.png	3	0	5	5	2	17.303609600057825													17.266925900010392	17.303609600057825	17.303609600057825	17.303609600057825	17.303609600057825	17.303609600057825	17.303609600057825	17.303609600057825	17.303609600057825	17.303609600057825	17.303609600057825	17.303609600057825	17.303609600057825	17.303609600057825	17.303609600057825	17.303609600057825	17.303609600057825	17.303609600057825	17.303609600057825	17.303609600057825	17.303609600057825	17.303609600057825	17.303609600057825	17.303609600057825	17.303609600057825	17.303609600057825	0.00968530005775392	18.52217410004232	20.073425200069323	20.034719599992968	"[0.05, 0.15833333333333333]"	"[-0.3516666666666667, -0.31166666666666665]"	"[1, 0]"	"[0, 0]"	"[0, 1]"	"[0.7457909999648109, 1.168314400012605]"	4	100								01	02	2023-12-13_16h23.01.996	GDT_exp	2023.2.2	None	2023-12-13 16h23.33.764854 +0100	
dice_3.png	3	1	0	6	2	20.073425200069323													20.035364000010304	20.073425200069323	20.073425200069323	20.073425200069323	20.073425200069323	20.073425200069323	20.073425200069323	20.073425200069323	20.073425200069323	20.073425200069323	20.073425200069323	20.073425200069323	20.073425200069323	20.073425200069323	20.073425200069323	20.073425200069323	20.073425200069323	20.073425200069323	20.073425200069323	20.073425200069323	20.073425200069323	20.073425200069323	20.073425200069323	20.073425200069323	20.073425200069323	20.073425200069323	0.009883199934847653	21.077659100061283	22.629589600022882	22.588710200041533	"[-0.2608333333333333, -0.2225]"	"[-0.36333333333333334, -0.4191666666666667]"	"[1, 0]"	"[0, 0]"	"[0, 1]"	"[0.5461893999017775, 0.9551546999718994]"	4	100								01	02	2023-12-13_16h23.01.996	GDT_exp	2023.2.2	None	2023-12-13 16h23.33.764854 +0100	
dice_6.png	6	1	1	7	5	22.629589600022882													22.58944250002969	22.629589600022882	22.629589600022882	22.629589600022882	22.629589600022882	22.629589600022882	22.629589600022882	22.629589600022882	22.629589600022882	22.629589600022882	22.629589600022882	22.629589600022882	22.629589600022882	22.629589600022882	22.629589600022882	22.629589600022882	22.629589600022882	22.629589600022882	22.629589600022882	22.629589600022882	22.629589600022882	22.629589600022882	22.629589600022882	22.629589600022882	22.629589600022882	22.629589600022882	0.011877599987201393	23.474189400090836	25.020352700026706	24.984792200033553	"[0.11666666666666667, 0.2758333333333333]"	"[-0.37666666666666665, -0.23166666666666666]"	"[1, 0]"	"[0, 0]"	"[0, 1]"	"[0.3765932999085635, 0.7951575999613851]"	4	100								01	02	2023-12-13_16h23.01.996	GDT_exp	2023.2.2	None	2023-12-13 16h23.33.764854 +0100	
dice_2.png	2	1	2	8	1	25.020352700026706													24.985461400006898	25.020352700026706	25.020352700026706	25.020352700026706	25.020352700026706	25.020352700026706	25.020352700026706	25.020352700026706	25.020352700026706	25.020352700026706	25.020352700026706	25.020352700026706	25.020352700026706	25.020352700026706	25.020352700026706	25.020352700026706	25.020352700026706	25.020352700026706	25.020352700026706	25.020352700026706	25.020352700026706	25.020352700026706	25.020352700026706	25.020352700026706	25.020352700026706	25.020352700026706	0.007640600088052452	27.835156699991785	29.37867460004054	29.34489609999582	"[-0.07833333333333334, -0.08166666666666667]"	"[-0.2325, -0.35333333333333333]"	"[1, 0]"	"[0, 0]"	"[0, 1]"	"[2.1544677999336272, 2.7509103999473155]"	3	-200								01	02	2023-12-13_16h23.01.996	GDT_exp	2023.2.2	None	2023-12-13 16h23.33.764854 +0100	
dice_5.png	5	1	3	9	4	29.37867460004054													29.34555160009768	29.37867460004054	29.37867460004054	29.37867460004054	29.37867460004054	29.37867460004054	29.37867460004054	29.37867460004054	29.37867460004054	29.37867460004054	29.37867460004054	29.37867460004054	29.37867460004054	29.37867460004054	29.37867460004054	29.37867460004054	29.37867460004054	29.37867460004054	29.37867460004054	29.37867460004054	29.37867460004054	29.37867460004054	29.37867460004054	29.37867460004054	29.37867460004054	29.37867460004054	0.005819500074721873	30.193066800013185	31.750136999995448	31.714084800099954	"[-0.20583333333333334, -0.05]"	"[-0.3491666666666667, -0.32]"	"[1, 0]"	"[0, 0]"	"[0, 1]"	"[0.4061857999768108, 0.7653154999716207]"	4	100								01	02	2023-12-13_16h23.01.996	GDT_exp	2023.2.2	None	2023-12-13 16h23.33.764854 +0100	
dice_4.png	4	1	4	10	3	31.750136999995448													31.71502710005734	31.750136999995448	31.750136999995448	31.750136999995448	31.750136999995448	31.750136999995448	31.750136999995448	31.750136999995448	31.750136999995448	31.750136999995448	31.750136999995448	31.750136999995448	31.750136999995448	31.750136999995448	31.750136999995448	31.750136999995448	31.750136999995448	31.750136999995448	31.750136999995448	31.750136999995448	31.750136999995448	31.750136999995448	31.750136999995448	31.750136999995448	31.750136999995448	31.750136999995448	0.008651399984955788	32.50943980005104	34.09189660008997	34.05848570005037	"[0.115, 0.2633333333333333]"	"[-0.3375, -0.31083333333333335]"	"[1, 0]"	"[0, 0]"	"[0, 1]"	"[0.3382090999512002, 0.7082071000477299]"	4	100								01	02	2023-12-13_16h23.01.996	GDT_exp	2023.2.2	None	2023-12-13 16h23.33.764854 +0100	
dice_1.png	1	1	5	11	0	34.09189660008997													34.05913489998784	34.09189660008997	34.09189660008997	34.09189660008997	34.09189660008997	34.09189660008997	34.09189660008997	34.09189660008997	34.09189660008997	34.09189660008997	34.09189660008997	34.09189660008997	34.09189660008997	34.09189660008997	34.09189660008997	34.09189660008997	34.09189660008997	34.09189660008997	34.09189660008997	34.09189660008997	34.09189660008997	34.09189660008997	34.09189660008997	34.09189660008997	34.09189660008997	34.09189660008997	0.005714399972930551	35.186297000036575	36.75436510005966	36.720744500053115	"[-0.20666666666666667, -0.07916666666666666]"	"[-0.37166666666666665, -0.3933333333333333]"	"[1, 0]"	"[0, 0]"	"[0, 1]"	"[0.5956383000593632, 1.0427765999920666]"	4	-100								01	02	2023-12-13_16h23.01.996	GDT_exp	2023.2.2	None	2023-12-13 16h23.33.764854 +0100	
dice_5.png	5	2	0	12	4	36.75436510005966													36.721406000084244	36.75436510005966	36.75436510005966	36.75436510005966	36.75436510005966	36.75436510005966	36.75436510005966	36.75436510005966	36.75436510005966	36.75436510005966	36.75436510005966	36.75436510005966	36.75436510005966	36.75436510005966	36.75436510005966	36.75436510005966	36.75436510005966	36.75436510005966	36.75436510005966	36.75436510005966	36.75436510005966	36.75436510005966	36.75436510005966	36.75436510005966	36.75436510005966	36.75436510005966	0.005619499948807061	37.488095900043845	39.02941980003379	38.99368610000238	"[0.0475, 0.15833333333333333]"	"[-0.36083333333333334, -0.305]"	"[1, 0]"	"[0, 0]"	"[0, 1]"	"[0.3125077999429777, 0.6844717999920249]"	4	100								01	02	2023-12-13_16h23.01.996	GDT_exp	2023.2.2	None	2023-12-13 16h23.33.764854 +0100	
dice_1.png	1	2	1	13	0	39.02941980003379													38.99434760003351	39.02941980003379	39.02941980003379	39.02941980003379	39.02941980003379	39.02941980003379	39.02941980003379	39.02941980003379	39.02941980003379	39.02941980003379	39.02941980003379	39.02941980003379	39.02941980003379	39.02941980003379	39.02941980003379	39.02941980003379	39.02941980003379	39.02941980003379	39.02941980003379	39.02941980003379	39.02941980003379	39.02941980003379	39.02941980003379	39.02941980003379	39.02941980003379	39.02941980003379	0.005797900026664138	39.79917520005256	41.361343900091015	41.32584990002215	"[-0.07333333333333333, -0.06666666666666667]"	"[-0.2625, -0.32416666666666666]"	"[1, 0]"	"[0, 0]"	"[0, 1]"	"[0.35426659998483956, 0.7213233000366017]"	3	-200								01	02	2023-12-13_16h23.01.996	GDT_exp	2023.2.2	None	2023-12-13 16h23.33.764854 +0100	
dice_2.png	2	2	2	14	1	41.361343900091015													41.327103800023906	41.361343900091015	41.361343900091015	41.361343900091015	41.361343900091015	41.361343900091015	41.361343900091015	41.361343900091015	41.361343900091015	41.361343900091015	41.361343900091015	41.361343900091015	41.361343900091015	41.361343900091015	41.361343900091015	41.361343900091015	41.361343900091015	41.361343900091015	41.361343900091015	41.361343900091015	41.361343900091015	41.361343900091015	41.361343900091015	41.361343900091015	41.361343900091015	41.361343900091015	0.008051999961026013	41.86788490007166	43.43097530002706	43.39322379999794	"[-0.25083333333333335, -0.21666666666666667]"	"[-0.35583333333333333, -0.41833333333333333]"	"[1, 0]"	"[0, 0]"	"[0, 1]"	"[0.15356480004265904, 0.4436367000453174]"	4	100								01	02	2023-12-13_16h23.01.996	GDT_exp	2023.2.2	None	2023-12-13 16h23.33.764854 +0100	
dice_6.png	6	2	3	15	5	43.43097530002706													43.394294500001706	43.43097530002706	43.43097530002706	43.43097530002706	43.43097530002706	43.43097530002706	43.43097530002706	43.43097530002706	43.43097530002706	43.43097530002706	43.43097530002706	43.43097530002706	43.43097530002706	43.43097530002706	43.43097530002706	43.43097530002706	43.43097530002706	43.43097530002706	43.43097530002706	43.43097530002706	43.43097530002706	43.43097530002706	43.43097530002706	43.43097530002706	43.43097530002706	43.43097530002706	0.006620200001634657	44.37151160009671	45.950478599988855	45.9141210000962	"[-0.37416666666666665, -0.3825]"	"[-0.2575, -0.3458333333333333]"	"[1, 0]"	"[0, 0]"	"[0, 1]"	"[0.5357838999480009, 0.8888736999360844]"	3	-200								01	02	2023-12-13_16h23.01.996	GDT_exp	2023.2.2	None	2023-12-13 16h23.33.764854 +0100	
dice_3.png	3	2	4	16	2	45.950478599988855													45.91483000002336	45.950478599988855	45.950478599988855	45.950478599988855	45.950478599988855	45.950478599988855	45.950478599988855	45.950478599988855	45.950478599988855	45.950478599988855	45.950478599988855	45.950478599988855	45.950478599988855	45.950478599988855	45.950478599988855	45.950478599988855	45.950478599988855	45.950478599988855	45.950478599988855	45.950478599988855	45.950478599988855	45.950478599988855	45.950478599988855	45.950478599988855	45.950478599988855	45.950478599988855	0.006095300079323351	48.0173484000843	49.58321579999756	49.546470000059344	"[0.18333333333333332, -0.011666666666666667, -0.04083333333333333]"	"[-0.06583333333333333, -0.049166666666666664, -0.13416666666666666]"	"[1, 1, 0]"	"[0, 0, 0]"	"[0, 0, 1]"	"[1.0427094999467954, 1.6640871999552473, 2.005020200042054]"	1	-1000								01	02	2023-12-13_16h23.01.996	GDT_exp	2023.2.2	None	2023-12-13 16h23.33.764854 +0100	
dice_4.png	4	2	5	17	3	49.58321579999756													49.54721490002703	49.58321579999756	49.58321579999756	49.58321579999756	49.58321579999756	49.58321579999756	49.58321579999756	49.58321579999756	49.58321579999756	49.58321579999756	49.58321579999756	49.58321579999756	49.58321579999756	49.58321579999756	49.58321579999756	49.58321579999756	49.58321579999756	49.58321579999756	49.58321579999756	49.58321579999756	49.58321579999756	49.58321579999756	49.58321579999756	49.58321579999756	49.58321579999756	49.58321579999756	0.006302900030277669	50.627948000095785	52.16383129998576	52.15909540001303	"[-0.03166666666666667, -0.02666666666666667]"	"[-0.0575, -0.1075]"	"[1, 0]"	"[0, 0]"	"[0, 1]"	"[0.5122177000157535, 0.9885250000515953]"	1	-1000								01	02	2023-12-13_16h23.01.996	GDT_exp	2023.2.2	None	2023-12-13 16h23.33.764854 +0100	
																																																									52.15970090008341	52.16383129998576	52.16383129998576	55.13622360001318	space	2.9617484000045806	None	01	02	2023-12-13_16h23.01.996	GDT_exp	2023.2.2	None	2023-12-13 16h23.33.764854 +0100	
