"image"	"max_pumps"	"pump_loop.thisRepN"	"pump_loop.thisTrialN"	"pump_loop.thisN"	"pump_loop.thisIndex"	"thisRow.t"	"notes"	"Start.started"	"text_start.started"	"continue_start.started"	"mouse_start.started"	"Start.stopped"	"mouse_start.x"	"mouse_start.y"	"mouse_start.leftButton"	"mouse_start.midButton"	"mouse_start.rightButton"	"mouse_start.time"	"trials.started"	"stim_balloon.started"	"stim_balloon_burst.started"	"stim_balloon_burst.stopped"	"text_ballon_value.started"	"text_bank.started"	"mouse.started"	"sound_bang.started"	"sound_bang.stopped"	"button_balloon.started"	"trials.stopped"	"n_pumps"	"earnings"	"popped"	"mouse.x"	"mouse.y"	"mouse.leftButton"	"mouse.midButton"	"mouse.rightButton"	"mouse.time"	"button_balloon.numClicks"	"button_balloon.timesOn"	"button_balloon.timesOff"	"Feedback.started"	"text_feedback.started"	"Feedback.stopped"	"text_feedback.stopped"	"End.started"	"text_end.started"	"key_end.started"	"End.stopped"	"key_end.keys"	"key_end.rt"	"key_end.duration"	"participant"	"session"	"date"	"expName"	"psychopyVersion"	"frameRate"	"expStart"	"...61"
NA	NA	NA	NA	NA	NA	NA	NA	0.0361052000007476	0.0411444000019401	0.0411444000019401	0.0364268000012089	111.4830468	"[0.6953703703703704]"	"[-0.4027777777777778]"	"[1]"	"[0]"	"[0]"	"[111.44602859999941]"	NA	NA	NA	NA	NA	NA	NA	NA	NA	NA	NA	NA	NA	NA	NA	NA	NA	NA	NA	NA	NA	NA	NA	NA	NA	NA	NA	NA	NA	NA	NA	NA	NA	NA	18	"02"	"2024-02-08_15h16.52.108"	"BART_exp"	"2023.2.3"	119.972406349419	"2024-02-08 15h17.01.480456 +0100"	NA
"balloon.png"	88	0	0	0	20	111.557407	NA	NA	NA	NA	NA	NA	NA	NA	NA	NA	NA	NA	111.4906434	111.557407	111.557407	111.557407	111.557407	111.557407	0.00932409999950323	0.00932409999950323	0.00932409999950323	111.557407	118.959674400001	20	1	FALSE	"[-0.05555555555555555, -0.05555555555555555, -0.05555555555555555, -0.05555555555555555, -0.05555555555555555, -0.05555555555555555, -0.05555555555555555, -0.05555555555555555, -0.05555555555555555, -0.05555555555555555, -0.05555555555555555, -0.05555555555555555, -0.05555555555555555, -0.05555555555555555, -0.05555555555555555, -0.05555555555555555, -0.05555555555555555, -0.05555555555555555, -0.05555555555555555, -0.05555555555555555, 0.2851851851851852]"	"[-0.38425925925925924, -0.38425925925925924, -0.38425925925925924, -0.38425925925925924, -0.38425925925925924, -0.38425925925925924, -0.38425925925925924, -0.38425925925925924, -0.38425925925925924, -0.38425925925925924, -0.38425925925925924, -0.38425925925925924, -0.38425925925925924, -0.38425925925925924, -0.38425925925925924, -0.38425925925925924, -0.38425925925925924, -0.38425925925925924, -0.38425925925925924, -0.38425925925925924, -0.16944444444444445]"	"[1, 1, 1, 1, 1, 1, 1, 1, 1, 1, 1, 1, 1, 1, 1, 1, 1, 1, 1, 1, 0]"	"[0, 0, 0, 0, 0, 0, 0, 0, 0, 0, 0, 0, 0, 0, 0, 0, 0, 0, 0, 0, 0]"	"[0, 0, 0, 0, 0, 0, 0, 0, 0, 0, 0, 0, 0, 0, 0, 0, 0, 0, 0, 0, 1]"	"[1.734333799999149, 1.9593640999992203, 2.1843779000009818, 2.401073799999722, 2.6592485000001034, 2.875937500000873, 3.1263341999983822, 3.359604000001127, 3.560859499997605, 3.7761604000006628, 3.984494399999676, 4.184554899999057, 4.392882299998746, 4.609630899998592, 4.817882499999541, 5.026333599998907, 5.335893499999656, 5.768088199998601, 5.959808100000373, 6.467844899998454, 7.468096500000684]"	20	"[1.6782103999976243, 1.903242999997019, 2.128250699999626, 2.3449455999980273, 2.603120099996886, 2.819815999999264, 3.070216599997366, 3.303482899998926, 3.504909499999485, 3.7200306999984605, 3.928368999997474, 4.128437699997448, 4.33675619999849, 4.553503499999351, 4.761767199997848, 4.9702296999967075, 5.27977219999957, 5.7119629999979225, 5.903692099996988, 6.41171839999879]"	"[1.7863158000000112, 2.0196817999967607, 2.236270399997011, 2.4529873999999836, 2.6780017999990378, 2.952987900000153, 3.2030670999993163, 3.4197204999982205, 3.628047099999094, 3.8364192999979423, 4.036663799997768, 4.228250599997409, 4.436437599997589, 4.653180899997096, 4.861467399998219, 5.0781444999993255, 5.394818899996608, 5.8198722999986785, 6.019887899998139, 6.494900699999562]"	118.961024700002	118.974650600001	120.466406300002	NA	NA	NA	NA	NA	NA	NA	NA	18	"02"	"2024-02-08_15h16.52.108"	"BART_exp"	"2023.2.3"	119.972406349419	"2024-02-08 15h17.01.480456 +0100"	NA
"balloon.png"	36	0	1	1	8	120.483068699999	NA	NA	NA	NA	NA	NA	NA	NA	NA	NA	NA	NA	120.466575800001	120.483068699999	120.483068699999	120.483068699999	120.483068699999	120.483068699999	0.00675680000131251	0.00675680000131251	0.00675680000131251	120.483068699999	127.001916000001	20	1	FALSE	"[0.008333333333333333, 0.008333333333333333, 0.008333333333333333, 0.008333333333333333, 0.008333333333333333, 0.008333333333333333, 0.008333333333333333, 0.008333333333333333, 0.008333333333333333, 0.008333333333333333, 0.008333333333333333, 0.008333333333333333, 0.008333333333333333, 0.008333333333333333, 0.008333333333333333, 0.008333333333333333, 0.008333333333333333, 0.008333333333333333, 0.008333333333333333, 0.008333333333333333, 0.014814814814814815]"	"[-0.39444444444444443, -0.39444444444444443, -0.39444444444444443, -0.39444444444444443, -0.39444444444444443, -0.39444444444444443, -0.39444444444444443, -0.39444444444444443, -0.39444444444444443, -0.39444444444444443, -0.39444444444444443, -0.39444444444444443, -0.39444444444444443, -0.39444444444444443, -0.39444444444444443, -0.39444444444444443, -0.39444444444444443, -0.39444444444444443, -0.39444444444444443, -0.39444444444444443, -0.19444444444444445]"	"[1, 1, 1, 1, 1, 1, 1, 1, 1, 1, 1, 1, 1, 1, 1, 1, 1, 1, 1, 1, 0]"	"[0, 0, 0, 0, 0, 0, 0, 0, 0, 0, 0, 0, 0, 0, 0, 0, 0, 0, 0, 0, 0]"	"[0, 0, 0, 0, 0, 0, 0, 0, 0, 0, 0, 0, 0, 0, 0, 0, 0, 0, 0, 0, 1]"	"[0.5923361999994086, 0.7756743999998434, 0.9673492000001715, 1.1423735999997007, 1.350841200001014, 1.5507668999998714, 1.7757348000013735, 2.0007805000022927, 3.084015200001886, 3.2925123000022722, 3.534176600001956, 3.7592137999999977, 3.967555600000196, 4.1842692000027455, 4.375944999999774, 4.576048400002037, 4.800934900002176, 4.992648400002508, 5.209341199999471, 5.617650100000901, 6.534426000001986]"	20	"[0.5826971000024059, 0.7660343999996257, 0.957704600001307, 1.1327291000015975, 1.3411955000010494, 1.5411235999999917, 1.7660897000023397, 1.9911370000008901, 3.0743680000014137, 3.282862300002307, 3.5245345000003, 3.749565400001302, 3.95791310000277, 4.174621100002696, 4.366298600001755, 4.566403200002242, 4.791286100000434, 4.982999500000005, 5.199690299999929, 5.607997900002374]"	"[0.6907890000002226, 0.8741413000025204, 1.0324331000010716, 1.2407411000021966, 1.4490833000018029, 1.6407749999998487, 1.8825228999994579, 2.1074759000002814, 3.1908665000009933, 3.3992080999996688, 3.6408900000024005, 3.8575909000028332, 4.0579333000023325, 4.257714900002611, 4.482625600001484, 4.674311700000544, 4.882678600002691, 5.08269570000266, 5.316064300001017, 5.716118800002732]"	127.002878300002	127.008489100001	128.500528	128.5169547	NA	NA	NA	NA	NA	NA	NA	18	"02"	"2024-02-08_15h16.52.108"	"BART_exp"	"2023.2.3"	119.972406349419	"2024-02-08 15h17.01.480456 +0100"	NA
"balloon.png"	31	0	2	2	7	128.5169547	NA	NA	NA	NA	NA	NA	NA	NA	NA	NA	NA	NA	128.5007004	128.5169547	128.5169547	128.5169547	128.5169547	128.5169547	-0.00097549999918555	-0.00097549999918555	-0.00097549999918555	128.5169547	133.635798899999	20	1	FALSE	"[-0.003703703703703704, -0.003703703703703704, -0.003703703703703704, -0.003703703703703704, -0.003703703703703704, -0.003703703703703704, -0.003703703703703704, -0.003703703703703704, -0.003703703703703704, -0.003703703703703704, -0.003703703703703704, -0.003703703703703704, -0.003703703703703704, -0.003703703703703704, -0.003703703703703704, -0.003703703703703704, -0.003703703703703704, -0.003703703703703704, -0.003703703703703704, -0.003703703703703704, 0.008333333333333333]"	"[-0.3851851851851852, -0.3861111111111111, -0.3861111111111111, -0.3861111111111111, -0.3861111111111111, -0.3861111111111111, -0.3861111111111111, -0.3861111111111111, -0.3861111111111111, -0.3861111111111111, -0.3861111111111111, -0.3861111111111111, -0.3861111111111111, -0.3861111111111111, -0.3861111111111111, -0.3861111111111111, -0.3861111111111111, -0.3861111111111111, -0.3861111111111111, -0.3861111111111111, -0.22407407407407406]"	"[1, 1, 1, 1, 1, 1, 1, 1, 1, 1, 1, 1, 1, 1, 1, 1, 1, 1, 1, 1, 0]"	"[0, 0, 0, 0, 0, 0, 0, 0, 0, 0, 0, 0, 0, 0, 0, 0, 0, 0, 0, 0, 0]"	"[0, 0, 0, 0, 0, 0, 0, 0, 0, 0, 0, 0, 0, 0, 0, 0, 0, 0, 0, 0, 1]"	"[0.5256111999988207, 0.7013745000003837, 0.9004311999997299, 1.0836359999993874, 1.2754128999986278, 1.4503316999980598, 1.650364900000568, 1.8337108999985503, 2.0337387999970815, 2.233864199999516, 2.408739099999366, 2.592258900000161, 2.7672443999981624, 2.9589643999970576, 3.1838424999987183, 3.3923243999997794, 3.575642299998435, 3.7756426999985706, 4.1007761000000755, 4.450588699997752, 5.13408089999939]"	20	"[0.5196710000018356, 0.6955932000018947, 0.8944838000024902, 1.077685800002655, 1.2694619000030798, 1.4443906000014977, 1.644421200002398, 1.8277688000016497, 2.027798900002381, 2.2279197000025306, 2.402795000001788, 2.5863244000029226, 2.761294600000838, 2.9530171000005794, 3.1778929000029166, 3.386376200000086, 3.5697004000030574, 3.769698600000993, 4.094829600002413, 4.444641000001866]"	"[0.6193063000027905, 0.8108786000011605, 0.9941939000018465, 1.1775890000026266, 1.3693414000008488, 1.552571900003386, 1.7526343000026827, 1.9109111000034318, 2.11094100000264, 2.3027053000005253, 2.477616100000887, 2.6776478000028874, 2.885997600002156, 3.0693359000033524, 3.3027606000032392, 3.4943625000014435, 3.6860976000025403, 3.8610733000023174, 4.211081100002048, 4.552767200002563]"	133.636672100001	133.642289800002	135.134287000001	135.159065	NA	NA	NA	NA	NA	NA	NA	18	"02"	"2024-02-08_15h16.52.108"	"BART_exp"	"2023.2.3"	119.972406349419	"2024-02-08 15h17.01.480456 +0100"	NA
"balloon.png"	79	0	3	3	18	135.159065	NA	NA	NA	NA	NA	NA	NA	NA	NA	NA	NA	NA	135.134459100002	135.159065	135.159065	135.159065	135.159065	135.159065	-0.00096990000020014	-0.00096990000020014	-0.00096990000020014	135.159065	140.594528100002	20	1	FALSE	"[-0.001851851851851852, -0.001851851851851852, -0.001851851851851852, -0.001851851851851852, -0.001851851851851852, -0.001851851851851852, -0.001851851851851852, -0.001851851851851852, -0.001851851851851852, -0.001851851851851852, -0.001851851851851852, -0.001851851851851852, -0.001851851851851852, -0.001851851851851852, -0.001851851851851852, -0.001851851851851852, -0.001851851851851852, -0.001851851851851852, -0.001851851851851852, -0.001851851851851852, -0.002777777777777778]"	"[-0.37222222222222223, -0.37222222222222223, -0.37222222222222223, -0.37222222222222223, -0.37222222222222223, -0.37222222222222223, -0.37222222222222223, -0.37222222222222223, -0.37222222222222223, -0.37222222222222223, -0.37222222222222223, -0.37222222222222223, -0.37222222222222223, -0.37222222222222223, -0.37222222222222223, -0.37222222222222223, -0.37222222222222223, -0.37222222222222223, -0.37222222222222223, -0.37222222222222223, -0.23703703703703705]"	"[1, 1, 1, 1, 1, 1, 1, 1, 1, 1, 1, 1, 1, 1, 1, 1, 1, 1, 1, 1, 0]"	"[0, 0, 0, 0, 0, 0, 0, 0, 0, 0, 0, 0, 0, 0, 0, 0, 0, 0, 0, 0, 0]"	"[0, 0, 0, 0, 0, 0, 0, 0, 0, 0, 0, 0, 0, 0, 0, 0, 0, 0, 0, 0, 1]"	"[0.6003071999984968, 0.7669958999977098, 0.9423113999982888, 1.117148699999234, 1.2921570999969845, 1.467257599997538, 1.642220499998075, 1.825501199997234, 2.017095999999583, 2.20044659999985, 2.392105299997638, 2.575457599999936, 2.767106599996623, 2.9504545999989205, 3.1504760999996506, 3.4756684999993013, 3.7338635999985854, 4.142219099998329, 4.500729799998226, 4.859098199998698, 5.459146599998348]"	20	"[0.5880396000029577, 0.7547279000027629, 0.930042300002242, 1.1048832000014954, 1.2798940000029688, 1.4549890000016603, 1.6299582999999984, 1.8132315000002563, 2.004831900001591, 2.1881807999998273, 2.3798386000016762, 2.563191100001859, 2.7548367000017606, 2.9381917000027897, 3.1382125000018277, 3.4634009000001242, 3.7215998000028776, 4.129950900001859, 4.488466000002518, 4.846828800000367]"	"[0.6628696000007039, 0.8463960000008228, 1.029568300000392, 1.2129432000001543, 1.3963244000005943, 1.5631802000025345, 1.7046492000008584, 1.9213220000019646, 2.096334300000308, 2.28798270000334, 2.471495000001596, 2.663085100000899, 2.8297486000010394, 3.038046100002248, 3.2464538000022003, 3.5964274000034493, 3.863119400000869, 4.229814800000895, 4.613181300002907, 4.996525800001109]"	140.5954814	140.601117400001	142.093087699999	142.109599399999	NA	NA	NA	NA	NA	NA	NA	18	"02"	"2024-02-08_15h16.52.108"	"BART_exp"	"2023.2.3"	119.972406349419	"2024-02-08 15h17.01.480456 +0100"	NA
"balloon.png"	123	0	4	4	28	142.109599399999	NA	NA	NA	NA	NA	NA	NA	NA	NA	NA	NA	NA	142.0932636	142.109599399999	142.109599399999	142.109599399999	142.109599399999	142.109599399999	-0.00098639999851002	-0.00098639999851002	-0.00098639999851002	142.109599399999	147.561776300001	21	1.05	FALSE	"[-0.012037037037037037, -0.012037037037037037, -0.012037037037037037, -0.012037037037037037, -0.012037037037037037, -0.012037037037037037, -0.012037037037037037, -0.012037037037037037, -0.012037037037037037, -0.012037037037037037, -0.012037037037037037, -0.012037037037037037, -0.012037037037037037, -0.012037037037037037, -0.012037037037037037, -0.012037037037037037, -0.012037037037037037, -0.012037037037037037, -0.012037037037037037, -0.012037037037037037, -0.012037037037037037, -0.01574074074074074]"	"[-0.3712962962962963, -0.3712962962962963, -0.3712962962962963, -0.3712962962962963, -0.3712962962962963, -0.3712962962962963, -0.3712962962962963, -0.3712962962962963, -0.3712962962962963, -0.3712962962962963, -0.3712962962962963, -0.3712962962962963, -0.3712962962962963, -0.3712962962962963, -0.3712962962962963, -0.3712962962962963, -0.3712962962962963, -0.3712962962962963, -0.3712962962962963, -0.3712962962962963, -0.3712962962962963, -0.225]"	"[1, 1, 1, 1, 1, 1, 1, 1, 1, 1, 1, 1, 1, 1, 1, 1, 1, 1, 1, 1, 1, 0]"	"[0, 0, 0, 0, 0, 0, 0, 0, 0, 0, 0, 0, 0, 0, 0, 0, 0, 0, 0, 0, 0, 0]"	"[0, 0, 0, 0, 0, 0, 0, 0, 0, 0, 0, 0, 0, 0, 0, 0, 0, 0, 0, 0, 0, 1]"	"[0.5836925000003248, 0.7505478999992192, 0.9256272999991779, 1.1005647999991197, 1.2755684000003384, 1.451720100001694, 1.6254636000012397, 1.8170909000000393, 2.00043899999946, 2.200427600000694, 2.38382780000029, 2.57562820000021, 2.750658900000417, 2.9506943999986106, 3.1423718000005465, 3.3340045000004466, 3.525694799998746, 3.7173694999983127, 3.934141300000192, 4.309270999998262, 4.592285800001264, 5.467552099999011]"	21	"[0.580389800001285, 0.7472226999998384, 0.9223068999999668, 1.0972398999983852, 1.2722444999999425, 1.4486838999982865, 1.6221388999983901, 1.81376249999812, 1.9971131999991485, 2.197105200000806, 2.380503899999894, 2.57230730000083, 2.74733919999926, 2.9473703000003297, 3.1390475000007427, 3.3306783999978506, 3.5223676999994495, 3.7140474999978323, 3.93081710000115, 4.305950599999051, 4.588958399999683]"	"[0.6718526000004204, 0.8469397999979265, 1.0304049000005762, 1.1803269999982149, 1.371922899998026, 1.5552480000005744, 1.730268299997988, 1.9136111999978311, 2.1052946999989217, 2.2969640999981493, 2.480328699999518, 2.672043399998074, 2.8638682999990124, 3.047026000000187, 3.2472731999987445, 3.438727000000654, 3.638724500000535, 3.8304167999995116, 4.055532599999424, 4.422139499998593, 4.672137999998085]"	147.562759100001	147.568354900002	149.0602306	149.068372199999	NA	NA	NA	NA	NA	NA	NA	18	"02"	"2024-02-08_15h16.52.108"	"BART_exp"	"2023.2.3"	119.972406349419	"2024-02-08 15h17.01.480456 +0100"	NA
"balloon.png"	101	0	5	5	23	149.068372199999	NA	NA	NA	NA	NA	NA	NA	NA	NA	NA	NA	NA	149.060406299999	149.068372199999	149.068372199999	149.068372199999	149.068372199999	149.068372199999	0.00567239999872981	0.00567239999872981	0.00567239999872981	149.068372199999	154.5289963	19	0.95	FALSE	"[-0.03333333333333333, -0.03333333333333333, -0.03333333333333333, -0.03333333333333333, -0.03333333333333333, -0.03333333333333333, -0.03333333333333333, -0.03333333333333333, -0.03333333333333333, -0.03333333333333333, -0.03333333333333333, -0.03333333333333333, -0.03333333333333333, -0.03333333333333333, -0.03333333333333333, -0.03333333333333333, -0.03333333333333333, -0.03333333333333333, -0.03333333333333333, -0.03425925925925926]"	"[-0.39444444444444443, -0.39444444444444443, -0.39444444444444443, -0.39444444444444443, -0.39444444444444443, -0.39444444444444443, -0.39444444444444443, -0.39444444444444443, -0.39444444444444443, -0.39444444444444443, -0.39444444444444443, -0.39444444444444443, -0.39444444444444443, -0.39444444444444443, -0.39444444444444443, -0.39444444444444443, -0.39444444444444443, -0.39444444444444443, -0.39444444444444443, -0.2740740740740741]"	"[1, 1, 1, 1, 1, 1, 1, 1, 1, 1, 1, 1, 1, 1, 1, 1, 1, 1, 1, 0]"	"[0, 0, 0, 0, 0, 0, 0, 0, 0, 0, 0, 0, 0, 0, 0, 0, 0, 0, 0, 0]"	"[0, 0, 0, 0, 0, 0, 0, 0, 0, 0, 0, 0, 0, 0, 0, 0, 0, 0, 0, 1]"	"[0.30884320000041043, 0.4836883999996644, 0.6754499999988184, 0.8503729000003659, 1.0253541999991285, 1.225503400000889, 1.4087435000001278, 1.5922251000010874, 1.767260399999941, 1.9506017999992764, 2.1506078999991587, 2.350646200000483, 2.550674499998422, 2.7674960999975156, 3.0255361999988963, 3.4505347999984224, 3.975845599998138, 4.4839284000008774, 4.7507885999984865, 5.467668199999025]"	19	"[0.3070039000012912, 0.4818492000013066, 0.6736072999992757, 0.8485276999999769, 1.0235076999997545, 1.2236660000016855, 1.4069025999997393, 1.5903867999986687, 1.7654140000013285, 1.9487601000000723, 2.1487635000012233, 2.3488053000000946, 2.5488384000018414, 2.7656513000001723, 3.023698199998762, 3.448694599999726, 3.9740090999985114, 4.482081400001334, 4.748947200001567]"	"[0.373317000001407, 0.565056800001912, 0.7400052000011783, 0.9233520999987377, 1.123366799998621, 1.3234431000018958, 1.5073416000013822, 1.6900857000000542, 1.8818305999993754, 2.0651292000002286, 2.256784199998947, 2.448484100001224, 2.648492399999668, 2.8820118000003276, 3.1486261999998533, 3.548589300000458, 4.073761399999057, 4.581956599999103, 4.873652800000855]"	154.529952200002	154.535430899999	156.027490500001	156.035534099999	NA	NA	NA	NA	NA	NA	NA	18	"02"	"2024-02-08_15h16.52.108"	"BART_exp"	"2023.2.3"	119.972406349419	"2024-02-08 15h17.01.480456 +0100"	NA
"balloon.png"	110	0	6	6	25	156.035534099999	NA	NA	NA	NA	NA	NA	NA	NA	NA	NA	NA	NA	156.0276663	156.035534099999	156.035534099999	156.035534099999	156.035534099999	156.035534099999	0.00564519999898038	0.00564519999898038	0.00564519999898038	156.035534099999	160.787700000001	20	1	FALSE	"[-0.026851851851851852, -0.026851851851851852, -0.026851851851851852, -0.026851851851851852, -0.026851851851851852, -0.026851851851851852, -0.026851851851851852, -0.026851851851851852, -0.026851851851851852, -0.026851851851851852, -0.026851851851851852, -0.026851851851851852, -0.026851851851851852, -0.026851851851851852, -0.026851851851851852, -0.026851851851851852, -0.026851851851851852, -0.026851851851851852, -0.026851851851851852, -0.026851851851851852, -0.03333333333333333]"	"[-0.387037037037037, -0.387037037037037, -0.387037037037037, -0.387037037037037, -0.387037037037037, -0.387037037037037, -0.387037037037037, -0.387037037037037, -0.387037037037037, -0.387037037037037, -0.387037037037037, -0.387037037037037, -0.387037037037037, -0.387037037037037, -0.387037037037037, -0.387037037037037, -0.387037037037037, -0.387037037037037, -0.387037037037037, -0.387037037037037, -0.19814814814814816]"	"[1, 1, 1, 1, 1, 1, 1, 1, 1, 1, 1, 1, 1, 1, 1, 1, 1, 1, 1, 1, 0]"	"[0, 0, 0, 0, 0, 0, 0, 0, 0, 0, 0, 0, 0, 0, 0, 0, 0, 0, 0, 0, 0]"	"[0, 0, 0, 0, 0, 0, 0, 0, 0, 0, 0, 0, 0, 0, 0, 0, 0, 0, 0, 0, 1]"	"[0.29190790000211564, 0.46692090000215103, 0.6585648000000219, 0.8502517000015359, 1.0252495999993698, 1.2004170000000158, 1.4004649000016798, 1.600451800000883, 1.7839249999997264, 1.9755745000002207, 2.200519099998928, 2.4255216999990807, 2.6253906000019924, 2.8172760999987077, 3.0254497999994783, 3.2172314999988885, 3.417304200000217, 3.5854437999987567, 3.775686400000268, 4.225474800001393, 4.759122200001002]"	20	"[0.2900627000017266, 0.4650602000001527, 0.656713899999886, 0.8483946999986074, 1.0233977999996569, 1.1985635999990336, 1.3986038000002736, 1.5985999000004085, 1.7820747000005213, 1.9737198000002536, 2.198661800000991, 2.4236683000017365, 2.623536499999318, 2.815423299998656, 3.023597899999004, 3.215371700000105, 3.4154596000007587, 3.583755600000586, 3.7738360000003013, 4.22362079999948]"	"[0.3648456000009901, 0.5732064000003447, 0.7567087999996147, 0.9400765999998839, 1.1232362000009743, 1.298254099998303, 1.5071185999986483, 1.698308499999257, 1.8816358000003675, 2.0983607999987726, 2.3233618999984174, 2.5233767999998236, 2.7317685000016354, 2.9234001000004355, 3.115096599998651, 3.30681259999983, 3.498613799998566, 3.6817898000008427, 3.8817697999984375, 4.298471199999767]"	160.788714900002	160.794219700001	162.286173799999	162.302654499999	NA	NA	NA	NA	NA	NA	NA	18	"02"	"2024-02-08_15h16.52.108"	"BART_exp"	"2023.2.3"	119.972406349419	"2024-02-08 15h17.01.480456 +0100"	NA
"balloon.png"	66	0	7	7	15	162.302654499999	NA	NA	NA	NA	NA	NA	NA	NA	NA	NA	NA	NA	162.2863531	162.302654499999	162.302654499999	162.302654499999	162.302654499999	162.302654499999	0.0140055000010761	0.0140055000010761	0.0140055000010761	162.302654499999	168.0213382	20	1	FALSE	"[-0.026851851851851852, -0.027777777777777776, -0.027777777777777776, -0.027777777777777776, -0.027777777777777776, -0.027777777777777776, -0.027777777777777776, -0.027777777777777776, -0.027777777777777776, -0.027777777777777776, -0.027777777777777776, -0.027777777777777776, -0.027777777777777776, -0.027777777777777776, -0.027777777777777776, -0.027777777777777776, -0.027777777777777776, -0.027777777777777776, -0.027777777777777776, -0.027777777777777776, -0.03888888888888889]"	"[-0.37222222222222223, -0.37222222222222223, -0.37222222222222223, -0.37222222222222223, -0.37222222222222223, -0.37222222222222223, -0.37222222222222223, -0.37222222222222223, -0.37222222222222223, -0.37222222222222223, -0.37222222222222223, -0.37222222222222223, -0.37222222222222223, -0.37222222222222223, -0.37222222222222223, -0.37222222222222223, -0.37222222222222223, -0.37222222222222223, -0.37222222222222223, -0.37222222222222223, -0.2074074074074074]"	"[1, 1, 1, 1, 1, 1, 1, 1, 1, 1, 1, 1, 1, 1, 1, 1, 1, 1, 1, 1, 0]"	"[0, 0, 0, 0, 0, 0, 0, 0, 0, 0, 0, 0, 0, 0, 0, 0, 0, 0, 0, 0, 0]"	"[0, 0, 0, 0, 0, 0, 0, 0, 0, 0, 0, 0, 0, 0, 0, 0, 0, 0, 0, 0, 1]"	"[0.4755148999975063, 0.5836733999967691, 0.717329899998731, 0.8838523999984318, 1.050568499998917, 1.2339384999977483, 1.4087669999971695, 1.6003708999996888, 2.000427999999374, 2.3518272999972396, 2.617134399999486, 2.7837945999999647, 2.967306099999405, 3.1588628999998036, 3.5257133999984944, 3.717426899998827, 3.909229499997309, 4.092434299996967, 4.325747899998532, 4.834118299997499, 5.734048399997846]"	20	"[0.47339820000343025, 0.5815572999999858, 0.7152346000002581, 0.8817391000011412, 1.0484524000021338, 1.2318287000016426, 1.4066509000003862, 1.5982487000001129, 1.9983102000005601, 2.3498737000008987, 2.6150107000030403, 2.781676900001912, 2.9651877000032982, 3.156748700002936, 3.5235959000019648, 3.715317200003483, 3.9071091000005254, 4.0903169000011985, 4.323634600001242, 4.831997300003422]"	"[0.5231258000021626, 0.6314214000012726, 0.7981087000007392, 0.973062500001106, 1.1647984000010183, 1.3398199000002933, 1.5064364000027126, 1.7064814000004844, 2.073133300000336, 2.431504300002416, 2.706502500001079, 2.889866900000925, 3.0815548000027775, 3.4316711999999825, 3.648245100001077, 3.814947900002153, 4.01495160000195, 4.206617700001516, 4.440043400001741, 4.9400267000019085]"	168.022284499999	168.028079300002	169.520107200002	169.5364888	NA	NA	NA	NA	NA	NA	NA	18	"02"	"2024-02-08_15h16.52.108"	"BART_exp"	"2023.2.3"	119.972406349419	"2024-02-08 15h17.01.480456 +0100"	NA
"balloon.png"	53	0	8	8	12	169.5364888	NA	NA	NA	NA	NA	NA	NA	NA	NA	NA	NA	NA	169.520288399999	169.5364888	169.5364888	169.5364888	169.5364888	169.5364888	-0.00063249999948311	-0.00063249999948311	-0.00063249999948311	169.5364888	174.621750900002	20	1	FALSE	"[-0.010185185185185186, -0.010185185185185186, -0.010185185185185186, -0.010185185185185186, -0.010185185185185186, -0.010185185185185186, -0.010185185185185186, -0.010185185185185186, -0.010185185185185186, -0.010185185185185186, -0.010185185185185186, -0.010185185185185186, -0.010185185185185186, -0.010185185185185186, -0.010185185185185186, -0.010185185185185186, -0.010185185185185186, -0.010185185185185186, -0.010185185185185186, -0.010185185185185186, -0.010185185185185186]"	"[-0.37962962962962965, -0.37962962962962965, -0.37962962962962965, -0.37962962962962965, -0.37962962962962965, -0.37962962962962965, -0.37962962962962965, -0.37962962962962965, -0.37962962962962965, -0.37962962962962965, -0.37962962962962965, -0.37962962962962965, -0.37962962962962965, -0.37962962962962965, -0.37962962962962965, -0.37962962962962965, -0.37962962962962965, -0.37962962962962965, -0.37962962962962965, -0.37962962962962965, -0.22592592592592592]"	"[1, 1, 1, 1, 1, 1, 1, 1, 1, 1, 1, 1, 1, 1, 1, 1, 1, 1, 1, 1, 0]"	"[0, 0, 0, 0, 0, 0, 0, 0, 0, 0, 0, 0, 0, 0, 0, 0, 0, 0, 0, 0, 0]"	"[0, 0, 0, 0, 0, 0, 0, 0, 0, 0, 0, 0, 0, 0, 0, 0, 0, 0, 0, 0, 1]"	"[0.5086078999993333, 0.6919087000023865, 0.9168959000016912, 1.175245400001586, 1.3586002000010922, 1.550296100002015, 1.7336261999989802, 1.9170156000000134, 2.1086681000015233, 2.3170152000020607, 2.508767800001806, 2.6838993999990635, 2.858973700000206, 3.0421984999993583, 3.217253700000583, 3.4506671000017377, 3.66723660000207, 3.8589269000003696, 4.058957000001101, 4.5254752000000735, 5.100534299999708]"	20	"[0.5025524000011501, 0.6858576000013272, 0.9108343000007153, 1.169188399999257, 1.3525364999986778, 1.5442341000016313, 1.7275673000003735, 1.910958500000561, 2.1026074000001245, 2.310958499998378, 2.502708200001507, 2.677844099998765, 2.852918500000669, 3.0361363000010897, 3.2111893000001146, 3.4446122000008472, 3.661192799998389, 3.8528665999983787, 4.052900200000295, 4.51941319999969]"	"[0.6023410000016156, 0.8106995000016468, 1.0523978999990504, 1.244066399998701, 1.4524180000007618, 1.6441998000009335, 1.8357877000016742, 2.019087699998636, 2.202441800000088, 2.419119199999841, 2.602473999999347, 2.777473400001327, 2.960836099999142, 3.1441721000010148, 3.3442642000009073, 3.560889899999893, 3.7609443000001193, 3.9692337999986194, 4.177809500000876, 4.602625300001819]"	174.622678800002	174.628557100001	176.120491400001	176.1369715	NA	NA	NA	NA	NA	NA	NA	18	"02"	"2024-02-08_15h16.52.108"	"BART_exp"	"2023.2.3"	119.972406349419	"2024-02-08 15h17.01.480456 +0100"	NA
"balloon.png"	23	0	9	9	5	176.1369715	NA	NA	NA	NA	NA	NA	NA	NA	NA	NA	NA	NA	176.120675800001	176.1369715	176.1369715	176.1369715	176.1369715	176.1369715	-0.0007512999982282	-0.0007512999982282	-0.0007512999982282	176.1369715	181.747408400002	20	1	FALSE	"[0.0, 0.0, 0.0, 0.0, 0.0, 0.0, 0.0, 0.0, 0.0, 0.0, 0.0, 0.0, 0.0, 0.0, 0.0, 0.0, 0.0, 0.0, 0.0, 0.0, -0.004629629629629629]"	"[-0.37407407407407406, -0.37407407407407406, -0.37407407407407406, -0.37407407407407406, -0.37407407407407406, -0.37407407407407406, -0.37407407407407406, -0.37407407407407406, -0.37407407407407406, -0.37407407407407406, -0.37407407407407406, -0.37407407407407406, -0.37407407407407406, -0.37407407407407406, -0.37407407407407406, -0.37407407407407406, -0.37407407407407406, -0.37407407407407406, -0.37407407407407406, -0.37407407407407406, -0.18888888888888888]"	"[1, 1, 1, 1, 1, 1, 1, 1, 1, 1, 1, 1, 1, 1, 1, 1, 1, 1, 1, 1, 0]"	"[0, 0, 0, 0, 0, 0, 0, 0, 0, 0, 0, 0, 0, 0, 0, 0, 0, 0, 0, 0, 0]"	"[0, 0, 0, 0, 0, 0, 0, 0, 0, 0, 0, 0, 0, 0, 0, 0, 0, 0, 0, 0, 1]"	"[0.7253385000003618, 0.8933113999992202, 1.1088185000007797, 1.3088992000011785, 1.5004456999995455, 1.6837111999993795, 1.8755717999993067, 2.050591800001712, 2.250654700001178, 2.467366900000343, 2.642266599999857, 2.842305699999997, 3.0423085000002175, 3.4089867000002414, 3.5922963000011805, 3.8006744000012986, 4.050747699999192, 4.275778899998841, 4.567382400000497, 5.042474599998968, 5.625806000000011]"	20	"[0.7196605999997701, 0.8877923999971244, 1.1031368000003567, 1.3032409999977972, 1.4947710999986157, 1.6780276999998023, 1.8699058999991394, 2.0449168999984977, 2.2449799999994866, 2.461697799997637, 2.636590599999181, 2.83663759999763, 3.036635500000557, 3.4033115999991423, 3.58661999999822, 3.794992799997999, 4.045070599997416, 4.270105399999011, 4.561702699997113, 5.036797199998546]"	"[0.8111379999972996, 0.9945296999976563, 1.2028452999984438, 1.3945390999979281, 1.594582999998238, 1.7778680999981589, 1.9529073999983666, 2.1529043999980786, 2.3446822999976575, 2.544587500000489, 2.7529589000005217, 2.9446309999984805, 3.1363050999971165, 3.5196603999975196, 3.7030214999977034, 3.9113923000004434, 4.153022899998177, 4.361387599998125, 4.678156800000579, 5.136452899998403]"	181.7483698	181.754008	183.245972799999	183.262487	NA	NA	NA	NA	NA	NA	NA	18	"02"	"2024-02-08_15h16.52.108"	"BART_exp"	"2023.2.3"	119.972406349419	"2024-02-08 15h17.01.480456 +0100"	NA
"balloon.png"	127	0	10	10	29	183.262487	NA	NA	NA	NA	NA	NA	NA	NA	NA	NA	NA	NA	183.246143700002	183.262487	183.262487	183.262487	183.262487	183.262487	-0.00098179999986314	-0.00098179999986314	-0.00098179999986314	183.262487	188.931264999999	20	1	FALSE	"[-0.011111111111111112, -0.011111111111111112, -0.011111111111111112, -0.011111111111111112, -0.011111111111111112, -0.011111111111111112, -0.011111111111111112, -0.011111111111111112, -0.011111111111111112, -0.011111111111111112, -0.011111111111111112, -0.011111111111111112, -0.011111111111111112, -0.011111111111111112, -0.011111111111111112, -0.011111111111111112, -0.011111111111111112, -0.011111111111111112, -0.011111111111111112, -0.011111111111111112, -0.026851851851851852]"	"[-0.37037037037037035, -0.37037037037037035, -0.37037037037037035, -0.37037037037037035, -0.37037037037037035, -0.37037037037037035, -0.37037037037037035, -0.37037037037037035, -0.37037037037037035, -0.37037037037037035, -0.37037037037037035, -0.37037037037037035, -0.37037037037037035, -0.37037037037037035, -0.37037037037037035, -0.37037037037037035, -0.37037037037037035, -0.37037037037037035, -0.37037037037037035, -0.37037037037037035, -0.2212962962962963]"	"[1, 1, 1, 1, 1, 1, 1, 1, 1, 1, 1, 1, 1, 1, 1, 1, 1, 1, 1, 1, 0]"	"[0, 0, 0, 0, 0, 0, 0, 0, 0, 0, 0, 0, 0, 0, 0, 0, 0, 0, 0, 0, 0]"	"[0, 0, 0, 0, 0, 0, 0, 0, 0, 0, 0, 0, 0, 0, 0, 0, 0, 0, 0, 0, 1]"	"[0.43398380000144243, 0.6003866000028211, 0.8840092999998888, 1.0839405000006082, 1.2838838000025135, 1.4839963000013086, 1.6672390999992786, 1.8505929000020842, 2.025620300002629, 2.225461699999869, 2.4088618000023416, 2.6088942999995197, 2.8841437000010046, 3.217192800002522, 3.4172256000019843, 3.7589248000003863, 4.0256169000022055, 4.259103700002015, 4.6424280000028375, 5.008995300002425, 5.684226400000625]"	20	"[0.4236839000004693, 0.5900703000006615, 0.8737008000025526, 1.0736555000003136, 1.2735672000017075, 1.473685299999488, 1.6569223000005877, 1.8402814000000944, 2.015306100001908, 2.2151551999995718, 2.398548600001959, 2.5985814000014216, 2.873831100001553, 3.2068792000027315, 3.4069156000005023, 3.7486098000008496, 4.0153190000019094, 4.248794300001464, 4.632115600001271, 4.998683199999505]"	"[0.5148785000019416, 0.7482342000002973, 0.9982813999995415, 1.2066971000022022, 1.4066015999997035, 1.5982810000023164, 1.7649822000021231, 1.9482972000005248, 2.1316488000011304, 2.3233943000013824, 2.5066860000006272, 2.723496200000227, 3.0317136000012397, 3.3068074000002525, 3.506759300002159, 3.856811200002994, 4.123469000001933, 4.356821600002149, 4.748548600000504, 5.1152503000012075]"	188.932219099999	188.937870100002	190.429876000002	190.446288700001	NA	NA	NA	NA	NA	NA	NA	18	"02"	"2024-02-08_15h16.52.108"	"BART_exp"	"2023.2.3"	119.972406349419	"2024-02-08 15h17.01.480456 +0100"	NA
"balloon.png"	18	0	11	11	4	190.446288700001	NA	NA	NA	NA	NA	NA	NA	NA	NA	NA	NA	NA	190.430162700002	190.446288700001	190.446288700001	190.446288700001	190.446288700001	190.446288700001	-0.00082750000001396	-0.00082750000001396	-0.00082750000001396	190.446288700001	194.641576900001	19	0.9	TRUE	"[0.024074074074074074, 0.024074074074074074, 0.024074074074074074, 0.024074074074074074, 0.024074074074074074, 0.024074074074074074, 0.024074074074074074, 0.024074074074074074, 0.024074074074074074, 0.024074074074074074, 0.024074074074074074, 0.024074074074074074, 0.024074074074074074, 0.024074074074074074, 0.024074074074074074, 0.024074074074074074, 0.024074074074074074, 0.024074074074074074, 0.024074074074074074]"	"[-0.3888888888888889, -0.3888888888888889, -0.3888888888888889, -0.3888888888888889, -0.3888888888888889, -0.3888888888888889, -0.3888888888888889, -0.3888888888888889, -0.3888888888888889, -0.3888888888888889, -0.3888888888888889, -0.3888888888888889, -0.3888888888888889, -0.3888888888888889, -0.3888888888888889, -0.3888888888888889, -0.3888888888888889, -0.3888888888888889, -0.3888888888888889]"	"[1, 1, 1, 1, 1, 1, 1, 1, 1, 1, 1, 1, 1, 1, 1, 1, 1, 1, 1]"	"[0, 0, 0, 0, 0, 0, 0, 0, 0, 0, 0, 0, 0, 0, 0, 0, 0, 0, 0]"	"[0, 0, 0, 0, 0, 0, 0, 0, 0, 0, 0, 0, 0, 0, 0, 0, 0, 0, 0]"	"[0.6335236000013538, 0.808847500000411, 1.0007977000022947, 1.1835441000002902, 1.3669025000017427, 1.550244300000486, 1.7420849000009184, 1.9337541999993846, 2.1254504999997152, 2.30885500000295, 2.5171652999997605, 2.7088478000005125, 2.9173111000018253, 3.1171770000000834, 3.3171736000003875, 3.5088671000012255, 3.7088829999993322, 3.908902000002854, 4.092269700002362]"	19	"[0.6270425000002433, 0.8025302000023657, 0.9944735000026412, 1.1770530000030703, 1.3604159000024083, 1.5437599000033515, 1.7356026000015845, 1.927266700000473, 2.1189660000018193, 2.302368500000739, 2.510676500001864, 2.7023633000026166, 2.9108214000007138, 3.110688900000241, 3.3106862000022375, 3.502385100000538, 3.7023932000010973, 3.9024121000002197, 4.085788100001082]"	"[0.7020391000005475, 0.8935552000002644, 1.0769148000035784, 1.268574500001705, 1.4602513000027102, 1.6354369000000588, 1.8352690000028815, 2.0353268000035314, 2.218668000001344, 2.3936618000007, 2.6019926000008127, 2.810359100003552, 2.9938548000027367, 3.202127400003519, 3.4187423000003037, 3.618731200000184, 3.810421200003475, 4.0187833000018145, 4.19386580000355]"	194.642448000002	194.6549849	196.146732500001	NA	NA	NA	NA	NA	NA	NA	NA	18	"02"	"2024-02-08_15h16.52.108"	"BART_exp"	"2023.2.3"	119.972406349419	"2024-02-08 15h17.01.480456 +0100"	NA
"balloon.png"	75	0	12	12	17	196.163427399999	NA	NA	NA	NA	NA	NA	NA	NA	NA	NA	NA	NA	196.1469005	196.163427399999	196.163427399999	196.163427399999	196.163427399999	196.163427399999	0.00572570000076666	0.00572570000076666	0.00572570000076666	196.163427399999	201.557100900001	20	1	FALSE	"[0.013888888888888888, 0.013888888888888888, 0.013888888888888888, 0.013888888888888888, 0.013888888888888888, 0.013888888888888888, 0.013888888888888888, 0.013888888888888888, 0.013888888888888888, 0.013888888888888888, 0.013888888888888888, 0.013888888888888888, 0.013888888888888888, 0.013888888888888888, 0.013888888888888888, 0.013888888888888888, 0.013888888888888888, 0.013888888888888888, 0.013888888888888888, 0.013888888888888888, 0.012037037037037037]"	"[-0.3888888888888889, -0.3888888888888889, -0.3888888888888889, -0.3888888888888889, -0.3888888888888889, -0.3888888888888889, -0.3888888888888889, -0.3888888888888889, -0.3888888888888889, -0.3888888888888889, -0.3888888888888889, -0.3888888888888889, -0.3888888888888889, -0.3888888888888889, -0.3888888888888889, -0.3888888888888889, -0.3888888888888889, -0.3888888888888889, -0.3888888888888889, -0.3888888888888889, -0.19814814814814816]"	"[1, 1, 1, 1, 1, 1, 1, 1, 1, 1, 1, 1, 1, 1, 1, 1, 1, 1, 1, 1, 0]"	"[0, 0, 0, 0, 0, 0, 0, 0, 0, 0, 0, 0, 0, 0, 0, 0, 0, 0, 0, 0, 0]"	"[0, 0, 0, 0, 0, 0, 0, 0, 0, 0, 0, 0, 0, 0, 0, 0, 0, 0, 0, 0, 1]"	"[0.7590509000001475, 0.93411350000315, 1.1257242000028782, 1.3260118000034709, 1.51723530000163, 1.6922891000031086, 1.8922656000031566, 2.067279700000654, 2.2506344000030367, 2.4340032000000065, 2.6008185999999114, 2.792537400000583, 2.9925008000027447, 3.1925690000025497, 3.3758862000031513, 3.6008817000001727, 3.8340682000016386, 4.0758308000004035, 4.459273500000563, 4.8010521000032895, 5.409303600001294]"	20	"[0.7494771999990917, 0.9245359999986249, 1.1161409999986063, 1.3164316000002145, 1.5076573000005737, 1.6827080000002752, 1.8826837000015075, 2.0576952999981586, 2.2410568999985117, 2.4244173000006413, 2.5912362999988545, 2.782962500001304, 2.982923799998389, 3.182989400000224, 3.366307799999049, 3.5913000000000466, 3.8244871999995667, 4.066250700001547, 4.4496996000016225, 4.791474800000287]"	"[0.8574397999982466, 1.0409260999986145, 1.199201899999025, 1.390909500001726, 1.5908321999995678, 1.7741998999990756, 1.9575188999988313, 2.1492150999984005, 2.3325612000007823, 2.515899800000625, 2.699253200000385, 2.8909491000013077, 3.0909738000009384, 3.2828402999984974, 3.4909923000013805, 3.6993091000003915, 3.924334799998178, 4.15777099999832, 4.549645800001599, 4.899410699999862]"	201.5579946	201.563732400002	203.055766699999	203.080528099999	NA	NA	NA	NA	NA	NA	NA	18	"02"	"2024-02-08_15h16.52.108"	"BART_exp"	"2023.2.3"	119.972406349419	"2024-02-08 15h17.01.480456 +0100"	NA
"balloon.png"	10	0	13	13	2	203.080528099999	NA	NA	NA	NA	NA	NA	NA	NA	NA	NA	NA	NA	203.0559474	203.080528099999	203.080528099999	203.080528099999	203.080528099999	203.080528099999	-0.00078120000034687	-0.00078120000034687	-0.00078120000034687	203.080528099999	205.365904599999	11	0.5	TRUE	"[0.017592592592592594, 0.017592592592592594, 0.017592592592592594, 0.017592592592592594, 0.017592592592592594, 0.017592592592592594, 0.017592592592592594, 0.017592592592592594, 0.017592592592592594, 0.017592592592592594, 0.017592592592592594]"	"[-0.37962962962962965, -0.37962962962962965, -0.37962962962962965, -0.37962962962962965, -0.37962962962962965, -0.37962962962962965, -0.37962962962962965, -0.37962962962962965, -0.37962962962962965, -0.37962962962962965, -0.37962962962962965]"	"[1, 1, 1, 1, 1, 1, 1, 1, 1, 1, 1]"	"[0, 0, 0, 0, 0, 0, 0, 0, 0, 0, 0]"	"[0, 0, 0, 0, 0, 0, 0, 0, 0, 0, 0]"	"[0.27541070000006584, 0.45043729999815696, 0.6337523000001966, 0.8170885999970778, 1.0170703999974648, 1.2087695999980497, 1.4003105999981926, 1.5919818000002124, 1.8004480999989028, 2.0005368999991333, 2.200351999999839]"	11	"[0.26490019999982906, 0.43992740000248887, 0.6232360000030894, 0.8065678000020853, 1.0065516000031494, 1.1982509000008577, 1.3897899000003235, 1.5814660000032745, 1.7899339000032342, 1.9900247000005038, 2.1898341000014625]"	"[0.3395736000020406, 0.5395831000023463, 0.7312926000013249, 0.9146015000005718, 1.1146773000000394, 1.3063267000034102, 1.49798180000289, 1.698087000000669, 1.9064201000001049, 2.1063491000022623, 2.2897852000023704]"	205.3666252	205.372339199999	206.864321199999	206.880772500001	NA	NA	NA	NA	NA	NA	NA	18	"02"	"2024-02-08_15h16.52.108"	"BART_exp"	"2023.2.3"	119.972406349419	"2024-02-08 15h17.01.480456 +0100"	NA
"balloon.png"	57	0	14	14	13	206.880772500001	NA	NA	NA	NA	NA	NA	NA	NA	NA	NA	NA	NA	206.8645588	206.880772500001	206.880772500001	206.880772500001	206.880772500001	206.880772500001	-0.0007683999974688	-0.0007683999974688	-0.0007683999974688	206.880772500001	212.3412532	20	1	FALSE	"[0.017592592592592594, 0.017592592592592594, 0.017592592592592594, 0.017592592592592594, 0.017592592592592594, 0.017592592592592594, 0.017592592592592594, 0.017592592592592594, 0.017592592592592594, 0.017592592592592594, 0.017592592592592594, 0.017592592592592594, 0.017592592592592594, 0.017592592592592594, 0.017592592592592594, 0.017592592592592594, 0.017592592592592594, 0.017592592592592594, 0.017592592592592594, 0.017592592592592594, 0.004629629629629629]"	"[-0.37962962962962965, -0.37962962962962965, -0.37962962962962965, -0.37962962962962965, -0.37962962962962965, -0.37962962962962965, -0.37962962962962965, -0.37962962962962965, -0.37962962962962965, -0.37962962962962965, -0.37962962962962965, -0.37962962962962965, -0.37962962962962965, -0.37962962962962965, -0.37962962962962965, -0.37962962962962965, -0.37962962962962965, -0.37962962962962965, -0.37962962962962965, -0.37962962962962965, -0.22407407407407406]"	"[1, 1, 1, 1, 1, 1, 1, 1, 1, 1, 1, 1, 1, 1, 1, 1, 1, 1, 1, 1, 0]"	"[0, 0, 0, 0, 0, 0, 0, 0, 0, 0, 0, 0, 0, 0, 0, 0, 0, 0, 0, 0, 0]"	"[0, 0, 0, 0, 0, 0, 0, 0, 0, 0, 0, 0, 0, 0, 0, 0, 0, 0, 0, 0, 1]"	"[0.2670432000013534, 0.47541719999935594, 0.7002471000014339, 0.9336241999990307, 1.225428000001557, 1.5169701000013447, 1.7669764999991457, 1.9670353000001342, 2.1503419000000576, 2.351653699999588, 2.5503712999998243, 2.758745999999519, 2.98387670000011, 3.1838687999988906, 3.3839293000019097, 3.64226939999935, 3.867287299999589, 4.100492500001565, 4.475773800000752, 4.8175004000004265, 5.475780799999484]"	20	"[0.2648860999979661, 0.47326129999783006, 0.6980866999983846, 0.9314637999996194, 1.2232708999981696, 1.51481579999745, 1.7648136999996495, 1.9648746999992, 2.1481856999998854, 2.349659100000281, 2.548209799999313, 2.756586100000277, 2.981723199998669, 3.1817095000005793, 3.381780499999877, 3.6401105000004463, 3.8651296999996703, 4.098332899997331, 4.473617499999818, 4.815339999997377]"	"[0.3896619999977702, 0.6062560999998823, 0.8146455999994942, 1.06473460000052, 1.3479699999988952, 1.6327289000000746, 1.8646593999983452, 2.064717400000518, 2.2564437000000908, 2.456471800000145, 2.6647343000004184, 2.8647266999978456, 3.106447800000751, 3.2980955999992148, 3.514810299999226, 3.7566194999999425, 3.9898119999998016, 4.206495499998709, 4.581537099998968, 4.956572099999903]"	212.342455800001	212.347903500002	213.839847300002	213.847995600001	NA	NA	NA	NA	NA	NA	NA	18	"02"	"2024-02-08_15h16.52.108"	"BART_exp"	"2023.2.3"	119.972406349419	"2024-02-08 15h17.01.480456 +0100"	NA
"balloon.png"	49	0	15	15	11	213.847995600001	NA	NA	NA	NA	NA	NA	NA	NA	NA	NA	NA	NA	213.840031	213.847995600001	213.847995600001	213.847995600001	213.847995600001	213.847995600001	0.00560830000176793	0.00560830000176793	0.00560830000176793	213.847995600001	218.966556899999	20	1	FALSE	"[0.002777777777777778, 0.002777777777777778, 0.002777777777777778, 0.002777777777777778, 0.002777777777777778, 0.002777777777777778, 0.002777777777777778, 0.002777777777777778, 0.002777777777777778, 0.002777777777777778, 0.002777777777777778, 0.002777777777777778, 0.002777777777777778, 0.002777777777777778, 0.002777777777777778, 0.002777777777777778, 0.002777777777777778, 0.002777777777777778, 0.002777777777777778, 0.002777777777777778, -0.005555555555555556]"	"[-0.37037037037037035, -0.37037037037037035, -0.37037037037037035, -0.37037037037037035, -0.37037037037037035, -0.37037037037037035, -0.37037037037037035, -0.37037037037037035, -0.37037037037037035, -0.37037037037037035, -0.37037037037037035, -0.37037037037037035, -0.37037037037037035, -0.37037037037037035, -0.37037037037037035, -0.37037037037037035, -0.37037037037037035, -0.37037037037037035, -0.37037037037037035, -0.37037037037037035, -0.22037037037037038]"	"[1, 1, 1, 1, 1, 1, 1, 1, 1, 1, 1, 1, 1, 1, 1, 1, 1, 1, 1, 1, 0]"	"[0, 0, 0, 0, 0, 0, 0, 0, 0, 0, 0, 0, 0, 0, 0, 0, 0, 0, 0, 0, 0]"	"[0, 0, 0, 0, 0, 0, 0, 0, 0, 0, 0, 0, 0, 0, 0, 0, 0, 0, 0, 0, 1]"	"[0.5252594999983557, 0.7169304999988526, 0.9502753999986453, 1.1420184999988123, 1.317111999996996, 1.5004619999999704, 1.6754848999989918, 1.851029199999175, 2.0505205999979808, 2.301392899997154, 2.4922397999980603, 2.6755465999995067, 2.8672690999992483, 3.0686927999995532, 3.267291899999691, 3.4589987999970617, 3.6438013999977557, 3.8508232999993197, 4.067320999998628, 4.550571599997056, 5.125606099998549]"	20	"[0.5232967000010831, 0.7149701999987883, 0.9483111000008648, 1.1400576000014553, 1.3151514999990468, 1.4984981000015978, 1.6735262000001967, 1.8490884999991977, 2.0485613999990164, 2.299607199998718, 2.4902786999991804, 2.673581800001557, 2.8653101999989303, 3.0668898000003537, 3.265326400000049, 3.45703439999852, 3.642016900001181, 3.84885740000027, 4.065361500001018, 4.548609699999361]"	"[0.6314880999998422, 0.8231722000018635, 1.0481609999987995, 1.2399328999999852, 1.4148566000003484, 1.5982188999987557, 1.781550600000628, 1.9649434999992081, 2.2065894000006665, 2.3983049999987998, 2.5899669999998878, 2.7732714999983727, 2.9733225000018138, 3.173313800001779, 3.381747200000973, 3.5651180999993812, 3.765062200000102, 3.9650244000004022, 4.206722599999921, 4.665067699999781]"	218.967551900001	218.9732965	220.465285500002	220.490107000001	NA	NA	NA	NA	NA	NA	NA	18	"02"	"2024-02-08_15h16.52.108"	"BART_exp"	"2023.2.3"	119.972406349419	"2024-02-08 15h17.01.480456 +0100"	NA
"balloon.png"	62	0	16	16	14	220.490107000001	NA	NA	NA	NA	NA	NA	NA	NA	NA	NA	NA	NA	220.465460800002	220.490107000001	220.490107000001	220.490107000001	220.490107000001	220.490107000001	-0.00084199999764678	-0.00084199999764678	-0.00084199999764678	220.490107000001	225.533718800001	20	1	FALSE	"[-0.05277777777777778, -0.05277777777777778, -0.05277777777777778, -0.05277777777777778, -0.05277777777777778, -0.05277777777777778, -0.05277777777777778, -0.05277777777777778, -0.05277777777777778, -0.05277777777777778, -0.05277777777777778, -0.05277777777777778, -0.05277777777777778, -0.05277777777777778, -0.05277777777777778, -0.05277777777777778, -0.05277777777777778, -0.05277777777777778, -0.05277777777777778, -0.05277777777777778, -0.0712962962962963]"	"[-0.39537037037037037, -0.39537037037037037, -0.39537037037037037, -0.39537037037037037, -0.39537037037037037, -0.39537037037037037, -0.39537037037037037, -0.39537037037037037, -0.39537037037037037, -0.39537037037037037, -0.39537037037037037, -0.39537037037037037, -0.39537037037037037, -0.39537037037037037, -0.39537037037037037, -0.39537037037037037, -0.39537037037037037, -0.39537037037037037, -0.39537037037037037, -0.39537037037037037, -0.20925925925925926]"	"[1, 1, 1, 1, 1, 1, 1, 1, 1, 1, 1, 1, 1, 1, 1, 1, 1, 1, 1, 1, 0]"	"[0, 0, 0, 0, 0, 0, 0, 0, 0, 0, 0, 0, 0, 0, 0, 0, 0, 0, 0, 0, 0]"	"[0, 0, 0, 0, 0, 0, 0, 0, 0, 0, 0, 0, 0, 0, 0, 0, 0, 0, 0, 0, 1]"	"[0.4254761999982293, 0.6005369999984396, 0.7838149999988673, 0.975478699998348, 1.1670052999979816, 1.3504307000002882, 1.542122399998334, 1.7337996999995084, 1.9337393999994674, 2.117078899998887, 2.3254662999970606, 2.5171326999989105, 2.6922740999980306, 2.8520613000000594, 3.042397899997013, 3.2341794999993, 3.425761299997248, 3.6340251000001444, 4.158973199999309, 4.442484699997294, 5.067340099998546]"	20	"[0.4146065000022645, 0.589659400000528, 0.7729351000016322, 0.9645964000010281, 1.1561293000013393, 1.3395515000011073, 1.5312477000006766, 1.7229170999999042, 1.9228591000028246, 2.106203999999707, 2.314590500001941, 2.5062553999996453, 2.681398900000204, 2.841460499999812, 3.031518400002824, 3.2233026000030804, 3.4148851000027207, 3.6231514000028255, 4.148098800000298, 4.431610999999975]"	"[0.505935799999861, 0.6893068999997922, 0.8726239999996324, 1.0643057000015688, 1.2477318000019295, 1.4310540000005858, 1.614404400002968, 1.83108859999993, 2.0310396000022592, 2.2147935000029975, 2.414407200001733, 2.6227474000006623, 2.7645618000024115, 2.9311747000028845, 3.1477941000011924, 3.3228158000019903, 3.531241000000591, 3.747877800000424, 4.2645651000020735, 4.556263400001626]"	225.534652400002	225.540417700002	227.0323828	227.048863600001	NA	NA	NA	NA	NA	NA	NA	18	"02"	"2024-02-08_15h16.52.108"	"BART_exp"	"2023.2.3"	119.972406349419	"2024-02-08 15h17.01.480456 +0100"	NA
"balloon.png"	105	0	17	17	24	227.048863600001	NA	NA	NA	NA	NA	NA	NA	NA	NA	NA	NA	NA	227.032559400002	227.048863600001	227.048863600001	227.048863600001	227.048863600001	227.048863600001	-0.00084229999993112	-0.00084229999993112	-0.00084229999993112	227.048863600001	232.675975900002	20	1	FALSE	"[-0.032407407407407406, -0.032407407407407406, -0.032407407407407406, -0.032407407407407406, -0.032407407407407406, -0.032407407407407406, -0.032407407407407406, -0.032407407407407406, -0.032407407407407406, -0.032407407407407406, -0.032407407407407406, -0.032407407407407406, -0.032407407407407406, -0.032407407407407406, -0.032407407407407406, -0.032407407407407406, -0.032407407407407406, -0.032407407407407406, -0.032407407407407406, -0.032407407407407406, -0.05925925925925926]"	"[-0.37592592592592594, -0.37592592592592594, -0.37592592592592594, -0.37592592592592594, -0.37592592592592594, -0.37592592592592594, -0.37592592592592594, -0.37592592592592594, -0.37592592592592594, -0.37592592592592594, -0.37592592592592594, -0.37592592592592594, -0.37592592592592594, -0.37592592592592594, -0.37592592592592594, -0.37592592592592594, -0.37592592592592594, -0.37592592592592594, -0.37592592592592594, -0.37592592592592594, -0.13055555555555556]"	"[1, 1, 1, 1, 1, 1, 1, 1, 1, 1, 1, 1, 1, 1, 1, 1, 1, 1, 1, 1, 0]"	"[0, 0, 0, 0, 0, 0, 0, 0, 0, 0, 0, 0, 0, 0, 0, 0, 0, 0, 0, 0, 0]"	"[0, 0, 0, 0, 0, 0, 0, 0, 0, 0, 0, 0, 0, 0, 0, 0, 0, 0, 0, 0, 1]"	"[0.7587773999985075, 0.9420324999991863, 1.1670389999999315, 1.4338740999992297, 1.6091099999975995, 1.808954599997378, 1.99234019999858, 2.1839011999982176, 2.3671787999992375, 2.550485399999161, 2.733838799998921, 2.9338231999972777, 3.1338710999989416, 3.308886999999231, 3.5171930999968026, 3.725582099999883, 3.942245799997181, 4.209094699999696, 4.609100699999544, 4.959114799999952, 5.642506099997263]"	20	"[0.7546617000007245, 0.9379220000009809, 1.1629251000013028, 1.4297614999995858, 1.604992399999901, 1.804839100001118, 1.988228700000036, 2.1797862999992503, 2.363061399999424, 2.546372799999517, 2.729724900000292, 2.9297053000009328, 3.1297546999994665, 3.3047718000016175, 3.513073900001473, 3.7214630999988003, 3.938131599999906, 4.204977599998529, 4.604987099999562, 4.954998400000477]"	"[0.8544055999991542, 1.029444899999362, 1.2127823999981047, 1.5127777000016067, 1.7211408000002848, 1.929535200000828, 2.0961629999983415, 2.2878807999986748, 2.4629437000003236, 2.6546740000012505, 2.84631520000039, 3.037889399998676, 3.238015999999334, 3.412929599999188, 3.61306870000044, 3.829663900000014, 4.071350700000039, 4.321338699999615, 4.7213967999996385, 5.063047499999811]"	232.676873100001	232.682621300002	234.174582800002	234.199368900001	NA	NA	NA	NA	NA	NA	NA	18	"02"	"2024-02-08_15h16.52.108"	"BART_exp"	"2023.2.3"	119.972406349419	"2024-02-08 15h17.01.480456 +0100"	NA
"balloon.png"	114	0	18	18	26	234.199368900001	NA	NA	NA	NA	NA	NA	NA	NA	NA	NA	NA	NA	234.1747569	234.199368900001	234.199368900001	234.199368900001	234.199368900001	234.199368900001	-0.0008336999999301	-0.0008336999999301	-0.0008336999999301	234.199368900001	240.368079399999	20	1	FALSE	"[-0.024074074074074074, -0.027777777777777776, -0.027777777777777776, -0.027777777777777776, -0.027777777777777776, -0.027777777777777776, -0.027777777777777776, -0.027777777777777776, -0.027777777777777776, -0.027777777777777776, -0.027777777777777776, -0.027777777777777776, -0.027777777777777776, -0.027777777777777776, -0.027777777777777776, -0.027777777777777776, -0.027777777777777776, -0.027777777777777776, -0.027777777777777776, -0.027777777777777776, -0.046296296296296294]"	"[-0.3768518518518518, -0.37777777777777777, -0.37777777777777777, -0.37777777777777777, -0.37777777777777777, -0.37777777777777777, -0.37777777777777777, -0.37777777777777777, -0.37777777777777777, -0.37777777777777777, -0.37777777777777777, -0.37777777777777777, -0.37777777777777777, -0.37777777777777777, -0.37777777777777777, -0.37777777777777777, -0.37777777777777777, -0.37777777777777777, -0.37777777777777777, -0.37777777777777777, -0.1787037037037037]"	"[1, 1, 1, 1, 1, 1, 1, 1, 1, 1, 1, 1, 1, 1, 1, 1, 1, 1, 1, 1, 0]"	"[0, 0, 0, 0, 0, 0, 0, 0, 0, 0, 0, 0, 0, 0, 0, 0, 0, 0, 0, 0, 0]"	"[0, 0, 0, 0, 0, 0, 0, 0, 0, 0, 0, 0, 0, 0, 0, 0, 0, 0, 0, 0, 1]"	"[1.5421787000013865, 1.7088977999992494, 1.900572700000339, 2.083985600002052, 2.2505780999999843, 2.442203700000391, 2.625644800002192, 2.808838299999479, 3.0087759000016376, 3.2171168999993824, 3.417123499999434, 3.634002999999211, 3.8423822000004293, 4.025635599999077, 4.208857100002206, 4.477194099999906, 4.710695800000394, 4.909097899999324, 5.142393100002664, 5.542422300000908, 6.192381600001681]"	20	"[1.5301170000020647, 1.6968334000011964, 1.8885119000005943, 2.0719156000013754, 2.238514300002862, 2.430141900000308, 2.613584400001855, 2.7967676000007486, 2.9967114999999467, 3.2050626000018383, 3.4050526000028185, 3.6219384000032733, 3.830325700000685, 4.01356620000297, 4.1967900000017835, 4.465287900002295, 4.698811100002786, 4.897029900002963, 5.130330800002412, 5.530355900002178]"	"[1.5882885999999417, 1.8049164000003657, 1.9798965000009048, 2.15491650000331, 2.3382025999999314, 2.513207900003181, 2.7215475000011793, 2.921582300001319, 3.1132724000017333, 3.3132712000005995, 3.5049176000029547, 3.7299438000009104, 3.929956800002401, 4.121697100003075, 4.321750400002202, 4.571751999999833, 4.796754200000578, 5.005167500003154, 5.238413400002173, 5.638612900002045]"	240.369010900002	240.374794800002	241.866813299999	241.8832459	NA	NA	NA	NA	NA	NA	NA	18	"02"	"2024-02-08_15h16.52.108"	"BART_exp"	"2023.2.3"	119.972406349419	"2024-02-08 15h17.01.480456 +0100"	NA
"balloon.png"	27	0	19	19	6	241.8832459	NA	NA	NA	NA	NA	NA	NA	NA	NA	NA	NA	NA	241.866996700002	241.8832459	241.8832459	241.8832459	241.8832459	241.8832459	-0.000657600001432	-0.000657600001432	-0.000657600001432	241.8832459	247.0353392	20	1	FALSE	"[-0.026851851851851852, -0.026851851851851852, -0.026851851851851852, -0.026851851851851852, -0.026851851851851852, -0.026851851851851852, -0.026851851851851852, -0.026851851851851852, -0.026851851851851852, -0.026851851851851852, -0.026851851851851852, -0.026851851851851852, -0.026851851851851852, -0.026851851851851852, -0.026851851851851852, -0.026851851851851852, -0.026851851851851852, -0.026851851851851852, -0.026851851851851852, -0.026851851851851852, -0.03425925925925926]"	"[-0.36944444444444446, -0.36944444444444446, -0.36944444444444446, -0.36944444444444446, -0.36944444444444446, -0.36944444444444446, -0.36944444444444446, -0.36944444444444446, -0.36944444444444446, -0.36944444444444446, -0.36944444444444446, -0.36944444444444446, -0.36944444444444446, -0.36944444444444446, -0.36944444444444446, -0.36944444444444446, -0.36944444444444446, -0.36944444444444446, -0.36944444444444446, -0.36944444444444446, -0.2]"	"[1, 1, 1, 1, 1, 1, 1, 1, 1, 1, 1, 1, 1, 1, 1, 1, 1, 1, 1, 1, 0]"	"[0, 0, 0, 0, 0, 0, 0, 0, 0, 0, 0, 0, 0, 0, 0, 0, 0, 0, 0, 0, 0]"	"[0, 0, 0, 0, 0, 0, 0, 0, 0, 0, 0, 0, 0, 0, 0, 0, 0, 0, 0, 0, 1]"	"[0.5086230000015348, 0.6919216999995115, 0.8752759999988484, 1.0421420999991824, 1.233641599999828, 1.4337950000008277, 1.625480200000311, 1.800526399998489, 2.025514500001009, 2.233851599998161, 2.4257641000003787, 2.625577599999815, 2.8254311999990023, 3.0172891000001982, 3.200630100000126, 3.4005950999999186, 3.617222299999412, 3.858851799999684, 4.184015899998485, 4.542327300001489, 5.1674272999989626]"	20	"[0.49886309999783407, 0.6821571000000404, 0.8655134999971779, 1.0323842999969202, 1.223880300000019, 1.4240280999983952, 1.6157212999969488, 1.7907600999969873, 2.0157542999986617, 2.2240879999990284, 2.4159990999978618, 2.6158108999989054, 2.8156749999980093, 3.0075254999974277, 3.190868199999386, 3.3908355999992636, 3.6074654999974882, 3.8490884999991977, 4.1742533999968146, 4.532562999997026]"	"[0.5905492999991111, 0.782032999999501, 0.9570654999988619, 1.140401099997689, 1.3237289999997301, 1.515527799998381, 1.7154233999972348, 1.9071059999987483, 2.123803799997404, 2.2988256999997247, 2.5154681999993045, 2.7238160999986576, 2.9071692999968946, 3.1155479999979434, 3.307179899999028, 3.5073288999992656, 3.723882499998581, 3.949009699997987, 4.248925199997757, 4.648938799997268]"	247.036261199999	247.041977200002	248.5339418	248.5503723	NA	NA	NA	NA	NA	NA	NA	18	"02"	"2024-02-08_15h16.52.108"	"BART_exp"	"2023.2.3"	119.972406349419	"2024-02-08 15h17.01.480456 +0100"	NA
"balloon.png"	97	0	20	20	22	248.5503723	NA	NA	NA	NA	NA	NA	NA	NA	NA	NA	NA	NA	248.534125099999	248.5503723	248.5503723	248.5503723	248.5503723	248.5503723	-0.00077460000102291	-0.00077460000102291	-0.00077460000102291	248.5503723	253.352247700001	20	1	FALSE	"[-0.03611111111111111, -0.03611111111111111, -0.03611111111111111, -0.03611111111111111, -0.03611111111111111, -0.03611111111111111, -0.03611111111111111, -0.03611111111111111, -0.03611111111111111, -0.03611111111111111, -0.03611111111111111, -0.03611111111111111, -0.03611111111111111, -0.03611111111111111, -0.03611111111111111, -0.03611111111111111, -0.03611111111111111, -0.03611111111111111, -0.03611111111111111, -0.03611111111111111, -0.05]"	"[-0.3592592592592593, -0.3592592592592593, -0.3592592592592593, -0.3592592592592593, -0.3592592592592593, -0.3592592592592593, -0.3592592592592593, -0.3592592592592593, -0.3592592592592593, -0.3592592592592593, -0.3592592592592593, -0.3592592592592593, -0.3592592592592593, -0.3592592592592593, -0.3592592592592593, -0.3592592592592593, -0.3592592592592593, -0.3592592592592593, -0.3592592592592593, -0.3592592592592593, -0.19074074074074074]"	"[1, 1, 1, 1, 1, 1, 1, 1, 1, 1, 1, 1, 1, 1, 1, 1, 1, 1, 1, 1, 0]"	"[0, 0, 0, 0, 0, 0, 0, 0, 0, 0, 0, 0, 0, 0, 0, 0, 0, 0, 0, 0, 0]"	"[0, 0, 0, 0, 0, 0, 0, 0, 0, 0, 0, 0, 0, 0, 0, 0, 0, 0, 0, 0, 1]"	"[0.25872789999993984, 0.45872199999939767, 0.6337163000025612, 0.8419271999991906, 1.0101480000012089, 1.1752988000007463, 1.3753252999995311, 1.5837522000001627, 1.7837094999995315, 1.9754850000026636, 2.167041299999255, 2.3588548000006995, 2.5422954999994545, 2.7670997000022908, 2.967281400000502, 3.150613000001613, 3.3506263000017498, 3.5588055000007444, 3.9671488999993016, 4.28402239999923, 4.8172082000019145]"	20	"[0.25642010000228765, 0.4564172000027611, 0.631408500001271, 0.8396148000028916, 1.0080023000009533, 1.1729895999997098, 1.373020600000018, 1.5814519000014116, 1.7813977000005252, 1.9731776000007812, 2.1647271000001638, 2.3565464000021166, 2.5399869000029867, 2.764785999999731, 2.964973699999973, 3.148305700000492, 3.3483139000018127, 3.5564945000005537, 3.9648403999999573, 4.281710800001747]"	"[0.34789050000108546, 0.5478178000012122, 0.7311458000003768, 0.9145278000032704, 1.0978273000000627, 1.289509000001999, 1.48123200000191, 1.672916700001224, 1.872919000001275, 2.0729831000026024, 2.2729783000031603, 2.464629199999763, 2.65628000000288, 2.864620600001217, 3.072975099999894, 3.256352300002618, 3.4646699000004446, 3.706352400000469, 4.073079600002529, 4.389721700001246]"	253.353299599999	253.3590387	254.851124600002	254.867490700002	NA	NA	NA	NA	NA	NA	NA	18	"02"	"2024-02-08_15h16.52.108"	"BART_exp"	"2023.2.3"	119.972406349419	"2024-02-08 15h17.01.480456 +0100"	NA
"balloon.png"	92	0	21	21	21	254.867490700002	NA	NA	NA	NA	NA	NA	NA	NA	NA	NA	NA	NA	254.851311599999	254.867490700002	254.867490700002	254.867490700002	254.867490700002	254.867490700002	-0.00060089999897172	-0.00060089999897172	-0.00060089999897172	254.867490700002	260.6861541	20	1	FALSE	"[-0.05462962962962963, -0.05462962962962963, -0.05462962962962963, -0.05462962962962963, -0.05462962962962963, -0.05462962962962963, -0.05462962962962963, -0.05462962962962963, -0.05462962962962963, -0.05462962962962963, -0.05462962962962963, -0.05462962962962963, -0.05462962962962963, -0.05462962962962963, -0.05462962962962963, -0.05462962962962963, -0.05462962962962963, -0.05462962962962963, -0.05462962962962963, -0.05462962962962963, -0.06666666666666667]"	"[-0.3814814814814815, -0.3814814814814815, -0.3814814814814815, -0.3814814814814815, -0.3814814814814815, -0.3814814814814815, -0.3814814814814815, -0.3814814814814815, -0.3814814814814815, -0.3814814814814815, -0.3814814814814815, -0.3814814814814815, -0.3814814814814815, -0.3814814814814815, -0.3814814814814815, -0.3814814814814815, -0.3814814814814815, -0.3814814814814815, -0.3814814814814815, -0.3814814814814815, -0.20555555555555555]"	"[1, 1, 1, 1, 1, 1, 1, 1, 1, 1, 1, 1, 1, 1, 1, 1, 1, 1, 1, 1, 0]"	"[0, 0, 0, 0, 0, 0, 0, 0, 0, 0, 0, 0, 0, 0, 0, 0, 0, 0, 0, 0, 0]"	"[0, 0, 0, 0, 0, 0, 0, 0, 0, 0, 0, 0, 0, 0, 0, 0, 0, 0, 0, 0, 1]"	"[0.8668704999981856, 1.0418587999993179, 1.2502248999990115, 1.4335676999980933, 1.625398000000132, 1.8253877999995893, 2.0254348999987997, 2.233623299998726, 2.433685299998615, 2.6338145999980043, 2.8336617999993905, 3.050331099999312, 3.233821900001203, 3.4503856000010273, 3.642079500001273, 3.8755750999989687, 4.200670599999285, 4.558938300000591, 4.792463099998713, 5.283892700001161, 5.83390320000035]"	20	"[0.8614134999988892, 1.036397500000021, 1.2447681999983615, 1.4281066000003193, 1.6199396999982127, 1.8199300999986008, 2.0199801999988267, 2.2281627000011213, 2.4282300999984727, 2.6283608000012464, 2.8282070999994176, 3.0448691999990842, 3.2283612999999605, 3.4449252000013075, 3.636634700000286, 3.870125299999927, 4.1952141000001575, 4.553482499999518, 4.787001900000178, 5.278438299999834]"	"[0.952929300001415, 1.144600100000389, 1.3448204999986046, 1.536296800000855, 1.728007500001695, 1.9279769999993732, 2.119680200001312, 2.327998299999308, 2.528148000001238, 2.7364076000012574, 2.92808850000074, 3.128078199999436, 3.328162199999497, 3.5364646000016364, 3.744786999999633, 3.99478789999921, 4.303153500000917, 4.669879699999001, 4.911565900001733, 5.378313699999126]"	260.6870327	260.692888600002	262.1848541	262.192997599999	NA	NA	NA	NA	NA	NA	NA	18	"02"	"2024-02-08_15h16.52.108"	"BART_exp"	"2023.2.3"	119.972406349419	"2024-02-08 15h17.01.480456 +0100"	NA
"balloon.png"	14	0	22	22	3	262.192997599999	NA	NA	NA	NA	NA	NA	NA	NA	NA	NA	NA	NA	262.185038800002	262.192997599999	262.192997599999	262.192997599999	262.192997599999	262.192997599999	-0.00075219999780529	-0.00075219999780529	-0.00075219999780529	262.192997599999	265.7037146	15	0.7	TRUE	"[-0.05925925925925926, -0.05925925925925926, -0.05925925925925926, -0.05925925925925926, -0.05925925925925926, -0.05925925925925926, -0.05925925925925926, -0.05925925925925926, -0.05925925925925926, -0.05925925925925926, -0.05925925925925926, -0.05925925925925926, -0.05925925925925926, -0.05925925925925926, -0.05925925925925926]"	"[-0.4027777777777778, -0.4027777777777778, -0.4027777777777778, -0.4027777777777778, -0.4027777777777778, -0.4027777777777778, -0.4027777777777778, -0.4027777777777778, -0.4027777777777778, -0.4027777777777778, -0.4027777777777778, -0.4027777777777778, -0.4027777777777778, -0.4027777777777778, -0.4027777777777778]"	"[1, 1, 1, 1, 1, 1, 1, 1, 1, 1, 1, 1, 1, 1, 1]"	"[0, 0, 0, 0, 0, 0, 0, 0, 0, 0, 0, 0, 0, 0, 0]"	"[0, 0, 0, 0, 0, 0, 0, 0, 0, 0, 0, 0, 0, 0, 0]"	"[0.517020399998728, 0.70034189999933, 0.892041999999492, 1.1004004999995232, 1.2922260999985156, 1.5088413999983459, 1.7087509999983013, 1.8921918000014557, 2.084138599999278, 2.300447900001018, 2.509073299999727, 2.717181200001505, 2.9588299999995797, 3.158839799998532, 3.3673147999979847]"	15	"[0.5149921000011091, 0.6983115000002726, 0.8900123000021267, 1.0983746000019892, 1.2901964000011503, 1.5068129999999655, 1.7067223000012746, 1.8901623000019754, 2.0821128000025055, 2.298428600002808, 2.507044500001939, 2.7151523000029556, 2.956799300001876, 3.1568088000021817, 3.3652873000028194]"	"[0.5898282000016479, 0.7981658999997308, 0.9981896999997844, 1.198184200002288, 1.3981977000003099, 1.6066704000004393, 1.7913168000013684, 2.0066781000023184, 2.198254099999758, 2.4066034000024956, 2.6151564000028884, 2.8233216000007815, 3.048363600002631, 3.2650068000002648, 3.506761800003005]"	265.704736399999	265.7099395	267.201900200002	267.210026200002	NA	NA	NA	NA	NA	NA	NA	18	"02"	"2024-02-08_15h16.52.108"	"BART_exp"	"2023.2.3"	119.972406349419	"2024-02-08 15h17.01.480456 +0100"	NA
"balloon.png"	40	0	23	23	9	267.210026200002	NA	NA	NA	NA	NA	NA	NA	NA	NA	NA	NA	NA	267.202078599999	267.210026200002	267.210026200002	267.210026200002	267.210026200002	267.210026200002	0.00535239999953773	NA	NA	267.210026200002	270.503480300002	10	0.5	FALSE	"[-0.05925925925925926, -0.05925925925925926, -0.05925925925925926, -0.05925925925925926, -0.05925925925925926, -0.05925925925925926, -0.05925925925925926, -0.05925925925925926, -0.05925925925925926, -0.05925925925925926, -0.040740740740740744]"	"[-0.4027777777777778, -0.4027777777777778, -0.4027777777777778, -0.4027777777777778, -0.4027777777777778, -0.4027777777777778, -0.4027777777777778, -0.4027777777777778, -0.4027777777777778, -0.4027777777777778, -0.1814814814814815]"	"[1, 1, 1, 1, 1, 1, 1, 1, 1, 1, 0]"	"[0, 0, 0, 0, 0, 0, 0, 0, 0, 0, 0]"	"[0, 0, 0, 0, 0, 0, 0, 0, 0, 0, 1]"	"[0.39212859999679495, 0.6005558999968343, 0.7921943999972427, 0.9922177999978885, 1.1921927999974287, 1.3839109000000462, 1.583854299999075, 1.7840821999998298, 2.2423468999986653, 2.642286599999352, 3.300487199998315]"	10	"[0.39027460000215797, 0.59868970000025, 0.7903184999995574, 0.9903465999996115, 1.1903177999993204, 1.3820449000013468, 1.5819879000009678, 1.7822087000022293, 2.240476499999204, 2.640411500000482]"	"[0.5066121999989264, 0.7232867999991868, 0.9066252000011445, 1.106649400000606, 1.2900049999989278, 1.4983422000004794, 1.6983619000020553, 1.8901024000006146, 2.3483839000000444, 2.7400835000007646]"	270.5042374	270.510256900001	272.0022551	272.018693599999	NA	NA	NA	NA	NA	NA	NA	18	"02"	"2024-02-08_15h16.52.108"	"BART_exp"	"2023.2.3"	119.972406349419	"2024-02-08 15h17.01.480456 +0100"	NA
"balloon.png"	44	0	24	24	10	272.018693599999	NA	NA	NA	NA	NA	NA	NA	NA	NA	NA	NA	NA	272.002436800001	272.018693599999	272.018693599999	272.018693599999	272.018693599999	272.018693599999	-0.00055599999905098	-0.00055599999905098	-0.00055599999905098	272.018693599999	275.387318000001	10	0.5	FALSE	"[-0.044444444444444446, -0.044444444444444446, -0.044444444444444446, -0.044444444444444446, -0.044444444444444446, -0.044444444444444446, -0.044444444444444446, -0.044444444444444446, -0.044444444444444446, -0.044444444444444446, -0.04722222222222222]"	"[-0.3787037037037037, -0.3787037037037037, -0.3787037037037037, -0.3787037037037037, -0.3787037037037037, -0.3787037037037037, -0.3787037037037037, -0.3787037037037037, -0.3787037037037037, -0.3787037037037037, -0.2351851851851852]"	"[1, 1, 1, 1, 1, 1, 1, 1, 1, 1, 0]"	"[0, 0, 0, 0, 0, 0, 0, 0, 0, 0, 0]"	"[0, 0, 0, 0, 0, 0, 0, 0, 0, 0, 1]"	"[0.475272199997562, 0.6419360999971104, 0.8504469999970752, 1.0337989999970887, 1.217176099999051, 1.4005169999982172, 1.617210000000341, 2.008873599999788, 2.375546699997358, 2.77564209999764, 3.383958399997937]"	10	"[0.47131810000064434, 0.6379764000012074, 0.8464901000006648, 1.0298460999983945, 1.2132197999999335, 1.3965639999987616, 1.6132529999995313, 2.0049154000007547, 2.37159740000061, 2.7716903000000457]"	"[0.546188299998903, 0.7381181999990076, 0.9295257000012498, 1.1212462000003143, 1.3045478999993065, 1.504647500001738, 1.704576399999496, 2.1212764000010793, 2.4879508999983955, 2.8879981999998563]"	275.3881005	275.3939269	276.8858836	276.910698	NA	NA	NA	NA	NA	NA	NA	18	"02"	"2024-02-08_15h16.52.108"	"BART_exp"	"2023.2.3"	119.972406349419	"2024-02-08 15h17.01.480456 +0100"	NA
"balloon.png"	1	0	25	25	0	276.910698	NA	NA	NA	NA	NA	NA	NA	NA	NA	NA	NA	NA	276.886053800001	276.910698	276.910698	276.910698	276.910698	276.910698	-0.00080110000271815	-0.00080110000271815	-0.00080110000271815	276.910698	277.6543575	2	0.05	TRUE	"[-0.03888888888888889, -0.03888888888888889]"	"[-0.3861111111111111, -0.3861111111111111]"	"[1, 1]"	"[0, 0]"	"[0, 0]"	"[0.5006160999982967, 0.6838556000002427]"	2	"[0.4896712999980082, 0.6729024999985995]"	"[0.5478918999979214, 0.747591299998021]"	277.654927399999	277.660754500001	279.152753599999	279.1691976	NA	NA	NA	NA	NA	NA	NA	18	"02"	"2024-02-08_15h16.52.108"	"BART_exp"	"2023.2.3"	119.972406349419	"2024-02-08 15h17.01.480456 +0100"	NA
"balloon.png"	118	0	26	26	27	279.1691976	NA	NA	NA	NA	NA	NA	NA	NA	NA	NA	NA	NA	279.152941799999	279.1691976	279.1691976	279.1691976	279.1691976	279.1691976	-0.00064040000142995	-0.00064040000142995	-0.00064040000142995	279.1691976	284.7130588	20	1	FALSE	"[-0.03888888888888889, -0.03888888888888889, -0.03888888888888889, -0.03888888888888889, -0.03888888888888889, -0.03888888888888889, -0.03888888888888889, -0.03888888888888889, -0.03888888888888889, -0.03888888888888889, -0.03888888888888889, -0.03888888888888889, -0.03888888888888889, -0.03888888888888889, -0.03888888888888889, -0.03888888888888889, -0.03888888888888889, -0.03888888888888889, -0.03888888888888889, -0.03888888888888889, -0.027777777777777776]"	"[-0.3861111111111111, -0.3861111111111111, -0.3861111111111111, -0.3861111111111111, -0.3861111111111111, -0.3861111111111111, -0.3861111111111111, -0.3861111111111111, -0.3861111111111111, -0.3861111111111111, -0.3861111111111111, -0.3861111111111111, -0.3861111111111111, -0.3861111111111111, -0.3861111111111111, -0.3861111111111111, -0.3861111111111111, -0.3861111111111111, -0.3861111111111111, -0.3861111111111111, -0.11388888888888889]"	"[1, 1, 1, 1, 1, 1, 1, 1, 1, 1, 1, 1, 1, 1, 1, 1, 1, 1, 1, 1, 0]"	"[0, 0, 0, 0, 0, 0, 0, 0, 0, 0, 0, 0, 0, 0, 0, 0, 0, 0, 0, 0, 0]"	"[0, 0, 0, 0, 0, 0, 0, 0, 0, 0, 0, 0, 0, 0, 0, 0, 0, 0, 0, 0, 1]"	"[0.36703940000006696, 0.5668838000019605, 0.7836874000022362, 0.9671519000003173, 1.158602300001803, 1.3502609000024677, 1.5252868000025046, 1.9755182000008062, 2.1921242000025813, 2.392308400001639, 2.5921799999996438, 2.7670233999997436, 2.9673027000026195, 3.150393500000064, 3.4839165000012144, 3.7004306000017095, 3.8840194000003976, 4.142137300001195, 4.450646000001143, 4.81735590000244, 5.559132000002137]"	20	"[0.3633926000002248, 0.5632262999970408, 0.7800389000003634, 0.9635201999990386, 1.1549443999974756, 1.3466071999973792, 1.521633299998939, 1.9718615999991016, 2.1884670999970695, 2.3886558999984118, 2.588525999999547, 2.763369500000408, 2.963656699997955, 3.1467336999994586, 3.4802677999978187, 3.696777099998144, 3.8803702000004705, 4.1384865999971225, 4.446989399999438, 4.813707299999805]"	"[0.47142279999752645, 0.6714180999988457, 0.8631859999986773, 1.0640979999989213, 1.2548564999997325, 1.438163299997541, 1.62981519999812, 2.0965422999979637, 2.296597999997175, 2.4883440999983577, 2.6715544999970007, 2.888229699998192, 3.021700699999201, 3.3466085999971256, 3.5716709999978775, 3.771632899999531, 3.9633092999974906, 4.246683299999859, 4.546742399998038, 4.896713300000556]"	284.714167400001	284.719660700001	286.2116647	286.219713000002	NA	NA	NA	NA	NA	NA	NA	18	"02"	"2024-02-08_15h16.52.108"	"BART_exp"	"2023.2.3"	119.972406349419	"2024-02-08 15h17.01.480456 +0100"	NA
"balloon.png"	84	0	27	27	19	286.219713000002	NA	NA	NA	NA	NA	NA	NA	NA	NA	NA	NA	NA	286.2118453	286.219713000002	286.219713000002	286.219713000002	286.219713000002	286.219713000002	0.00561000000016065	0.00561000000016065	0.00561000000016065	286.219713000002	291.2301238	20	1	FALSE	"[-0.019444444444444445, -0.019444444444444445, -0.019444444444444445, -0.019444444444444445, -0.019444444444444445, -0.019444444444444445, -0.020370370370370372, -0.020370370370370372, -0.020370370370370372, -0.020370370370370372, -0.020370370370370372, -0.020370370370370372, -0.020370370370370372, -0.020370370370370372, -0.020370370370370372, -0.020370370370370372, -0.020370370370370372, -0.020370370370370372, -0.020370370370370372, -0.020370370370370372, -0.025925925925925925]"	"[-0.37407407407407406, -0.37407407407407406, -0.37407407407407406, -0.37407407407407406, -0.37407407407407406, -0.37407407407407406, -0.37407407407407406, -0.37407407407407406, -0.37407407407407406, -0.37407407407407406, -0.37407407407407406, -0.37407407407407406, -0.37407407407407406, -0.37407407407407406, -0.37407407407407406, -0.37407407407407406, -0.37407407407407406, -0.37407407407407406, -0.37407407407407406, -0.37407407407407406, -0.17407407407407408]"	"[1, 1, 1, 1, 1, 1, 1, 1, 1, 1, 1, 1, 1, 1, 1, 1, 1, 1, 1, 1, 0]"	"[0, 0, 0, 0, 0, 0, 0, 0, 0, 0, 0, 0, 0, 0, 0, 0, 0, 0, 0, 0, 0]"	"[0, 0, 0, 0, 0, 0, 0, 0, 0, 0, 0, 0, 0, 0, 0, 0, 0, 0, 0, 0, 1]"	"[0.32542240000111633, 0.5085495999992418, 0.7088031999992381, 0.9002072000002954, 1.0836973000004946, 1.2585744999996678, 1.4586210000015853, 1.6585970999985875, 1.8586355000006733, 2.0502903000015067, 2.2252982999998494, 2.4337726999983715, 2.6336585999997624, 2.8420154999985243, 3.092080700000224, 3.3087401000011596, 3.5087157000016305, 3.7171989999988, 3.9256642000000284, 4.31736059999821, 5.017330399998173]"	20	"[0.32357839999895077, 0.5067024999989371, 0.7069578000009642, 0.8983651999988069, 1.081856799999514, 1.2567215999988548, 1.4567768999986583, 1.656748699999298, 1.8567876999986765, 2.048437900000863, 2.2234442999979365, 2.431926499997644, 2.6318112000008114, 2.8401668000005884, 3.090230400001019, 3.2902967000009085, 3.5068645999999717, 3.715350700000272, 3.9238194999998086, 4.315523400000529]"	"[0.4064863999992667, 0.5982499999990978, 0.8069264000005205, 0.9898734999987937, 1.1815567999983614, 1.3650119999983872, 1.5649775999991107, 1.748301999999967, 1.9482715999984066, 2.1483890999988944, 2.3316374999994878, 2.5401237000005494, 2.748548799998389, 2.956824599998072, 3.198426399998425, 3.406737499997689, 3.6150735999981407, 3.81506520000039, 4.056762699998217, 4.4402257000001555]"	291.231055200002	291.236707799999	292.728816700001	292.745178199999	NA	NA	NA	NA	NA	NA	NA	18	"02"	"2024-02-08_15h16.52.108"	"BART_exp"	"2023.2.3"	119.972406349419	"2024-02-08 15h17.01.480456 +0100"	NA
"balloon.png"	5	0	28	28	1	292.745178199999	NA	NA	NA	NA	NA	NA	NA	NA	NA	NA	NA	NA	292.728996400001	292.745178199999	292.745178199999	292.745178199999	292.745178199999	292.745178199999	-0.0006299000015133	-0.0006299000015133	-0.0006299000015133	292.745178199999	294.3389326	6	0.25	TRUE	"[-0.06666666666666667, -0.06759259259259259, -0.06759259259259259, -0.06759259259259259, -0.06759259259259259, -0.06759259259259259]"	"[-0.38981481481481484, -0.38981481481481484, -0.38981481481481484, -0.38981481481481484, -0.38981481481481484, -0.38981481481481484]"	"[1, 1, 1, 1, 1, 1]"	"[0, 0, 0, 0, 0, 0]"	"[0, 0, 0, 0, 0, 0]"	"[0.48374970000077155, 0.683721900000819, 0.8836775999989186, 1.0918730999983381, 1.3086038999972516, 1.500218599998334]"	6	"[0.4759371000000101, 0.675907199998619, 0.8758562000002712, 1.0840503999970679, 1.3007813999975042, 1.492396399997233]"	"[0.5838848999992479, 0.7838559999981953, 0.9755503999986104, 1.1755683999981557, 1.383903799996915, 1.5922458999993978]"	294.339584199999	294.345287200002	295.837225200001	295.853742499999	NA	NA	NA	NA	NA	NA	NA	18	"02"	"2024-02-08_15h16.52.108"	"BART_exp"	"2023.2.3"	119.972406349419	"2024-02-08 15h17.01.480456 +0100"	NA
"balloon.png"	71	0	29	29	16	295.853742499999	NA	NA	NA	NA	NA	NA	NA	NA	NA	NA	NA	NA	295.837399399999	295.853742499999	295.853742499999	295.853742499999	295.853742499999	295.853742499999	-0.00091729999985545	-0.00091729999985545	-0.00091729999985545	295.853742499999	301.597344900001	20	1	FALSE	"[-0.06666666666666667, -0.06666666666666667, -0.06666666666666667, -0.06666666666666667, -0.06666666666666667, -0.06666666666666667, -0.06666666666666667, -0.06666666666666667, -0.06666666666666667, -0.06666666666666667, -0.06666666666666667, -0.06666666666666667, -0.06666666666666667, -0.06666666666666667, -0.06666666666666667, -0.06666666666666667, -0.06666666666666667, -0.06666666666666667, -0.06666666666666667, -0.06666666666666667, -0.058333333333333334]"	"[-0.40185185185185185, -0.40185185185185185, -0.40185185185185185, -0.40185185185185185, -0.40185185185185185, -0.40185185185185185, -0.40185185185185185, -0.40185185185185185, -0.40185185185185185, -0.40185185185185185, -0.40185185185185185, -0.40185185185185185, -0.40185185185185185, -0.40185185185185185, -0.40185185185185185, -0.40185185185185185, -0.40185185185185185, -0.40185185185185185, -0.40185185185185185, -0.40185185185185185, -0.24259259259259258]"	"[1, 1, 1, 1, 1, 1, 1, 1, 1, 1, 1, 1, 1, 1, 1, 1, 1, 1, 1, 1, 0]"	"[0, 0, 0, 0, 0, 0, 0, 0, 0, 0, 0, 0, 0, 0, 0, 0, 0, 0, 0, 0, 0]"	"[0, 0, 0, 0, 0, 0, 0, 0, 0, 0, 0, 0, 0, 0, 0, 0, 0, 0, 0, 0, 1]"	"[0.6504763000011735, 0.8504787999991095, 1.067153199997847, 1.2755892999994103, 1.4588746000008541, 1.7255781999992905, 2.03377239999827, 2.2506272999999055, 2.450543499999185, 2.650707799999509, 2.8588233000009495, 3.0589615999997477, 3.2673011000006227, 3.467373499999667, 3.6673910999998043, 3.917499899998802, 4.159080400000676, 4.3757733999991615, 4.684097699999256, 5.125907199999347, 5.7590357000008225]"	20	"[0.6414508000016212, 0.8414453000004869, 1.0581179000000702, 1.2665551000027335, 1.44984100000147, 1.7165454999994836, 2.0247355999999854, 2.241588300003059, 2.441504400001577, 2.641667600000801, 2.8497833000001265, 3.049925400002394, 3.2582629000025918, 3.4583376000009594, 3.658364300001267, 3.9084603000010247, 4.150046200000361, 4.366734800001723, 4.67505760000131, 5.116868700002669]"	"[0.7328302000023541, 0.9496976000009454, 1.1578466999999364, 1.3495405000030587, 1.566210900000442, 1.9162414000020362, 2.1329504000023007, 2.3412647000004654, 2.541295099999843, 2.7580200000011246, 2.96633120000115, 3.132993200000783, 3.358002500001021, 3.5830306999996537, 3.7830993000025046, 4.024789999999484, 4.2497447000023385, 4.491430199999741, 4.833342000001721, 5.241458899999998]"	301.5982859	301.60411	303.096101400002	303.104211900001	NA	NA	NA	NA	NA	NA	NA	18	"02"	"2024-02-08_15h16.52.108"	"BART_exp"	"2023.2.3"	119.972406349419	"2024-02-08 15h17.01.480456 +0100"	NA
NA	NA	NA	NA	NA	NA	NA	NA	NA	NA	NA	NA	NA	NA	NA	NA	NA	NA	NA	NA	NA	NA	NA	NA	NA	NA	NA	NA	NA	NA	NA	NA	NA	NA	NA	NA	NA	NA	NA	NA	NA	NA	NA	NA	NA	NA	303.096141599999	303.104211900001	303.104211900001	313.763826500002	"space"	10.6561992999996	"None"	18	"02"	"2024-02-08_15h16.52.108"	"BART_exp"	"2023.2.3"	119.972406349419	"2024-02-08 15h17.01.480456 +0100"	NA
