image	max_pumps	pump_loop.thisRepN	pump_loop.thisTrialN	pump_loop.thisN	pump_loop.thisIndex	thisRow.t	notes	Start.started	text_start.started	continue_start.started	mouse_start.started	Start.stopped	mouse_start.x	mouse_start.y	mouse_start.leftButton	mouse_start.midButton	mouse_start.rightButton	mouse_start.time	trials.started	stim_balloon.started	stim_balloon_burst.started	stim_balloon_burst.stopped	text_ballon_value.started	text_bank.started	mouse.started	sound_bang.started	sound_bang.stopped	button_balloon.started	trials.stopped	n_pumps	earnings	popped	mouse.x	mouse.y	mouse.leftButton	mouse.midButton	mouse.rightButton	mouse.time	button_balloon.numClicks	button_balloon.timesOn	button_balloon.timesOff	Feedback.started	text_feedback.started	Feedback.stopped	text_feedback.stopped	End.started	text_end.started	key_end.started	End.stopped	key_end.keys	key_end.rt	key_end.duration	participant	session	date	expName	psychopyVersion	frameRate	expStart	
								0.04972239999915473	0.062225199999375036	0.062225199999375036	0.0500465000004624	32.66502559999935	[0.6768518518518518]	[-0.4083333333333333]	[1]	[0]	[0]	[32.61440510000102]																																			10	01	2024-02-06_16h05.38.898	BART_exp	2023.2.3	119.97758818697062	2024-02-06 16h05.52.116055 +0100	
balloon.png	44	0	0	0	10	32.747769500001596													32.68912560000172	32.747769500001596	32.747769500001596	32.747769500001596	32.747769500001596	32.747769500001596	0.02572439999858034	0.02572439999858034	0.02572439999858034	32.747769500001596	43.216884800000116	14	0.70	False	"[0.013888888888888888, 0.013888888888888888, 0.013888888888888888, 0.013888888888888888, 0.013888888888888888, 0.013888888888888888, 0.013888888888888888, 0.013888888888888888, 0.013888888888888888, 0.013888888888888888, 0.013888888888888888, 0.013888888888888888, 0.013888888888888888, 0.013888888888888888, 0.013888888888888888]"	"[-0.39537037037037037, -0.39537037037037037, -0.39537037037037037, -0.39537037037037037, -0.39537037037037037, -0.39537037037037037, -0.39537037037037037, -0.39537037037037037, -0.39537037037037037, -0.39537037037037037, -0.39537037037037037, -0.39537037037037037, -0.39537037037037037, -0.39537037037037037, -0.39537037037037037]"	"[1, 1, 1, 1, 1, 1, 1, 1, 1, 1, 1, 1, 1, 1, 0]"	"[0, 0, 0, 0, 0, 0, 0, 0, 0, 0, 0, 0, 0, 0, 0]"	"[0, 0, 0, 0, 0, 0, 0, 0, 0, 0, 0, 0, 0, 0, 1]"	"[1.6677504999970552, 2.1012542999997095, 2.567987799997354, 3.126299100000324, 3.6595202999997127, 4.0430167999984405, 4.609628499998507, 5.259799100000237, 5.87644889999865, 6.45969519999926, 7.218143299996882, 8.034824099999241, 9.068216299998312, 9.876635999997234, 10.526817300000403]"	15	"[1.6209826000012981, 2.054485600001499, 2.521229800000583, 3.0795507000002544, 3.6127483999989636, 3.9962529000003997, 4.562862999999197, 5.213027999998303, 5.829682100000355, 6.412929599999188, 7.1713797000011255, 7.9880588999985775, 9.02144970000154, 9.829865100000461, 10.479985199999646]"	"[1.7625028000002203, 2.204190299999027, 2.6542206999984046, 3.2293294000010064, 3.7042913000004773, 4.120964900001127, 4.6960089999993215, 5.312704500000109, 5.954412499999307, 6.521160500000406, 7.279510299998947, 8.1212463999982, 9.163002599998435, 9.971380200000567, 10.479989200001]"	43.2181296000017	43.23173400000087	44.723647800001345									10	01	2024-02-06_16h05.38.898	BART_exp	2023.2.3	119.97758818697062	2024-02-06 16h05.52.116055 +0100	
balloon.png	114	0	1	1	26	44.73193689999971													44.72382120000111	44.73193689999971	44.73193689999971	44.73193689999971	44.73193689999971	44.73193689999971	0.006943299998965813	0.006943299998965813	0.006943299998965813	44.73193689999971	59.15300320000097	22	1.10	False	"[0.05555555555555555, 0.05555555555555555, 0.05555555555555555, 0.05555555555555555, 0.05555555555555555, 0.05555555555555555, 0.05555555555555555, 0.05555555555555555, 0.05555555555555555, 0.05555555555555555, 0.05555555555555555, 0.05555555555555555, 0.05555555555555555, 0.05555555555555555, 0.05555555555555555, 0.05555555555555555, 0.05555555555555555, 0.05555555555555555, 0.05555555555555555, 0.05555555555555555, 0.05555555555555555, 0.05555555555555555, 0.05555555555555555]"	"[-0.35555555555555557, -0.35555555555555557, -0.35555555555555557, -0.35555555555555557, -0.35555555555555557, -0.35555555555555557, -0.35555555555555557, -0.35555555555555557, -0.35555555555555557, -0.35555555555555557, -0.35555555555555557, -0.35555555555555557, -0.35555555555555557, -0.35555555555555557, -0.35555555555555557, -0.35555555555555557, -0.35555555555555557, -0.35555555555555557, -0.35555555555555557, -0.35555555555555557, -0.35555555555555557, -0.35555555555555557, -0.35555555555555557]"	"[1, 1, 1, 1, 1, 1, 1, 1, 1, 1, 1, 1, 1, 1, 1, 1, 1, 1, 1, 1, 1, 1, 0]"	"[0, 0, 0, 0, 0, 0, 0, 0, 0, 0, 0, 0, 0, 0, 0, 0, 0, 0, 0, 0, 0, 0, 0]"	"[0, 0, 0, 0, 0, 0, 0, 0, 0, 0, 0, 0, 0, 0, 0, 0, 0, 0, 0, 0, 0, 0, 1]"	"[1.3339758000001893, 1.7838264999991225, 2.192182999999204, 2.6506999999983236, 3.1174323999985063, 3.617295000000013, 4.10918319999837, 4.650966299999709, 5.317571899999166, 5.992451300000539, 6.592498499998328, 7.342553300000873, 7.834382299999561, 8.617657799997687, 9.126193699998112, 9.784369299999526, 10.617763899997954, 11.184629499999573, 11.734534999999596, 12.32631489999767, 12.801273500001116, 13.384622199999285, 14.427928299999621]"	23	"[1.3317506999992474, 1.7816022999977577, 2.1899515999975847, 2.6484776999968744, 3.1152083999986644, 3.6150627999995777, 4.106955799998104, 4.648736399998597, 5.315367199997127, 5.990220799998497, 6.590270900000178, 7.340320999999676, 7.83215779999955, 8.615434899998945, 9.123963899997761, 9.782138799997483, 10.615531899999041, 11.18240109999897, 11.732302299998992, 12.324080999998841, 12.799041399997805, 13.382386899997073, 14.42586079999819]"	"[1.4731031999981496, 1.9148289000004297, 2.30648199999996, 2.7816020999998727, 3.248232999998436, 3.748243199999706, 4.24827759999971, 4.80669399999897, 5.440031599999202, 6.123407600000064, 6.740176799998153, 7.490165799998067, 7.9736247999971965, 8.723633800000243, 9.273627399998077, 9.93201659999977, 10.748764799998753, 11.298756299998786, 11.865507599999546, 12.423844799999642, 12.93220449999717, 13.53228119999767, 14.425867999998445]"	59.154097000002366	59.16626550000001	60.658048000001145									10	01	2024-02-06_16h05.38.898	BART_exp	2023.2.3	119.97758818697062	2024-02-06 16h05.52.116055 +0100	
balloon.png	75	0	2	2	17	60.674677499999234													60.658228500000405	60.674677499999234	60.674677499999234	60.674677499999234	60.674677499999234	60.674677499999234	0.00533749999885913	0.00533749999885913	0.00533749999885913	60.674677499999234	73.56889969999975	25	1.25	False	"[0.05555555555555555, 0.05555555555555555, 0.05555555555555555, 0.05555555555555555, 0.05555555555555555, 0.05555555555555555, 0.05555555555555555, 0.05555555555555555, 0.05555555555555555, 0.05555555555555555, 0.05555555555555555, 0.05555555555555555, 0.05555555555555555, 0.05555555555555555, 0.05555555555555555, 0.05555555555555555, 0.05555555555555555, 0.05555555555555555, 0.05555555555555555, 0.05555555555555555, 0.05555555555555555, 0.05555555555555555, 0.05555555555555555, 0.05555555555555555, 0.05555555555555555, 0.05555555555555555]"	"[-0.35555555555555557, -0.35555555555555557, -0.35555555555555557, -0.35555555555555557, -0.35555555555555557, -0.35555555555555557, -0.35555555555555557, -0.35555555555555557, -0.35555555555555557, -0.35555555555555557, -0.35555555555555557, -0.35555555555555557, -0.35555555555555557, -0.35555555555555557, -0.35555555555555557, -0.35555555555555557, -0.35555555555555557, -0.35555555555555557, -0.35555555555555557, -0.35555555555555557, -0.35555555555555557, -0.35555555555555557, -0.35555555555555557, -0.35555555555555557, -0.35555555555555557, -0.35555555555555557]"	"[1, 1, 1, 1, 1, 1, 1, 1, 1, 1, 1, 1, 1, 1, 1, 1, 1, 1, 1, 1, 1, 1, 1, 1, 1, 0]"	"[0, 0, 0, 0, 0, 0, 0, 0, 0, 0, 0, 0, 0, 0, 0, 0, 0, 0, 0, 0, 0, 0, 0, 0, 0, 0]"	"[0, 0, 0, 0, 0, 0, 0, 0, 0, 0, 0, 0, 0, 0, 0, 0, 0, 0, 0, 0, 0, 0, 0, 0, 0, 1]"	"[0.9256964999985939, 1.159007099999144, 1.384010699999635, 1.5755871000001207, 1.7674053000009735, 1.9591467999998713, 2.16749290000007, 2.5591047999987495, 2.8672977999995055, 3.150831399998424, 3.392336199998681, 3.6173737999997684, 3.959230899999966, 4.375900300001376, 4.767581500000233, 5.317655499999091, 5.592543300001125, 6.109389199998986, 6.767725800000335, 7.459450099999231, 8.467859699998371, 8.934542999999394, 9.901276199998392, 10.926387299998169, 11.961168400001043, 12.909778500001266]"	26	"[0.9174483000024338, 1.1507535000018834, 1.3757626000005985, 1.5673448000015924, 1.7591501999995671, 1.9508918999999878, 2.1592373000021325, 2.550850300001912, 2.8590428000024986, 3.142577300000994, 3.3840778000012506, 3.6091176000009, 3.950985400002537, 4.367643600002339, 4.759329200001957, 5.309400599999208, 5.584288900001411, 6.1011428000019805, 6.759473900001467, 7.451196699999855, 8.45961200000238, 8.926287500002218, 9.893027000001894, 10.918132300001162, 11.953078500002448, 12.9014657000007]"	"[1.017120700002124, 1.2588500999991084, 1.4587964999991527, 1.6754880000007688, 1.8504880000000412, 2.059055100002297, 2.2589368000008108, 2.6505496999998286, 3.000580500000069, 3.2672682000011264, 3.492297900000267, 3.7256091000017477, 4.100641100001667, 4.467343799999071, 4.884053600002517, 5.442471300000761, 5.692410800002108, 6.242473400001472, 6.925908500001242, 7.617582599999878, 8.600982700001623, 9.067657499999768, 10.051086400002532, 11.067795400002069, 12.11788180000076, 12.9014700000007]"	73.56989370000156	73.57560490000105	75.06770980000147	75.0840199000013								10	01	2024-02-06_16h05.38.898	BART_exp	2023.2.3	119.97758818697062	2024-02-06 16h05.52.116055 +0100	
balloon.png	66	0	3	3	15	75.0840199000013													75.06791140000132	75.0840199000013	75.0840199000013	75.0840199000013	75.0840199000013	75.0840199000013	-0.0006183000004966743	-0.0006183000004966743	-0.0006183000004966743	75.0840199000013	85.47793459999957	29	1.45	False	"[0.05555555555555555, 0.05555555555555555, 0.05555555555555555, 0.05555555555555555, 0.05555555555555555, 0.05555555555555555, 0.05555555555555555, 0.05555555555555555, 0.05555555555555555, 0.05555555555555555, 0.05555555555555555, 0.05555555555555555, 0.05555555555555555, 0.05555555555555555, 0.05555555555555555, 0.05555555555555555, 0.05555555555555555, 0.05555555555555555, 0.05555555555555555, 0.05555555555555555, 0.05555555555555555, 0.05555555555555555, 0.05555555555555555, 0.05555555555555555, 0.05555555555555555, 0.05555555555555555, 0.05555555555555555, 0.05555555555555555, 0.05555555555555555, 0.05555555555555555]"	"[-0.35555555555555557, -0.35555555555555557, -0.35555555555555557, -0.35555555555555557, -0.35555555555555557, -0.35555555555555557, -0.35555555555555557, -0.35555555555555557, -0.35555555555555557, -0.35555555555555557, -0.35555555555555557, -0.35555555555555557, -0.35555555555555557, -0.35555555555555557, -0.35555555555555557, -0.35555555555555557, -0.35555555555555557, -0.35555555555555557, -0.35555555555555557, -0.35555555555555557, -0.35555555555555557, -0.35555555555555557, -0.35555555555555557, -0.35555555555555557, -0.35555555555555557, -0.35555555555555557, -0.35555555555555557, -0.35555555555555557, -0.35555555555555557, -0.35555555555555557]"	"[1, 1, 1, 1, 1, 1, 1, 1, 1, 1, 1, 1, 1, 1, 1, 1, 1, 1, 1, 1, 1, 1, 1, 1, 1, 1, 1, 1, 1, 0]"	"[0, 0, 0, 0, 0, 0, 0, 0, 0, 0, 0, 0, 0, 0, 0, 0, 0, 0, 0, 0, 0, 0, 0, 0, 0, 0, 0, 0, 0, 0]"	"[0, 0, 0, 0, 0, 0, 0, 0, 0, 0, 0, 0, 0, 0, 0, 0, 0, 0, 0, 0, 0, 0, 0, 0, 0, 0, 0, 0, 0, 1]"	"[0.8417172999979812, 1.0668822999978147, 1.2668978000001516, 1.4502246999982162, 1.675323200001003, 1.8919619000007515, 2.067158499998186, 2.2419460999990406, 2.425433599997632, 2.625337400000717, 2.8251787000008335, 3.0337881999985257, 3.2171148999987054, 3.3919093999975303, 3.5919099999991886, 4.00031239999953, 4.225410600000032, 4.417160999997577, 4.883845799999108, 5.225350799999433, 5.667256099997758, 6.125635699998384, 6.642335199998342, 6.884132600000157, 7.350520199997845, 7.792197099999612, 8.717425799997727, 9.000601199997618, 9.500812800000858, 10.409059400000842]"	30	"[0.8334599999980128, 1.0586216999981843, 1.258636700000352, 1.4419675999997708, 1.6670688000012888, 1.883708299999853, 2.0589011999982176, 2.2336875000000873, 2.41717399999834, 2.6170961999996507, 2.8169201999990037, 3.0255293999980495, 3.2088549000000057, 3.3836458000005223, 3.5836531999993895, 3.992053499998292, 4.217154899997695, 4.4089053999996395, 4.875587700000324, 5.217094699997688, 5.658997899998212, 6.117376399997738, 6.634074099998543, 6.875873799999681, 7.342256600000837, 7.783932399997866, 8.709167699998943, 8.99233489999824, 9.492549499998859, 10.400737399999343]"	"[0.9333129999977245, 1.1667001999994682, 1.3583386999998766, 1.5584129999988363, 1.7750310000010359, 1.9917313000005379, 2.1668439999994007, 2.341733799999929, 2.509826499997871, 2.725107599999319, 2.925234800000908, 3.1168351999986044, 3.30847200000062, 3.492002799997863, 3.6920276999990165, 4.091884900000878, 4.300355200000922, 4.475266999997984, 5.000264199999947, 5.316994400000112, 5.783669199998258, 6.225330000001122, 6.767036699999153, 6.958799500000168, 7.4504349999988335, 7.900574600000255, 8.842247799999313, 9.083879999998317, 9.600575799999206, 10.400741400000697]"	85.47911720000047	85.48471490000156	86.97668400000111	86.98488150000048								10	01	2024-02-06_16h05.38.898	BART_exp	2023.2.3	119.97758818697062	2024-02-06 16h05.52.116055 +0100	
balloon.png	18	0	4	4	4	86.98488150000048													86.9768593000008	86.98488150000048	86.98488150000048	86.98488150000048	86.98488150000048	86.98488150000048	0.00587440000163042	0.00587440000163042	0.00587440000163042	86.98488150000048	92.00384699999995	19	0.90	True	"[0.05555555555555555, 0.05555555555555555, 0.05555555555555555, 0.05555555555555555, 0.05555555555555555, 0.05555555555555555, 0.05555555555555555, 0.05555555555555555, 0.05555555555555555, 0.05555555555555555, 0.05555555555555555, 0.05555555555555555, 0.05555555555555555, 0.05555555555555555, 0.05555555555555555, 0.05555555555555555, 0.05555555555555555, 0.05555555555555555, 0.05555555555555555]"	"[-0.35555555555555557, -0.35555555555555557, -0.35555555555555557, -0.35555555555555557, -0.35555555555555557, -0.35555555555555557, -0.35555555555555557, -0.35555555555555557, -0.35555555555555557, -0.35555555555555557, -0.35555555555555557, -0.35555555555555557, -0.35555555555555557, -0.35555555555555557, -0.35555555555555557, -0.35555555555555557, -0.35555555555555557, -0.35555555555555557, -0.35555555555555557]"	"[1, 1, 1, 1, 1, 1, 1, 1, 1, 1, 1, 1, 1, 1, 1, 1, 1, 1, 1]"	"[0, 0, 0, 0, 0, 0, 0, 0, 0, 0, 0, 0, 0, 0, 0, 0, 0, 0, 0]"	"[0, 0, 0, 0, 0, 0, 0, 0, 0, 0, 0, 0, 0, 0, 0, 0, 0, 0, 0]"	"[0.8670061999982863, 1.175531900000351, 1.4337937999989663, 1.6255133000013302, 1.8170643000012205, 2.0088714999983495, 2.2170741000009, 2.4254065999994054, 2.6171328999989782, 2.817236700000649, 2.9922743999995873, 3.175641199999518, 3.3506484999998065, 3.5339716999988013, 3.708957899998495, 3.909195100000943, 4.283854400000564, 4.717395799998485, 4.909027800000331]"	19	"[0.8651317999974708, 1.173662699999113, 1.4319208999986586, 1.6236368999998376, 1.8151899999975285, 2.0069978999999876, 2.2151989999983925, 2.4235316999984207, 2.6152610999997705, 2.81536689999848, 2.9903974999979255, 3.173768499997095, 3.348775199996453, 3.5320995999973093, 3.7070809999968333, 3.907324299998436, 4.281974799996533, 4.715517999997246, 4.907161999999516]"	"[0.9899353000000701, 1.2899698999972316, 1.5066774999977497, 1.7066772999969544, 1.915114799998264, 2.11502759999712, 2.3233484999982466, 2.5317190999994637, 2.7151320999983, 2.9164869999985967, 3.098424799998611, 3.2734261999976297, 3.4651037999974506, 3.631825399999798, 3.823504799998773, 4.0318155999993905, 4.423508799998672, 4.831881499998417, 5.0152506999984325]"	92.00479099999939	92.01849969999967	93.51030560000072									10	01	2024-02-06_16h05.38.898	BART_exp	2023.2.3	119.97758818697062	2024-02-06 16h05.52.116055 +0100	
balloon.png	27	0	5	5	6	93.52694369999881													93.51047639999888	93.52694369999881	93.52694369999881	93.52694369999881	93.52694369999881	93.52694369999881	0.006935199999134056	0.006935199999134056	0.006935199999134056	93.52694369999881	101.05399570000009	14	0.70	False	"[0.05555555555555555, 0.05555555555555555, 0.05555555555555555, 0.05555555555555555, 0.05555555555555555, 0.05555555555555555, 0.05555555555555555, 0.05555555555555555, 0.05555555555555555, 0.05555555555555555, 0.05555555555555555, 0.05555555555555555, 0.05555555555555555, 0.05555555555555555, 0.05555555555555555]"	"[-0.35555555555555557, -0.35555555555555557, -0.35555555555555557, -0.35555555555555557, -0.35555555555555557, -0.35555555555555557, -0.35555555555555557, -0.35555555555555557, -0.35555555555555557, -0.35555555555555557, -0.35555555555555557, -0.35555555555555557, -0.35555555555555557, -0.35555555555555557, -0.35555555555555557]"	"[1, 1, 1, 1, 1, 1, 1, 1, 1, 1, 1, 1, 1, 1, 0]"	"[0, 0, 0, 0, 0, 0, 0, 0, 0, 0, 0, 0, 0, 0, 0]"	"[0, 0, 0, 0, 0, 0, 0, 0, 0, 0, 0, 0, 0, 0, 1]"	"[0.859013799999957, 1.2173700999992434, 1.5923879000001762, 2.1173330999990867, 2.484100900001067, 2.875847800001793, 3.234156400001666, 3.425869099999545, 3.609181299998454, 4.042557799999486, 4.500787299999502, 5.034283000000869, 5.559299200001988, 6.3092141000015545, 7.542634400000679]"	15	"[0.8531876000015473, 1.211549700001342, 1.5865655999987212, 2.1115005999999994, 2.4782717999987653, 2.870022200000676, 3.22832809999818, 3.4200421999994433, 3.603353899998183, 4.036734599998454, 4.494959499999823, 5.028453800001444, 5.553471200000786, 6.303381800000352, 7.536739999999554]"	"[0.9861999999993714, 1.3612566999981937, 1.7196646000011242, 2.2529850999999326, 2.577997000000323, 2.9697199000002, 3.303071300000738, 3.503187700000126, 3.7197187999991, 4.178077299999131, 4.636472199999844, 5.169823899999756, 5.678187400000752, 6.4865782000015315, 7.536744299999555]"	101.05499310000232	101.06080429999929	102.5527785000013	102.56922010000198								10	01	2024-02-06_16h05.38.898	BART_exp	2023.2.3	119.97758818697062	2024-02-06 16h05.52.116055 +0100	
balloon.png	1	0	6	6	0	102.56922010000198													102.55295409999962	102.56922010000198	102.56922010000198	102.56922010000198	102.56922010000198	102.56922010000198	-0.0008144999992509838	-0.0008144999992509838	-0.0008144999992509838	102.56922010000198	103.39612689999922	2	0.05	True	"[0.05555555555555555, 0.05555555555555555]"	"[-0.35555555555555557, -0.35555555555555557]"	"[1, 1]"	"[0, 0]"	"[0, 0]"	"[0.5254851000026974, 0.742106400000921]"	2	"[0.5224334000013187, 0.7390421999989485]"	"[0.6387080999993486, 0.8304095999992569]"	103.3966674000003	103.40260860000126	104.89461040000242	104.91937930000131								10	01	2024-02-06_16h05.38.898	BART_exp	2023.2.3	119.97758818697062	2024-02-06 16h05.52.116055 +0100	
balloon.png	84	0	7	7	19	104.91937930000131													104.89479080000092	104.91937930000131	104.91937930000131	104.91937930000131	104.91937930000131	104.91937930000131	-0.0006059000006644055	-0.0006059000006644055	-0.0006059000006644055	104.91937930000131	116.4802380000001	20	1.00	False	"[0.05555555555555555, 0.05555555555555555, 0.05555555555555555, 0.05555555555555555, 0.05555555555555555, 0.05555555555555555, 0.05555555555555555, 0.05555555555555555, 0.05555555555555555, 0.05555555555555555, 0.05555555555555555, 0.05555555555555555, 0.05555555555555555, 0.05555555555555555, 0.05555555555555555, 0.05555555555555555, 0.05555555555555555, 0.05555555555555555, 0.05555555555555555, 0.05555555555555555, 0.05555555555555555]"	"[-0.35555555555555557, -0.35555555555555557, -0.35555555555555557, -0.35555555555555557, -0.35555555555555557, -0.35555555555555557, -0.35555555555555557, -0.35555555555555557, -0.35555555555555557, -0.35555555555555557, -0.35555555555555557, -0.35555555555555557, -0.35555555555555557, -0.35555555555555557, -0.35555555555555557, -0.35555555555555557, -0.35555555555555557, -0.35555555555555557, -0.35555555555555557, -0.35555555555555557, -0.35555555555555557]"	"[1, 1, 1, 1, 1, 1, 1, 1, 1, 1, 1, 1, 1, 1, 1, 1, 1, 1, 1, 1, 0]"	"[0, 0, 0, 0, 0, 0, 0, 0, 0, 0, 0, 0, 0, 0, 0, 0, 0, 0, 0, 0, 0]"	"[0, 0, 0, 0, 0, 0, 0, 0, 0, 0, 0, 0, 0, 0, 0, 0, 0, 0, 0, 0, 1]"	"[1.150426799998968, 1.5336901000009675, 1.8421964000008302, 2.200521099999605, 2.492073599998548, 2.783986200000072, 3.1587575000012293, 3.483835300001374, 3.8590039999980945, 4.3338856999980635, 4.742211799999495, 5.242387899997993, 5.5676026000001, 5.959091000000626, 6.56747919999907, 7.443118299997877, 8.309146100000362, 9.001147399998445, 10.067595500000607, 10.942619499997818, 11.584522400000424]"	21	"[1.138870599999791, 1.522141899997223, 1.8306394999999611, 2.188965299999836, 2.4805162999982713, 2.7724277999986953, 3.1471988999983296, 3.472275299998728, 3.847446799998579, 4.3223274999982095, 4.7306618000002345, 5.230832299999747, 5.556049399998301, 5.94753320000018, 6.555924199998117, 7.431575899998279, 8.297586299999239, 8.98959509999986, 10.056038499998976, 10.931088499997713, 11.572905999997602]"	"[1.2719271999994817, 1.6552639000001363, 1.9552985999980592, 2.3387528999992355, 2.5803725000005215, 2.905356600000232, 3.288735699999961, 3.605410500000289, 3.997151199997461, 4.455509600000369, 4.83884439999747, 5.338898099998914, 5.672255999998015, 6.08892559999731, 6.697340999999142, 7.589031499999692, 8.47240949999832, 9.13080059999993, 10.189207699997496, 11.047614299997804, 11.572910399998364]"	116.4811355999991	116.4868377999992	117.97883369999909	117.99528060000011								10	01	2024-02-06_16h05.38.898	BART_exp	2023.2.3	119.97758818697062	2024-02-06 16h05.52.116055 +0100	
balloon.png	79	0	8	8	18	117.99528060000011													117.97900940000181	117.99528060000011	117.99528060000011	117.99528060000011	117.99528060000011	117.99528060000011	-0.0008108999973046593	-0.0008108999973046593	-0.0008108999973046593	117.99528060000011	128.38933610000095	19	0.95	False	"[0.05555555555555555, 0.05555555555555555, 0.05555555555555555, 0.05555555555555555, 0.05555555555555555, 0.05555555555555555, 0.05555555555555555, 0.05555555555555555, 0.05555555555555555, 0.05555555555555555, 0.05555555555555555, 0.05555555555555555, 0.05555555555555555, 0.05555555555555555, 0.05555555555555555, 0.05555555555555555, 0.05555555555555555, 0.05555555555555555, 0.05555555555555555]"	"[-0.35555555555555557, -0.35555555555555557, -0.35555555555555557, -0.35555555555555557, -0.35555555555555557, -0.35555555555555557, -0.35555555555555557, -0.35555555555555557, -0.35555555555555557, -0.35555555555555557, -0.35555555555555557, -0.35555555555555557, -0.35555555555555557, -0.35555555555555557, -0.35555555555555557, -0.35555555555555557, -0.35555555555555557, -0.35555555555555557, -0.35555555555555557]"	"[1, 1, 1, 1, 1, 1, 1, 1, 1, 1, 1, 1, 1, 1, 1, 1, 1, 1, 0]"	"[0, 0, 0, 0, 0, 0, 0, 0, 0, 0, 0, 0, 0, 0, 0, 0, 0, 0, 0]"	"[0, 0, 0, 0, 0, 0, 0, 0, 0, 0, 0, 0, 0, 0, 0, 0, 0, 0, 1]"	"[0.6587493999977596, 0.9421494999987772, 1.2671582999973907, 1.5505104000003485, 1.7837543999994523, 2.2838795999996364, 2.9589975999988383, 3.425476099997468, 3.934043599998404, 4.542399399997521, 5.042250300000887, 5.800665399998252, 6.7009023999999044, 7.434097099998326, 7.875986999999441, 8.452473900000768, 9.317562099997303, 9.634223299999576, 10.409407700000884]"	19	"[0.6513096000016958, 0.9347148000015295, 1.259717000000819, 1.5430774000014935, 1.7763129000013578, 2.27644390000205, 2.9515572000018437, 3.4180426000020816, 3.9266115999998874, 4.534959000000526, 5.034810799999832, 5.793225199999142, 6.693461099999695, 7.4266557000009925, 7.868547400001262, 8.445189199999731, 9.310124800002086, 9.626784500000213, 10.401910299999145]"	"[0.7177000000010594, 1.0510601999994833, 1.3761070000000473, 1.6261135999993712, 1.8761532999997144, 2.4011496000020998, 3.051194600000599, 3.5595585000010033, 4.059584800001176, 4.659686700000748, 5.159661900001083, 5.951403800001572, 6.8597957999991195, 7.543190500000492, 7.984884699999384, 8.593258000000787, 9.468310799999017, 9.7100371000015, 10.40191440000126]"	128.39020900000105	128.39599309999903	129.8879906000002	129.90442619999885								10	01	2024-02-06_16h05.38.898	BART_exp	2023.2.3	119.97758818697062	2024-02-06 16h05.52.116055 +0100	
balloon.png	57	0	9	9	13	129.90442619999885													129.88817380000182	129.90442619999885	129.90442619999885	129.90442619999885	129.90442619999885	129.90442619999885	-0.0007955000000947621	-0.0007955000000947621	-0.0007955000000947621	129.90442619999885	141.96513079999932	28	1.40	False	"[0.05555555555555555, 0.05555555555555555, 0.05555555555555555, 0.05555555555555555, 0.05555555555555555, 0.05555555555555555, 0.05555555555555555, 0.05555555555555555, 0.05555555555555555, 0.05555555555555555, 0.05555555555555555, 0.05555555555555555, 0.05555555555555555, 0.05555555555555555, 0.05555555555555555, 0.05555555555555555, 0.05555555555555555, 0.05555555555555555, 0.05555555555555555, 0.05555555555555555, 0.05555555555555555, 0.05555555555555555, 0.05555555555555555, 0.05555555555555555, 0.05555555555555555, 0.05555555555555555, 0.05555555555555555, 0.05555555555555555, 0.05555555555555555]"	"[-0.35555555555555557, -0.35555555555555557, -0.35555555555555557, -0.35555555555555557, -0.35555555555555557, -0.35555555555555557, -0.35555555555555557, -0.35555555555555557, -0.35555555555555557, -0.35555555555555557, -0.35555555555555557, -0.35555555555555557, -0.35555555555555557, -0.35555555555555557, -0.35555555555555557, -0.35555555555555557, -0.35555555555555557, -0.35555555555555557, -0.35555555555555557, -0.35555555555555557, -0.35555555555555557, -0.35555555555555557, -0.35555555555555557, -0.35555555555555557, -0.35555555555555557, -0.35555555555555557, -0.35555555555555557, -0.35555555555555557, -0.35555555555555557]"	"[1, 1, 1, 1, 1, 1, 1, 1, 1, 1, 1, 1, 1, 1, 1, 1, 1, 1, 1, 1, 1, 1, 1, 1, 1, 1, 1, 1, 0]"	"[0, 0, 0, 0, 0, 0, 0, 0, 0, 0, 0, 0, 0, 0, 0, 0, 0, 0, 0, 0, 0, 0, 0, 0, 0, 0, 0, 0, 0]"	"[0, 0, 0, 0, 0, 0, 0, 0, 0, 0, 0, 0, 0, 0, 0, 0, 0, 0, 0, 0, 0, 0, 0, 0, 0, 0, 0, 0, 1]"	"[0.6254614000026777, 0.8087544000009075, 1.0503013000015926, 1.2421256000016, 1.5087291000018013, 1.7588472000024922, 2.042173300000286, 2.317054700000881, 2.5838958000022103, 2.8837402000026486, 3.1839228000026196, 3.475500100001227, 3.733973300000798, 4.283839400002762, 4.759068499999557, 5.325875500002439, 5.759099300001253, 6.550838999999542, 6.8341581000022416, 7.267431000000215, 7.900978900001064, 8.375972699999693, 8.65080239999952, 8.875823900001706, 9.259245200002624, 9.85093229999984, 10.784442100000888, 11.434366800000134, 12.076028999999835]"	29	"[0.6174661000004562, 0.8007577999997011, 1.042307100000471, 1.2341247000003932, 1.5007344000005105, 1.7508546999997634, 2.034189600002719, 2.309056400001282, 2.575897900002019, 2.8757373000007647, 3.1759232000003976, 3.4674997000001895, 3.725982899999508, 4.275840700000117, 4.751071200000297, 5.317874000000302, 5.75110400000267, 6.542838600002142, 6.82615910000095, 7.259433300001547, 7.8929840000018885, 8.367977699999756, 8.642801699999836, 8.867830999999569, 9.251256800002011, 9.842933700001595, 10.776442300000781, 11.426365800001804, 12.067967300001328]"	"[0.7254444000027434, 0.9255020000018703, 1.1338396000028297, 1.350501600001735, 1.61717470000076, 1.883866100000887, 2.1755520000006072, 2.4422207000025082, 2.7173880000009376, 3.0340558999996574, 3.342315600002621, 3.6089905000008002, 3.9090023999997356, 4.442378800002189, 4.8674232000012125, 5.442698500002734, 5.892533400001412, 6.700859100001253, 6.934203400000115, 7.384241100000509, 8.025956100002077, 8.492649400002847, 8.742671500000142, 8.951030399999581, 9.376081300000806, 10.001102700000047, 10.909571200001665, 11.54290740000215, 12.067971399999806]"	141.96627190000072	141.97191740000198	143.4639098000007	143.47203609999997								10	01	2024-02-06_16h05.38.898	BART_exp	2023.2.3	119.97758818697062	2024-02-06 16h05.52.116055 +0100	
balloon.png	105	0	10	10	24	143.47203609999997													143.46409259999928	143.47203609999997	143.47203609999997	143.47203609999997	143.47203609999997	143.47203609999997	-0.0009409999984200113	-0.0009409999984200113	-0.0009409999984200113	143.47203609999997	160.408228100001	40	2.00	False	"[0.05555555555555555, 0.05555555555555555, 0.05555555555555555, 0.05555555555555555, 0.05555555555555555, 0.05555555555555555, 0.05555555555555555, 0.05555555555555555, 0.05555555555555555, 0.05555555555555555, 0.05555555555555555, 0.05555555555555555, 0.05555555555555555, 0.05555555555555555, 0.05555555555555555, 0.05555555555555555, 0.05555555555555555, 0.05555555555555555, 0.05555555555555555, 0.05555555555555555, 0.05555555555555555, 0.05555555555555555, 0.05555555555555555, 0.05555555555555555, 0.05555555555555555, 0.05555555555555555, 0.05555555555555555, 0.05555555555555555, 0.05555555555555555, 0.05555555555555555, 0.05555555555555555, 0.05555555555555555, 0.05555555555555555, 0.05555555555555555, 0.05555555555555555, 0.05555555555555555, 0.05555555555555555, 0.05555555555555555, 0.05555555555555555, 0.05555555555555555, 0.05555555555555555]"	"[-0.35555555555555557, -0.35555555555555557, -0.35555555555555557, -0.35555555555555557, -0.35555555555555557, -0.35555555555555557, -0.35555555555555557, -0.35555555555555557, -0.35555555555555557, -0.35555555555555557, -0.35555555555555557, -0.35555555555555557, -0.35555555555555557, -0.35555555555555557, -0.35555555555555557, -0.35555555555555557, -0.35555555555555557, -0.35555555555555557, -0.35555555555555557, -0.35555555555555557, -0.35555555555555557, -0.35555555555555557, -0.35555555555555557, -0.35555555555555557, -0.35555555555555557, -0.35555555555555557, -0.35555555555555557, -0.35555555555555557, -0.35555555555555557, -0.35555555555555557, -0.35555555555555557, -0.35555555555555557, -0.35555555555555557, -0.35555555555555557, -0.35555555555555557, -0.35555555555555557, -0.35555555555555557, -0.35555555555555557, -0.35555555555555557, -0.35555555555555557, -0.35555555555555557]"	"[1, 1, 1, 1, 1, 1, 1, 1, 1, 1, 1, 1, 1, 1, 1, 1, 1, 1, 1, 1, 1, 1, 1, 1, 1, 1, 1, 1, 1, 1, 1, 1, 1, 1, 1, 1, 1, 1, 1, 1, 0]"	"[0, 0, 0, 0, 0, 0, 0, 0, 0, 0, 0, 0, 0, 0, 0, 0, 0, 0, 0, 0, 0, 0, 0, 0, 0, 0, 0, 0, 0, 0, 0, 0, 0, 0, 0, 0, 0, 0, 0, 0, 0]"	"[0, 0, 0, 0, 0, 0, 0, 0, 0, 0, 0, 0, 0, 0, 0, 0, 0, 0, 0, 0, 0, 0, 0, 0, 0, 0, 0, 0, 0, 0, 0, 0, 0, 0, 0, 0, 0, 0, 0, 0, 1]"	"[0.07525620000160416, 0.5421236000001954, 0.8171707000001334, 1.0419906999995874, 1.258819400001812, 1.467010800002754, 1.7086817000017618, 2.042211200001475, 2.300399700001435, 2.5672470000026806, 2.8838424000023224, 3.292139400000451, 3.525631799999246, 3.717301500000758, 4.042202600001474, 4.3173931000019365, 4.6257518000020355, 4.892317699999694, 5.125819400000182, 5.31735739999931, 5.717305199999828, 6.300675800001045, 6.69238469999982, 7.292435400002432, 7.567628400000103, 8.167630300002202, 8.659171400002379, 9.351027600001544, 9.592740000000049, 10.03428310000163, 11.059345000001485, 11.926227899999503, 12.542928800001391, 13.159671100002015, 13.601338399999804, 14.292892200002825, 14.70967870000095, 15.092948299999989, 15.701320100000885, 16.151514500001213, 16.94323179999992]"	41	"[0.0730863999997382, 0.5399448999996821, 0.8150109999987762, 1.0398140999968746, 1.25664119999783, 1.4648305999980948, 1.7065062999972724, 2.040034599998762, 2.2982204999971145, 2.5650663999986136, 2.8816654999973252, 3.2899619999989227, 3.523453399997379, 3.715128099996946, 4.040025099999184, 4.3152137999968545, 4.623571099997207, 4.890145599998505, 5.1236422999973, 5.315183099999558, 5.715131099997961, 6.298495600000024, 6.690204599999561, 7.290257900000142, 7.565447799999674, 8.165462599998136, 8.656998099999328, 9.348850999998831, 9.590567600000213, 10.032105399997818, 11.057171499996912, 11.924048999997467, 12.540756499998679, 13.15749379999761, 13.599160300000221, 14.29071429999749, 14.70750489999773, 15.090768899997784, 15.699142899997241, 16.14934009999706, 16.940992499999993]"	"[0.1896387999986473, 0.6479555999976583, 0.9230408000003081, 1.1481965999992099, 1.3563900999979523, 1.5730929999990622, 1.8148444999969797, 2.148106699998607, 2.4565022999995563, 2.7564447999975528, 3.0231358999990334, 3.4232713999990665, 3.639846199999738, 3.856535899998562, 4.189877799999522, 4.414886700000352, 4.739901299999474, 5.006600499997148, 5.239936099998886, 5.456649299998389, 5.840127100000245, 6.44846569999936, 6.831839200000104, 7.423475499999768, 7.6818064999970375, 8.306823899998562, 8.78186099999948, 9.490318799998931, 9.690258399998129, 10.148626799997146, 11.190361400000256, 12.048752599999716, 12.648796499997843, 13.290524500000174, 13.690569099999266, 14.415786499997921, 14.815724799998861, 15.190634399998089, 15.832376599999407, 16.265739099999337, 16.940996699999232]"	160.40952990000005	160.4148535000022	161.90681770000083	161.91504519999944								10	01	2024-02-06_16h05.38.898	BART_exp	2023.2.3	119.97758818697062	2024-02-06 16h05.52.116055 +0100	
balloon.png	88	0	11	11	20	161.91504519999944													161.9069941000016	161.91504519999944	161.91504519999944	161.91504519999944	161.91504519999944	161.91504519999944	0.005575200000748737	0.005575200000748737	0.005575200000748737	161.91504519999944	171.50881990000198	27	1.35	False	"[0.05555555555555555, 0.05555555555555555, 0.05555555555555555, 0.05555555555555555, 0.05555555555555555, 0.05555555555555555, 0.05555555555555555, 0.05555555555555555, 0.05555555555555555, 0.05555555555555555, 0.05555555555555555, 0.05555555555555555, 0.05555555555555555, 0.05555555555555555, 0.05555555555555555, 0.05555555555555555, 0.05555555555555555, 0.05555555555555555, 0.05555555555555555, 0.05555555555555555, 0.05555555555555555, 0.05555555555555555, 0.05555555555555555, 0.05555555555555555, 0.05555555555555555, 0.05555555555555555, 0.05555555555555555, 0.05555555555555555]"	"[-0.35555555555555557, -0.35555555555555557, -0.35555555555555557, -0.35555555555555557, -0.35555555555555557, -0.35555555555555557, -0.35555555555555557, -0.35555555555555557, -0.35555555555555557, -0.35555555555555557, -0.35555555555555557, -0.35555555555555557, -0.35555555555555557, -0.35555555555555557, -0.35555555555555557, -0.35555555555555557, -0.35555555555555557, -0.35555555555555557, -0.35555555555555557, -0.35555555555555557, -0.35555555555555557, -0.35555555555555557, -0.35555555555555557, -0.35555555555555557, -0.35555555555555557, -0.35555555555555557, -0.35555555555555557, -0.35555555555555557]"	"[1, 1, 1, 1, 1, 1, 1, 1, 1, 1, 1, 1, 1, 1, 1, 1, 1, 1, 1, 1, 1, 1, 1, 1, 1, 1, 1, 0]"	"[0, 0, 0, 0, 0, 0, 0, 0, 0, 0, 0, 0, 0, 0, 0, 0, 0, 0, 0, 0, 0, 0, 0, 0, 0, 0, 0, 0]"	"[0, 0, 0, 0, 0, 0, 0, 0, 0, 0, 0, 0, 0, 0, 0, 0, 0, 0, 0, 0, 0, 0, 0, 0, 0, 0, 0, 1]"	"[1.183815799999138, 1.4087298000013107, 1.5920933000015793, 1.7588701999993646, 1.9422250999996322, 2.1255663000010827, 2.317278599999554, 2.5172545999994327, 2.750709200001438, 3.0675093999998353, 3.2588948999982676, 3.4338295000015933, 3.625523200000316, 3.8005198999999266, 4.19226720000006, 4.600604399998701, 4.900752000001376, 5.200626400001056, 5.6173173999995925, 6.19233929999973, 6.7008774999994785, 7.159150299998146, 7.534257200000866, 7.959161800001311, 8.526121099999727, 8.742683000000397, 9.084398999999394, 9.600907500000176]"	28	"[1.1819667999989178, 1.4068807999974524, 1.5902494999972987, 1.7570212999999058, 1.9403753999977198, 2.1237339999970573, 2.315430099999503, 2.5154057999970973, 2.748862899999949, 3.065657099999953, 3.257047099999909, 3.43198289999782, 3.6236762999978964, 3.798673499997676, 4.190418999998656, 4.59875959999772, 4.898899899999378, 5.198774799999228, 5.615470599997934, 6.190487399999256, 6.699024199999258, 7.1573067999997875, 7.532410299998446, 7.957314699997369, 8.524272999999084, 8.74083399999654, 9.082548999998835, 9.599000899997918]"	"[1.2900561999995261, 1.4816847999973106, 1.6817562999967777, 1.865117299999838, 2.0484161999993376, 2.231753599997319, 2.4234569000000192, 2.631817899997259, 2.8401288999993994, 3.16517119999844, 3.3485293999983696, 3.5236987999996927, 3.7152136999975482, 3.8985428999985743, 4.3069241999983205, 4.74025679999977, 5.006941799998458, 5.348610099998041, 5.731977899999038, 6.307052099997236, 6.840407399999094, 7.248765499996807, 7.632123899998987, 8.057279899996502, 8.640516699997534, 8.832180999997945, 9.207352799996443, 9.599005099997157]"	171.51000510000085	171.51564280000093	173.00757390000217	173.0240515000005								10	01	2024-02-06_16h05.38.898	BART_exp	2023.2.3	119.97758818697062	2024-02-06 16h05.52.116055 +0100	
balloon.png	23	0	12	12	5	173.0240515000005													173.00775409999915	173.0240515000005	173.0240515000005	173.0240515000005	173.0240515000005	173.0240515000005	-0.0009938000002875924	-0.0009938000002875924	-0.0009938000002875924	173.0240515000005	179.26801669999986	24	1.15	True	"[0.05555555555555555, 0.05555555555555555, 0.05555555555555555, 0.05555555555555555, 0.05555555555555555, 0.05555555555555555, 0.05555555555555555, 0.05555555555555555, 0.05555555555555555, 0.05555555555555555, 0.05555555555555555, 0.05555555555555555, 0.05555555555555555, 0.05555555555555555, 0.05555555555555555, 0.05555555555555555, 0.05555555555555555, 0.05555555555555555, 0.05555555555555555, 0.05555555555555555, 0.05555555555555555, 0.05555555555555555, 0.05555555555555555, 0.05555555555555555]"	"[-0.35555555555555557, -0.35555555555555557, -0.35555555555555557, -0.35555555555555557, -0.35555555555555557, -0.35555555555555557, -0.35555555555555557, -0.35555555555555557, -0.35555555555555557, -0.35555555555555557, -0.35555555555555557, -0.35555555555555557, -0.35555555555555557, -0.35555555555555557, -0.35555555555555557, -0.35555555555555557, -0.35555555555555557, -0.35555555555555557, -0.35555555555555557, -0.35555555555555557, -0.35555555555555557, -0.35555555555555557, -0.35555555555555557, -0.35555555555555557]"	"[1, 1, 1, 1, 1, 1, 1, 1, 1, 1, 1, 1, 1, 1, 1, 1, 1, 1, 1, 1, 1, 1, 1, 1]"	"[0, 0, 0, 0, 0, 0, 0, 0, 0, 0, 0, 0, 0, 0, 0, 0, 0, 0, 0, 0, 0, 0, 0, 0]"	"[0, 0, 0, 0, 0, 0, 0, 0, 0, 0, 0, 0, 0, 0, 0, 0, 0, 0, 0, 0, 0, 0, 0, 0]"	"[0.45044700000289595, 0.633868100001564, 0.8255353000022296, 1.0171865000011167, 1.200517299999774, 1.383858600001986, 1.5838753000025463, 1.7672409000006155, 1.9839200000023993, 2.167249600002833, 2.3839403000019956, 2.7422544000000926, 3.0089777000030153, 3.2089862000029825, 3.425659900000028, 3.6422374000030686, 3.933981900001527, 4.21756810000079, 4.500601800002187, 4.833957599999849, 5.292301700003009, 5.483993000001647, 5.884135899999819, 6.134218300001521]"	24	"[0.4419705000000249, 0.6253832000002149, 0.8170537000005424, 1.008700599999429, 1.1920355000002019, 1.375375300001906, 1.5753924999989977, 1.7587559000021429, 1.975434200001473, 2.1587691999993694, 2.375453299999208, 2.7337680000018736, 3.0004919999992126, 3.2005048999999417, 3.41720770000029, 3.633753900001466, 3.9254929000017, 4.209087700000964, 4.4921237000016845, 4.825471600001038, 5.283815400001913, 5.475512400000298, 5.875656100000924, 6.125733500000933]"	"[0.5250235000021348, 0.7334129000009852, 0.9167148000015004, 1.0917236000022967, 1.275101999999606, 1.458441999999195, 1.6669822000003478, 1.858441700002004, 2.0501198999991175, 2.266813300000649, 2.4834847999991325, 2.841840900000534, 3.108536700001423, 3.3085790000004636, 3.516978800002107, 3.733562900000834, 4.066929500000697, 4.333604200000991, 4.666974899999332, 4.933687299999292, 5.392047600002115, 5.5836899999994785, 5.983770099999674, 6.242196499999409]"	179.26903250000032	179.27447740000207	180.76646059999985	180.77460340000107								10	01	2024-02-06_16h05.38.898	BART_exp	2023.2.3	119.97758818697062	2024-02-06 16h05.52.116055 +0100	
balloon.png	40	0	13	13	9	180.77460340000107													180.76663840000037	180.77460340000107	180.77460340000107	180.77460340000107	180.77460340000107	180.77460340000107	0.005630399999063229			180.77460340000107	185.40156910000223	15	0.75	False	"[0.05555555555555555, 0.05555555555555555, 0.05555555555555555, 0.05555555555555555, 0.05555555555555555, 0.05555555555555555, 0.05555555555555555, 0.05555555555555555, 0.05555555555555555, 0.05555555555555555, 0.05555555555555555, 0.05555555555555555, 0.05555555555555555, 0.05555555555555555, 0.05555555555555555, 0.05555555555555555]"	"[-0.35555555555555557, -0.35555555555555557, -0.35555555555555557, -0.35555555555555557, -0.35555555555555557, -0.35555555555555557, -0.35555555555555557, -0.35555555555555557, -0.35555555555555557, -0.35555555555555557, -0.35555555555555557, -0.35555555555555557, -0.35555555555555557, -0.35555555555555557, -0.35555555555555557, -0.35555555555555557]"	"[1, 1, 1, 1, 1, 1, 1, 1, 1, 1, 1, 1, 1, 1, 1, 0]"	"[0, 0, 0, 0, 0, 0, 0, 0, 0, 0, 0, 0, 0, 0, 0, 0]"	"[0, 0, 0, 0, 0, 0, 0, 0, 0, 0, 0, 0, 0, 0, 0, 1]"	"[0.42543600000135484, 0.6338014000029943, 0.8421390000003157, 1.0504902000029688, 1.2920989000012923, 1.5838491000031354, 1.800559900002554, 1.9838647000033234, 2.1588756000019202, 2.367081100001087, 2.7421297000000777, 2.9588024000004225, 3.1255013000009058, 3.3005781000028946, 3.850682300002518, 4.634030600002006]"	16	"[0.4234949999990931, 0.6318619999983639, 0.8401933999994071, 1.0485492999978305, 1.2901552000002994, 1.5819104999973206, 1.7986135999999533, 1.9819218999982695, 2.156934499998897, 2.3651367999991635, 2.740180999997392, 2.956852399998752, 3.123553199999151, 3.2986316999995324, 3.8487410999987333, 4.632025399998383]"	"[0.5148546999989776, 0.756562099999428, 0.9482355000000098, 1.1565669999981765, 1.3732517999997071, 1.6733151000007638, 1.8816342999998596, 2.098297399999865, 2.256645199999184, 2.456672099997377, 2.831676999998308, 3.0400308999996923, 3.2150629999996454, 3.398427799998899, 3.9567887999983213, 4.6320293999997375]"	185.4025470000015	185.40825519999999	186.90022809999937	186.91668260000006								10	01	2024-02-06_16h05.38.898	BART_exp	2023.2.3	119.97758818697062	2024-02-06 16h05.52.116055 +0100	
balloon.png	118	0	14	14	27	186.91668260000006													186.90041589999964	186.91668260000006	186.91668260000006	186.91668260000006	186.91668260000006	186.91668260000006	-0.000862300003063865	-0.000862300003063865	-0.000862300003063865	186.91668260000006	197.110580200002	27	1.35	False	"[0.05555555555555555, 0.05555555555555555, 0.05555555555555555, 0.05555555555555555, 0.05555555555555555, 0.05555555555555555, 0.05555555555555555, 0.05555555555555555, 0.05555555555555555, 0.05555555555555555, 0.05555555555555555, 0.05555555555555555, 0.05555555555555555, 0.05555555555555555, 0.05555555555555555, 0.05555555555555555, 0.05555555555555555, 0.05555555555555555, 0.05555555555555555, 0.05555555555555555, 0.05555555555555555, 0.05555555555555555, 0.05555555555555555, 0.05555555555555555, 0.05555555555555555, 0.05555555555555555, 0.05555555555555555, 0.05555555555555555]"	"[-0.35555555555555557, -0.35555555555555557, -0.35555555555555557, -0.35555555555555557, -0.35555555555555557, -0.35555555555555557, -0.35555555555555557, -0.35555555555555557, -0.35555555555555557, -0.35555555555555557, -0.35555555555555557, -0.35555555555555557, -0.35555555555555557, -0.35555555555555557, -0.35555555555555557, -0.35555555555555557, -0.35555555555555557, -0.35555555555555557, -0.35555555555555557, -0.35555555555555557, -0.35555555555555557, -0.35555555555555557, -0.35555555555555557, -0.35555555555555557, -0.35555555555555557, -0.35555555555555557, -0.35555555555555557, -0.35555555555555557]"	"[1, 1, 1, 1, 1, 1, 1, 1, 1, 1, 1, 1, 1, 1, 1, 1, 1, 1, 1, 1, 1, 1, 1, 1, 1, 1, 1, 0]"	"[0, 0, 0, 0, 0, 0, 0, 0, 0, 0, 0, 0, 0, 0, 0, 0, 0, 0, 0, 0, 0, 0, 0, 0, 0, 0, 0, 0]"	"[0, 0, 0, 0, 0, 0, 0, 0, 0, 0, 0, 0, 0, 0, 0, 0, 0, 0, 0, 0, 0, 0, 0, 0, 0, 0, 0, 1]"	"[0.3919236000001547, 0.7836116999969818, 1.0337954999995418, 1.2838530999979412, 1.5088294999986829, 1.7503344999968249, 1.9836810999986483, 2.217045599998528, 2.4421999999976833, 2.675592699997651, 2.917273799997929, 3.2004376999975648, 3.642428799998015, 4.050717399997666, 4.467346800000087, 4.67578809999759, 4.875965899998846, 5.383969399998023, 5.775662399999419, 6.234138499999972, 6.750685799997882, 7.192402900000161, 7.584120699997584, 7.9674531999989995, 8.31760569999824, 9.084352099998796, 9.51755239999693, 10.209270999999717]"	28	"[0.3859515999974974, 0.777636299997539, 1.0278152999999293, 1.2778794999976526, 1.5028547999972943, 1.744371199998568, 1.9777092000003904, 2.211068199998408, 2.4362198999988323, 2.6696125999988, 2.9112996000003477, 3.1944712000004074, 3.636456599997473, 4.044741899997462, 4.461366499999713, 4.669809399998485, 4.869997499998135, 5.3779916999992565, 5.7696810999987065, 6.228158599999006, 6.744708899997931, 7.186431699999957, 7.578149299999495, 7.961471999999048, 8.311634999998205, 9.078374599997915, 9.51157400000011, 10.194974499998352]"	"[0.5024914999994508, 0.9024982999981148, 1.1608863000001293, 1.394208499998058, 1.619221999997535, 1.861049399998592, 2.102587199999107, 2.3275924999979907, 2.5692730999980995, 2.785943799997767, 3.0276665999990655, 3.3361414999999397, 3.769359899997653, 4.161041600000317, 4.577771299998858, 4.7610972999973455, 4.95277459999852, 5.52783780000027, 5.911188499998389, 6.3862389999994775, 6.886314199997287, 7.327916300000652, 7.686369499999273, 8.08630759999869, 8.444706999998743, 9.211388399999123, 9.636497499999678, 10.203220999999758]"	197.11161100000027	197.1173669000018	198.60938100000203	198.62580309999976								10	01	2024-02-06_16h05.38.898	BART_exp	2023.2.3	119.97758818697062	2024-02-06 16h05.52.116055 +0100	
balloon.png	127	0	15	15	29	198.62580309999976													198.60956960000112	198.62580309999976	198.62580309999976	198.62580309999976	198.62580309999976	198.62580309999976	-0.0008075000005192123	-0.0008075000005192123	-0.0008075000005192123	198.62580309999976	205.68615200000204	20	1.00	False	"[0.05555555555555555, 0.05555555555555555, 0.05555555555555555, 0.05555555555555555, 0.05555555555555555, 0.05555555555555555, 0.05555555555555555, 0.05555555555555555, 0.05555555555555555, 0.05555555555555555, 0.05555555555555555, 0.05555555555555555, 0.05555555555555555, 0.05555555555555555, 0.05555555555555555, 0.05555555555555555, 0.05555555555555555, 0.05555555555555555, 0.05555555555555555, 0.05555555555555555, 0.05555555555555555]"	"[-0.35555555555555557, -0.35555555555555557, -0.35555555555555557, -0.35555555555555557, -0.35555555555555557, -0.35555555555555557, -0.35555555555555557, -0.35555555555555557, -0.35555555555555557, -0.35555555555555557, -0.35555555555555557, -0.35555555555555557, -0.35555555555555557, -0.35555555555555557, -0.35555555555555557, -0.35555555555555557, -0.35555555555555557, -0.35555555555555557, -0.35555555555555557, -0.35555555555555557, -0.35555555555555557]"	"[1, 1, 1, 1, 1, 1, 1, 1, 1, 1, 1, 1, 1, 1, 1, 1, 1, 1, 1, 1, 0]"	"[0, 0, 0, 0, 0, 0, 0, 0, 0, 0, 0, 0, 0, 0, 0, 0, 0, 0, 0, 0, 0]"	"[0, 0, 0, 0, 0, 0, 0, 0, 0, 0, 0, 0, 0, 0, 0, 0, 0, 0, 0, 0, 1]"	"[0.5254836999993131, 0.8169202999997651, 1.0252786999990349, 1.2503030999978364, 1.4670100999974238, 1.7588249999971595, 2.0670944999983476, 2.292234999997163, 2.5173536999973294, 2.7339028999995207, 2.943760199999815, 3.1505985999974655, 3.4839154000001145, 3.7256713999995554, 3.983982999998261, 4.250499999998283, 4.608881399999518, 5.285263300000224, 5.650706899999932, 6.084103499997582, 7.075687999997172]"	21	"[0.5187436999985948, 0.8101795999973547, 1.018538999996963, 1.2435600999997405, 1.4602664999983972, 1.7520814999988943, 2.06035509999856, 2.2855026999968686, 2.510611300000164, 2.727160599999479, 2.9371727999969153, 3.1438544999982696, 3.477172299997619, 3.718927399997483, 3.977239499999996, 4.243753099999594, 4.60213549999753, 5.278685099998256, 5.643970999997691, 6.077369200000248, 7.068881299997884]"	"[0.6600390999992669, 0.8850877999975637, 1.1198139999978594, 1.3351935999999114, 1.568447899997409, 1.8684814999978698, 2.176809399999911, 2.3935754999984056, 2.6268653999977687, 2.8351810999993177, 3.068555899997591, 3.2935403999981645, 3.593560899997101, 3.860260899997229, 4.110339999999269, 4.368668699997215, 4.735306999999011, 5.402038699998229, 5.743862399998761, 6.193737300000066, 7.068885399999999]"	205.68710809999902	205.69295710000006	207.18499620000148	207.20972610000172								10	01	2024-02-06_16h05.38.898	BART_exp	2023.2.3	119.97758818697062	2024-02-06 16h05.52.116055 +0100	
balloon.png	36	0	16	16	8	207.20972610000172													207.18517699999938	207.20972610000172	207.20972610000172	207.20972610000172	207.20972610000172	207.20972610000172	-0.0005597999988822266	-0.0005597999988822266	-0.0005597999988822266	207.20972610000172	215.60354830000142	22	1.10	False	"[0.05555555555555555, 0.05555555555555555, 0.05555555555555555, 0.05555555555555555, 0.05555555555555555, 0.05555555555555555, 0.05555555555555555, 0.05555555555555555, 0.05555555555555555, 0.05555555555555555, 0.05555555555555555, 0.05555555555555555, 0.05555555555555555, 0.05555555555555555, 0.05555555555555555, 0.05555555555555555, 0.05555555555555555, 0.05555555555555555, 0.05555555555555555, 0.05555555555555555, 0.05555555555555555, 0.05555555555555555, 0.05555555555555555]"	"[-0.35555555555555557, -0.35555555555555557, -0.35555555555555557, -0.35555555555555557, -0.35555555555555557, -0.35555555555555557, -0.35555555555555557, -0.35555555555555557, -0.35555555555555557, -0.35555555555555557, -0.35555555555555557, -0.35555555555555557, -0.35555555555555557, -0.35555555555555557, -0.35555555555555557, -0.35555555555555557, -0.35555555555555557, -0.35555555555555557, -0.35555555555555557, -0.35555555555555557, -0.35555555555555557, -0.35555555555555557, -0.35555555555555557]"	"[1, 1, 1, 1, 1, 1, 1, 1, 1, 1, 1, 1, 1, 1, 1, 1, 1, 1, 1, 1, 1, 1, 0]"	"[0, 0, 0, 0, 0, 0, 0, 0, 0, 0, 0, 0, 0, 0, 0, 0, 0, 0, 0, 0, 0, 0, 0]"	"[0, 0, 0, 0, 0, 0, 0, 0, 0, 0, 0, 0, 0, 0, 0, 0, 0, 0, 0, 0, 0, 0, 1]"	"[0.5003304999991087, 0.7920841999984987, 0.9837584999986575, 1.1837484999996377, 1.3920973999993294, 1.6253758999991987, 2.3671699999977136, 2.583851699997467, 2.8005632999993395, 3.0337360999983503, 3.3172129999984463, 3.6005856999981916, 3.850439899997582, 4.1004895999976725, 4.3589694000002055, 4.658942099998967, 4.917348099999799, 5.217229899997619, 5.567393699999229, 6.000703599998815, 6.850641099998029, 7.417369599999802, 8.417446299998119]"	23	"[0.48939469999822904, 0.7811603999980434, 0.9728184999985388, 1.1728122999993502, 1.3811550999998872, 1.6144295999984024, 2.3562263999992865, 2.5729118999988714, 2.789620499999728, 3.02280189999874, 3.306274200000189, 3.5896461000011186, 3.8395008000006783, 4.089549199998146, 4.34802689999924, 4.647997899999609, 4.906403199998749, 5.206285600001138, 5.55645160000131, 5.98977929999819, 6.839707700000872, 7.406429099999514, 8.406447099998331]"	"[0.6141277999995509, 0.8724837999980082, 1.0808183000008285, 1.2725148999998055, 1.4891843000004883, 2.2725639999989653, 2.4892902999999933, 2.6976271999992605, 2.905950699998357, 3.147648599999229, 3.430981299999985, 3.68933399999878, 3.981064799998421, 4.206035499999416, 4.514382500001375, 4.781142600000749, 5.072780099999363, 5.3477855999990425, 5.714562400000432, 6.097952699998132, 6.989601199999015, 7.564605700001266, 8.40645460000087]"	215.60450280000077	215.61033790000147	217.10228030000144	217.11873969999942								10	01	2024-02-06_16h05.38.898	BART_exp	2023.2.3	119.97758818697062	2024-02-06 16h05.52.116055 +0100	
balloon.png	71	0	17	17	16	217.11873969999942													217.10245510000095	217.11873969999942	217.11873969999942	217.11873969999942	217.11873969999942	217.11873969999942	-0.0007846000007702969	-0.0007846000007702969	-0.0007846000007702969	217.11873969999942	231.78812010000183	43	2.15	False	"[0.05555555555555555, 0.05555555555555555, 0.05555555555555555, 0.05555555555555555, 0.05555555555555555, 0.05555555555555555, 0.05555555555555555, 0.05555555555555555, 0.05555555555555555, 0.05555555555555555, 0.05555555555555555, 0.05555555555555555, 0.05555555555555555, 0.05555555555555555, 0.05555555555555555, 0.05555555555555555, 0.05555555555555555, 0.05555555555555555, 0.05555555555555555, 0.05555555555555555, 0.05555555555555555, 0.05555555555555555, 0.05555555555555555, 0.05555555555555555, 0.05555555555555555, 0.05555555555555555, 0.05555555555555555, 0.05555555555555555, 0.05555555555555555, 0.05555555555555555, 0.05555555555555555, 0.05555555555555555, 0.05555555555555555, 0.05555555555555555, 0.05555555555555555, 0.05555555555555555, 0.05555555555555555, 0.05555555555555555, 0.05555555555555555, 0.05555555555555555, 0.05555555555555555, 0.05555555555555555, 0.05555555555555555, 0.05555555555555555]"	"[-0.35555555555555557, -0.35555555555555557, -0.35555555555555557, -0.35555555555555557, -0.35555555555555557, -0.35555555555555557, -0.35555555555555557, -0.35555555555555557, -0.35555555555555557, -0.35555555555555557, -0.35555555555555557, -0.35555555555555557, -0.35555555555555557, -0.35555555555555557, -0.35555555555555557, -0.35555555555555557, -0.35555555555555557, -0.35555555555555557, -0.35555555555555557, -0.35555555555555557, -0.35555555555555557, -0.35555555555555557, -0.35555555555555557, -0.35555555555555557, -0.35555555555555557, -0.35555555555555557, -0.35555555555555557, -0.35555555555555557, -0.35555555555555557, -0.35555555555555557, -0.35555555555555557, -0.35555555555555557, -0.35555555555555557, -0.35555555555555557, -0.35555555555555557, -0.35555555555555557, -0.35555555555555557, -0.35555555555555557, -0.35555555555555557, -0.35555555555555557, -0.35555555555555557, -0.35555555555555557, -0.35555555555555557, -0.35555555555555557]"	"[1, 1, 1, 1, 1, 1, 1, 1, 1, 1, 1, 1, 1, 1, 1, 1, 1, 1, 1, 1, 1, 1, 1, 1, 1, 1, 1, 1, 1, 1, 1, 1, 1, 1, 1, 1, 1, 1, 1, 1, 1, 1, 1, 0]"	"[0, 0, 0, 0, 0, 0, 0, 0, 0, 0, 0, 0, 0, 0, 0, 0, 0, 0, 0, 0, 0, 0, 0, 0, 0, 0, 0, 0, 0, 0, 0, 0, 0, 0, 0, 0, 0, 0, 0, 0, 0, 0, 0, 0]"	"[0, 0, 0, 0, 0, 0, 0, 0, 0, 0, 0, 0, 0, 0, 0, 0, 0, 0, 0, 0, 0, 0, 0, 0, 0, 0, 0, 0, 0, 0, 0, 0, 0, 0, 0, 0, 0, 0, 0, 0, 0, 0, 0, 1]"	"[0.40044530000159284, 0.6004654999997001, 0.8422877999983029, 1.0755304000012984, 1.29199570000128, 1.500348400000803, 1.7087119999996503, 1.9170460999994248, 2.1588053999985277, 2.5337590999988606, 2.958922199999506, 3.392368799999531, 3.8006424000013794, 4.2507312999987334, 4.900601599998481, 5.242432700000791, 5.542304899998271, 5.74229700000069, 6.000815700001112, 6.267614799999137, 6.534052999999403, 6.959193300001061, 7.50076419999823, 7.967588499999692, 8.384354500001791, 8.684183699999267, 8.942561299998488, 9.19275099999868, 9.434376500001235, 9.667578500000673, 10.276099200000317, 10.759457100000873, 11.067734299998847, 11.417917499999021, 11.75119899999845, 12.042922900000121, 12.251260699998966, 12.442919699999038, 12.801324500000192, 12.993084500001714, 13.193007000001671, 13.86803399999917, 14.226387499998964, 14.684735899998486]"	44	"[0.3971094999978959, 0.597134299998288, 0.8389554999994289, 1.0721929999999702, 1.288656799999444, 1.4970074999982899, 1.7053742999996757, 1.9137138999976742, 2.155481799996778, 2.5304232999988017, 2.9555850999968243, 3.389032599996426, 3.7973019999990356, 4.247422799999185, 4.89726359999986, 5.239093599997432, 5.538973699996859, 5.738960899998347, 5.997478399996908, 6.264277199999924, 6.530712199997652, 6.9558603999976185, 7.497428399998171, 7.964249899996503, 8.381020799999533, 8.6808484999965, 8.939221799999359, 9.189417899997352, 9.431043899996439, 9.664243099996384, 10.272761399999581, 10.756117899996752, 11.064400299997942, 11.414579599997523, 11.739681899998686, 12.039586699997017, 12.247931099998823, 12.439585899999656, 12.797986199999286, 12.989751699999033, 13.18966999999975, 13.864702699996997, 14.223049499996705, 14.681336499997997]"	"[0.4801233999969554, 0.7134761999986949, 0.9470046999995247, 1.1635308999975678, 1.3885172999980568, 1.605249999996886, 1.813559799997165, 2.0219680999980483, 2.2635832999985723, 2.646941999999399, 3.0886296999997285, 3.4970732999972824, 3.9053824999973585, 4.355558799998107, 5.005485199999384, 5.372126799997204, 5.622140799998306, 5.847170699998969, 6.115316599996731, 6.3805237999986275, 6.672221199998603, 7.089024099997914, 7.647368299996742, 8.097311899997294, 8.539078699999664, 8.797410399998626, 9.072376499996608, 9.30571869999767, 9.522425099999964, 9.814095799996721, 10.414158399998996, 10.855836899998394, 11.172522099997877, 11.530888499997673, 11.855919899997389, 12.139404499997909, 12.33094809999966, 12.505939799997577, 12.905977199996414, 13.114338299998053, 13.231061899998167, 13.972750899996754, 14.322796799999196, 14.681340599996474]"	231.7895544000021	231.79475939999975	233.28671300000133	233.2948534999996								10	01	2024-02-06_16h05.38.898	BART_exp	2023.2.3	119.97758818697062	2024-02-06 16h05.52.116055 +0100	
balloon.png	101	0	18	18	23	233.2948534999996													233.2868923999995	233.2948534999996	233.2948534999996	233.2948534999996	233.2948534999996	233.2948534999996	0.005361700001230929	0.005361700001230929	0.005361700001230929	233.2948534999996	241.82193380000172	32	1.60	False	"[0.05555555555555555, 0.05555555555555555, 0.05555555555555555, 0.05555555555555555, 0.05555555555555555, 0.05555555555555555, 0.05555555555555555, 0.05555555555555555, 0.05555555555555555, 0.05555555555555555, 0.05555555555555555, 0.05555555555555555, 0.05555555555555555, 0.05555555555555555, 0.05555555555555555, 0.05555555555555555, 0.05555555555555555, 0.05555555555555555, 0.05555555555555555, 0.05555555555555555, 0.05555555555555555, 0.05555555555555555, 0.05555555555555555, 0.05555555555555555, 0.05555555555555555, 0.05555555555555555, 0.05555555555555555, 0.05555555555555555, 0.05555555555555555, 0.05555555555555555, 0.05555555555555555, 0.05555555555555555, 0.05555555555555555]"	"[-0.35555555555555557, -0.35555555555555557, -0.35555555555555557, -0.35555555555555557, -0.35555555555555557, -0.35555555555555557, -0.35555555555555557, -0.35555555555555557, -0.35555555555555557, -0.35555555555555557, -0.35555555555555557, -0.35555555555555557, -0.35555555555555557, -0.35555555555555557, -0.35555555555555557, -0.35555555555555557, -0.35555555555555557, -0.35555555555555557, -0.35555555555555557, -0.35555555555555557, -0.35555555555555557, -0.35555555555555557, -0.35555555555555557, -0.35555555555555557, -0.35555555555555557, -0.35555555555555557, -0.35555555555555557, -0.35555555555555557, -0.35555555555555557, -0.35555555555555557, -0.35555555555555557, -0.35555555555555557, -0.35555555555555557]"	"[1, 1, 1, 1, 1, 1, 1, 1, 1, 1, 1, 1, 1, 1, 1, 1, 1, 1, 1, 1, 1, 1, 1, 1, 1, 1, 1, 1, 1, 1, 1, 1, 0]"	"[0, 0, 0, 0, 0, 0, 0, 0, 0, 0, 0, 0, 0, 0, 0, 0, 0, 0, 0, 0, 0, 0, 0, 0, 0, 0, 0, 0, 0, 0, 0, 0, 0]"	"[0, 0, 0, 0, 0, 0, 0, 0, 0, 0, 0, 0, 0, 0, 0, 0, 0, 0, 0, 0, 0, 0, 0, 0, 0, 0, 0, 0, 0, 0, 0, 0, 1]"	"[0.8505103000024974, 1.0171811000000162, 1.208856500001275, 1.417202600001474, 1.592207800000324, 1.7672358000017994, 1.9505902000018978, 2.1171184000013454, 2.3004569000004267, 2.4921398000005865, 2.6672787000024982, 2.858955200001219, 3.0754929000031552, 3.358918800000538, 3.575706400002673, 3.7758860000030836, 3.942359700002271, 4.142411200002243, 4.325576600000204, 4.525610400000005, 4.717271800000162, 4.9173008000034315, 5.100623700000142, 5.484004700003425, 5.69237190000058, 6.134031000001414, 6.542390100003104, 7.050905900003272, 7.250956900003075, 7.425984299999982, 7.584299100002681, 7.759314000002632, 8.534163400003308]"	33	"[0.8486573999980465, 1.0153155000007246, 1.2069969999975, 1.4153378999981214, 1.590348300000187, 1.7653735999992932, 1.9487234000007447, 2.115253699997993, 2.2985931999974127, 2.4902766999985033, 2.6654892999977164, 2.8570951000001514, 3.073626699999295, 3.3570598999976937, 3.5738495999976294, 3.7740239999984624, 3.9405048999979044, 4.140554099998553, 4.323715799997444, 4.52374939999936, 4.715408000000025, 4.915445599999657, 5.09875749999992, 5.482141699998465, 5.690506299997651, 6.132168500000262, 6.5405291999995825, 7.049043899998651, 7.249094399998285, 7.424119899998914, 7.58243709999806, 7.757453800000803, 8.532241099997918]"	"[0.9150341999993543, 1.1316743999996106, 1.3066870000002382, 1.4983662999984517, 1.673446500000864, 1.8400612000004912, 2.015160200000537, 2.215109000000666, 2.3984860999989905, 2.5734424000002036, 2.748598599999241, 2.9484703999987687, 3.1568162999974447, 3.448587299997598, 3.6568670999986352, 3.8735292999990634, 4.0485287999981665, 4.248549699997966, 4.423568999998679, 4.615253799998754, 4.823591399999714, 4.99860649999755, 5.1736185000008845, 5.573675899999216, 5.781989999999496, 6.257023499998468, 6.657065699997474, 7.140418899998622, 7.332106300000305, 7.50711980000051, 7.690477000000101, 7.865548800000397, 8.532245300000795]"	241.82306130000143	241.8287691000005	243.32073339999988	243.33720430000176								10	01	2024-02-06_16h05.38.898	BART_exp	2023.2.3	119.97758818697062	2024-02-06 16h05.52.116055 +0100	
balloon.png	49	0	19	19	11	243.33720430000176													243.32091330000185	243.33720430000176	243.33720430000176	243.33720430000176	243.33720430000176	243.33720430000176	-0.0009171999990940094	-0.0009171999990940094	-0.0009171999990940094	243.33720430000176	249.41432310000164	23	1.15	False	"[0.05555555555555555, 0.05555555555555555, 0.05555555555555555, 0.05555555555555555, 0.05555555555555555, 0.05555555555555555, 0.05555555555555555, 0.05555555555555555, 0.05555555555555555, 0.05555555555555555, 0.05555555555555555, 0.05555555555555555, 0.05555555555555555, 0.05555555555555555, 0.05555555555555555, 0.05555555555555555, 0.05555555555555555, 0.05555555555555555, 0.05555555555555555, 0.05555555555555555, 0.05555555555555555, 0.05555555555555555, 0.05555555555555555, 0.05555555555555555]"	"[-0.35555555555555557, -0.35555555555555557, -0.35555555555555557, -0.35555555555555557, -0.35555555555555557, -0.35555555555555557, -0.35555555555555557, -0.35555555555555557, -0.35555555555555557, -0.35555555555555557, -0.35555555555555557, -0.35555555555555557, -0.35555555555555557, -0.35555555555555557, -0.35555555555555557, -0.35555555555555557, -0.35555555555555557, -0.35555555555555557, -0.35555555555555557, -0.35555555555555557, -0.35555555555555557, -0.35555555555555557, -0.35555555555555557, -0.35555555555555557]"	"[1, 1, 1, 1, 1, 1, 1, 1, 1, 1, 1, 1, 1, 1, 1, 1, 1, 1, 1, 1, 1, 1, 1, 0]"	"[0, 0, 0, 0, 0, 0, 0, 0, 0, 0, 0, 0, 0, 0, 0, 0, 0, 0, 0, 0, 0, 0, 0, 0]"	"[0, 0, 0, 0, 0, 0, 0, 0, 0, 0, 0, 0, 0, 0, 0, 0, 0, 0, 0, 0, 0, 0, 0, 1]"	"[0.7421385999987251, 0.9671865999989677, 1.1421931000004406, 1.3339742999996815, 1.5087490000005346, 1.6837254999991274, 1.8837344999992638, 2.0671049999982642, 2.2587703999997757, 2.4587816999992356, 2.6588142000000516, 2.850582700000814, 3.033845999998448, 3.2089890999995987, 3.392356699998345, 3.5673748000008345, 3.9423917999993137, 4.134127199999057, 4.367523199998686, 4.7006079999991925, 4.892285499998252, 5.2756743999998434, 5.48402200000055, 6.09250880000036]"	24	"[0.7373392999979842, 0.9623843999979727, 1.137390799998684, 1.3291834999981802, 1.5039447999988624, 1.678925199998048, 1.8789371999992, 2.0623087999993004, 2.2539733000012347, 2.4539843999991717, 2.6540125999999873, 2.845785800000158, 3.0290421999998216, 3.2042101999977604, 3.387559599999804, 3.562570099998993, 3.937593899998319, 4.129326599999331, 4.362721099998453, 4.695805299998028, 4.887484200000472, 5.2708730999984255, 5.479220900000655, 6.087644799998088]"	"[0.8454219999985071, 1.0454334999994899, 1.2287451999982295, 1.3954172999983712, 1.595455700000457, 1.7787805999978445, 1.9621340000012424, 2.145549900000333, 2.3371646999985387, 2.5372117000006256, 2.7122018999980355, 2.912196999997832, 3.112243399998988, 3.288630299997749, 3.4789721999986796, 3.6540213999978732, 4.037290500000381, 4.245634200000495, 4.453971300001285, 4.804007800001273, 4.962366399999155, 5.354034199997841, 5.529114099997969, 6.087648900000204]"	249.41531920000125	249.42096329999913	250.91298219999953	250.9293918000003								10	01	2024-02-06_16h05.38.898	BART_exp	2023.2.3	119.97758818697062	2024-02-06 16h05.52.116055 +0100	
balloon.png	110	0	20	20	25	250.9293918000003													250.91316720000032	250.9293918000003	250.9293918000003	250.9293918000003	250.9293918000003	250.9293918000003	-0.0008887000003596768	-0.0008887000003596768	-0.0008887000003596768	250.9293918000003	264.12351910000143	48	2.40	False	"[0.05555555555555555, 0.05555555555555555, 0.05555555555555555, 0.05555555555555555, 0.05555555555555555, 0.05555555555555555, 0.05555555555555555, 0.05555555555555555, 0.05555555555555555, 0.05555555555555555, 0.05555555555555555, 0.05555555555555555, 0.05555555555555555, 0.05555555555555555, 0.05555555555555555, 0.05555555555555555, 0.05555555555555555, 0.05555555555555555, 0.05555555555555555, 0.05555555555555555, 0.05555555555555555, 0.05555555555555555, 0.05555555555555555, 0.05555555555555555, 0.05555555555555555, 0.05555555555555555, 0.05555555555555555, 0.05555555555555555, 0.05555555555555555, 0.05555555555555555, 0.05555555555555555, 0.05555555555555555, 0.05555555555555555, 0.05555555555555555, 0.05555555555555555, 0.05555555555555555, 0.05555555555555555, 0.05555555555555555, 0.05555555555555555, 0.05555555555555555, 0.05555555555555555, 0.05555555555555555, 0.05555555555555555, 0.05555555555555555, 0.05555555555555555, 0.05555555555555555, 0.05555555555555555, 0.05555555555555555, 0.05555555555555555]"	"[-0.35555555555555557, -0.35555555555555557, -0.35555555555555557, -0.35555555555555557, -0.35555555555555557, -0.35555555555555557, -0.35555555555555557, -0.35555555555555557, -0.35555555555555557, -0.35555555555555557, -0.35555555555555557, -0.35555555555555557, -0.35555555555555557, -0.35555555555555557, -0.35555555555555557, -0.35555555555555557, -0.35555555555555557, -0.35555555555555557, -0.35555555555555557, -0.35555555555555557, -0.35555555555555557, -0.35555555555555557, -0.35555555555555557, -0.35555555555555557, -0.35555555555555557, -0.35555555555555557, -0.35555555555555557, -0.35555555555555557, -0.35555555555555557, -0.35555555555555557, -0.35555555555555557, -0.35555555555555557, -0.35555555555555557, -0.35555555555555557, -0.35555555555555557, -0.35555555555555557, -0.35555555555555557, -0.35555555555555557, -0.35555555555555557, -0.35555555555555557, -0.35555555555555557, -0.35555555555555557, -0.35555555555555557, -0.35555555555555557, -0.35555555555555557, -0.35555555555555557, -0.35555555555555557, -0.35555555555555557, -0.35555555555555557]"	"[1, 1, 1, 1, 1, 1, 1, 1, 1, 1, 1, 1, 1, 1, 1, 1, 1, 1, 1, 1, 1, 1, 1, 1, 1, 1, 1, 1, 1, 1, 1, 1, 1, 1, 1, 1, 1, 1, 1, 1, 1, 1, 1, 1, 1, 1, 1, 1, 0]"	"[0, 0, 0, 0, 0, 0, 0, 0, 0, 0, 0, 0, 0, 0, 0, 0, 0, 0, 0, 0, 0, 0, 0, 0, 0, 0, 0, 0, 0, 0, 0, 0, 0, 0, 0, 0, 0, 0, 0, 0, 0, 0, 0, 0, 0, 0, 0, 0, 0]"	"[0, 0, 0, 0, 0, 0, 0, 0, 0, 0, 0, 0, 0, 0, 0, 0, 0, 0, 0, 0, 0, 0, 0, 0, 0, 0, 0, 0, 0, 0, 0, 0, 0, 0, 0, 0, 0, 0, 0, 0, 0, 0, 0, 0, 0, 0, 0, 0, 1]"	"[0.400394199998118, 0.5920826000001398, 0.7837254999976722, 0.9921168999971997, 1.1921210999971663, 1.3838061999995261, 1.5921616999985417, 1.8004735999966215, 2.267225799998414, 2.608863099998416, 2.783858099999634, 3.008881299996574, 3.2005632000000332, 3.375588599999901, 3.558923099997628, 3.7506221999974514, 3.9339436999980535, 4.1256607999966945, 4.317507799998566, 4.508995899999718, 4.758999999998196, 5.000683399997797, 5.225722799998039, 5.55072399999699, 5.800590999999258, 6.035078099997918, 6.250619399997959, 6.45065379999869, 6.633980699996755, 6.825668099998438, 7.025704399999086, 7.400855599997158, 7.634151399997791, 7.825779699996929, 8.034099199998309, 8.234148699997604, 8.62577379999857, 8.85079809999661, 9.225830899998982, 9.667523899999651, 10.025875199997245, 10.275971600000048, 10.492691799998283, 10.85927399999855, 11.184445999999298, 11.475971500000014, 11.792751699998917, 12.476047499996639, 13.209412799998972]"	49	"[0.39744860000064364, 0.5891365999996196, 0.7807780000002822, 0.9891672000012477, 1.189171999998507, 1.3808556000003591, 1.5892093000002205, 1.7975279000020237, 2.264276300000347, 2.605911400001787, 2.7809037000006356, 3.005934500000876, 3.197612799998751, 3.372636899999634, 3.5559708000000683, 3.74766979999913, 3.930992099998548, 4.122717300000659, 4.314565500000754, 4.5060483000015665, 4.756055500001821, 4.997735699998884, 5.222782900000311, 5.5477759999994305, 5.797644900001615, 6.032144699998753, 6.24767200000133, 6.447707100000116, 6.631032500001311, 6.822722699998849, 7.022756099999242, 7.397904500001459, 7.6311988000015845, 7.8228316999993694, 8.03115009999965, 8.231205899999622, 8.622819200001686, 8.847849900001165, 9.222884599999816, 9.664574800000992, 10.02292320000197, 10.273019200001727, 10.489745599999878, 10.85632859999896, 11.181498599999031, 11.473020699999324, 11.789800999998988, 12.473098400001618, 13.20640049999929]"	"[0.4888207000003604, 0.6971569000015734, 0.8888178000015614, 1.0971706000018457, 1.2971911999993608, 1.4805269999997108, 1.6974181000005046, 1.913919900001929, 2.3723940000018047, 2.6889741999984835, 2.9056342000003497, 3.0973440000016126, 3.2973419000009017, 3.4723746000017854, 3.66411270000026, 3.855701600001339, 4.030714000000444, 4.239097000001493, 4.422431200000574, 4.62244389999978, 4.855778299999656, 5.0828733000016655, 5.355790199999319, 5.672518200000923, 5.897480700001324, 6.139176299999235, 6.355880099999922, 6.547555600001942, 6.7391978000014205, 6.922588299999916, 7.130950300001132, 7.505940899998677, 7.714274099998875, 7.939304800001992, 8.139357399999426, 8.322677200001635, 8.706038200001785, 8.922721300001285, 9.3310934000001, 9.772802100000263, 10.13957450000089, 10.372864900000422, 10.589564000001701, 10.964511599999241, 11.30631060000087, 11.581210600001214, 11.897914699999092, 12.581286799999361, 13.206404600001406]"	264.1249897000016	264.1302962000009	265.6222639000007	265.63043480000124								10	01	2024-02-06_16h05.38.898	BART_exp	2023.2.3	119.97758818697062	2024-02-06 16h05.52.116055 +0100	
balloon.png	10	0	21	21	2	265.63043480000124													265.62244049999936	265.63043480000124	265.63043480000124	265.63043480000124	265.63043480000124	265.63043480000124	0.005506900000909809	0.005506900000909809	0.005506900000909809	265.63043480000124	268.4575838000019	11	0.50	True	"[0.05555555555555555, 0.05555555555555555, 0.05555555555555555, 0.05555555555555555, 0.05555555555555555, 0.05555555555555555, 0.05555555555555555, 0.05555555555555555, 0.05555555555555555, 0.05555555555555555, 0.05555555555555555]"	"[-0.35555555555555557, -0.35555555555555557, -0.35555555555555557, -0.35555555555555557, -0.35555555555555557, -0.35555555555555557, -0.35555555555555557, -0.35555555555555557, -0.35555555555555557, -0.35555555555555557, -0.35555555555555557]"	"[1, 1, 1, 1, 1, 1, 1, 1, 1, 1, 1]"	"[0, 0, 0, 0, 0, 0, 0, 0, 0, 0, 0]"	"[0, 0, 0, 0, 0, 0, 0, 0, 0, 0, 0]"	"[0.7504446000020835, 0.9504376000004413, 1.1420399000016914, 1.333765700001095, 1.5337428000020736, 1.725455799998599, 1.9587585000008403, 2.1504434999988007, 2.3754546999989543, 2.567222400000901, 2.7504618000020855]"	11	"[0.7486172999997507, 0.9485882999979367, 1.140188900000794, 1.331934599998931, 1.5318941999976232, 1.7236056000001554, 1.9569120999985898, 2.1485967000007804, 2.373608099998819, 2.565378999999666, 2.748609700000088]"	"[0.8483682999976736, 1.0318506999974488, 1.215033399999811, 1.4150604999995267, 1.606754099997488, 1.823607999998785, 2.040123599999788, 2.2567902999981015, 2.4484577999974135, 2.640121199998248, 2.823481499999616]"	268.45831929999986	268.46392950000154	269.9558834999989	269.9724098000006								10	01	2024-02-06_16h05.38.898	BART_exp	2023.2.3	119.97758818697062	2024-02-06 16h05.52.116055 +0100	
balloon.png	53	0	22	22	12	269.9724098000006													269.9560550999995	269.9724098000006	269.9724098000006	269.9724098000006	269.9724098000006	269.9724098000006	-0.0009657000009610783	-0.0009657000009610783	-0.0009657000009610783	269.9724098000006	274.1324922999993	11	0.55	False	"[0.05555555555555555, 0.05555555555555555, 0.05555555555555555, 0.05555555555555555, 0.05555555555555555, 0.05555555555555555, 0.05555555555555555, 0.05555555555555555, 0.05555555555555555, 0.05555555555555555, 0.05555555555555555, 0.05555555555555555]"	"[-0.35555555555555557, -0.35555555555555557, -0.35555555555555557, -0.35555555555555557, -0.35555555555555557, -0.35555555555555557, -0.35555555555555557, -0.35555555555555557, -0.35555555555555557, -0.35555555555555557, -0.35555555555555557, -0.35555555555555557]"	"[1, 1, 1, 1, 1, 1, 1, 1, 1, 1, 1, 0]"	"[0, 0, 0, 0, 0, 0, 0, 0, 0, 0, 0, 0]"	"[0, 0, 0, 0, 0, 0, 0, 0, 0, 0, 0, 1]"	"[0.5503654999993159, 0.8170317000003706, 1.0420177000014519, 1.2755289000015182, 1.592081099999632, 1.8672384999990754, 2.1837766999997257, 2.4257768000024953, 2.850721099999646, 3.225698900001589, 3.6089080999990983, 4.175552799999423]"	11	"[0.5401566000000457, 0.8068253000019467, 1.2653131000006397, 1.581866100001207, 1.857026699999551, 2.173558700000285, 2.415563500002463, 2.8405069000000367, 3.2154826000005414, 3.598695000000589, 4.165275800001837]"	"[0.6816375000016706, 1.1400510000021313, 1.4316795000013371, 1.7316893999995955, 1.99842080000235, 2.2835028000008606, 2.548442999999679, 2.956794900001114, 3.3234666000025754, 3.6818340999998327, 4.165280000001076]"	274.1332242999997	274.13933090000137	275.6312902999998	275.64775569999983								10	01	2024-02-06_16h05.38.898	BART_exp	2023.2.3	119.97758818697062	2024-02-06 16h05.52.116055 +0100	
balloon.png	97	0	23	23	22	275.64775569999983													275.6314643000005	275.64775569999983	275.64775569999983	275.64775569999983	275.64775569999983	275.64775569999983	-0.0005060999974375591	-0.0005060999974375591	-0.0005060999974375591	275.64775569999983	282.44990990000224	20	1.00	False	"[0.05555555555555555, 0.05555555555555555, 0.05555555555555555, 0.05555555555555555, 0.05555555555555555, 0.05555555555555555, 0.05555555555555555, 0.05555555555555555, 0.05555555555555555, 0.05555555555555555, 0.05555555555555555, 0.05555555555555555, 0.05555555555555555, 0.05555555555555555, 0.05555555555555555, 0.05555555555555555, 0.05555555555555555, 0.05555555555555555, 0.05555555555555555, 0.05555555555555555, 0.05555555555555555]"	"[-0.35555555555555557, -0.35555555555555557, -0.35555555555555557, -0.35555555555555557, -0.35555555555555557, -0.35555555555555557, -0.35555555555555557, -0.35555555555555557, -0.35555555555555557, -0.35555555555555557, -0.35555555555555557, -0.35555555555555557, -0.35555555555555557, -0.35555555555555557, -0.35555555555555557, -0.35555555555555557, -0.35555555555555557, -0.35555555555555557, -0.35555555555555557, -0.35555555555555557, -0.35555555555555557]"	"[1, 1, 1, 1, 1, 1, 1, 1, 1, 1, 1, 1, 1, 1, 1, 1, 1, 1, 1, 1, 0]"	"[0, 0, 0, 0, 0, 0, 0, 0, 0, 0, 0, 0, 0, 0, 0, 0, 0, 0, 0, 0, 0]"	"[0, 0, 0, 0, 0, 0, 0, 0, 0, 0, 0, 0, 0, 0, 0, 0, 0, 0, 0, 0, 1]"	"[0.35028460000103223, 0.5921473999987938, 0.8421273999992991, 1.4670894000009866, 1.7420487000017602, 1.959073999998509, 2.300449900001695, 2.700454300000274, 2.9005255000010948, 3.108832699999766, 3.483941499998764, 3.700539800000115, 3.9088770000016666, 4.234050600000046, 4.442389899999398, 4.767407200000889, 5.092274099999486, 5.359114899998531, 5.717329999999492, 6.118707400000858, 6.8175353000006]"	21	"[0.33736599999974715, 0.5874169999988226, 0.8373905999978888, 1.462352299997292, 1.737317199997051, 1.9543381000003137, 2.2957193000002007, 2.695721099997172, 2.8957895999992616, 3.1040971000002173, 3.4792019999986223, 3.6958068999992975, 3.904139700000087, 4.2293141999980435, 4.437656699999934, 4.762675099998887, 5.08754190000036, 5.354380999997375, 5.712606799999776, 6.1141351999976905, 6.812741899997491]"	"[0.44541190000018105, 0.6788116999996419, 0.9704638000002888, 1.5954932999993616, 1.8288316999969538, 2.053894599997875, 2.403879899997264, 2.7955757999989146, 3.0039427999981854, 3.1789197999969474, 3.562349499999982, 3.7789650999984588, 3.9956683999989764, 4.347421499998745, 4.5457069000003685, 4.895709499996883, 5.2124052999970445, 5.4790988999993715, 5.820775299998786, 6.2041471999982605, 6.812746100000368]"	282.4508616999992	282.45655629999965	283.94854589999886	283.96499100000074								10	01	2024-02-06_16h05.38.898	BART_exp	2023.2.3	119.97758818697062	2024-02-06 16h05.52.116055 +0100	
balloon.png	62	0	24	24	14	283.96499100000074													283.94872509999914	283.96499100000074	283.96499100000074	283.96499100000074	283.96499100000074	283.96499100000074	-0.0008931000011216383	-0.0008931000011216383	-0.0008931000011216383	283.96499100000074	293.83404789999986	35	1.75	False	"[0.05555555555555555, 0.05555555555555555, 0.05555555555555555, 0.05555555555555555, 0.05555555555555555, 0.05555555555555555, 0.05555555555555555, 0.05555555555555555, 0.05555555555555555, 0.05555555555555555, 0.05555555555555555, 0.05555555555555555, 0.05555555555555555, 0.05555555555555555, 0.05555555555555555, 0.05555555555555555, 0.05555555555555555, 0.05555555555555555, 0.05555555555555555, 0.05555555555555555, 0.05555555555555555, 0.05555555555555555, 0.05555555555555555, 0.05555555555555555, 0.05555555555555555, 0.05555555555555555, 0.05555555555555555, 0.05555555555555555, 0.05555555555555555, 0.05555555555555555, 0.05555555555555555, 0.05555555555555555, 0.05555555555555555, 0.05555555555555555, 0.05555555555555555, 0.05555555555555555]"	"[-0.35555555555555557, -0.35555555555555557, -0.35555555555555557, -0.35555555555555557, -0.35555555555555557, -0.35555555555555557, -0.35555555555555557, -0.35555555555555557, -0.35555555555555557, -0.35555555555555557, -0.35555555555555557, -0.35555555555555557, -0.35555555555555557, -0.35555555555555557, -0.35555555555555557, -0.35555555555555557, -0.35555555555555557, -0.35555555555555557, -0.35555555555555557, -0.35555555555555557, -0.35555555555555557, -0.35555555555555557, -0.35555555555555557, -0.35555555555555557, -0.35555555555555557, -0.35555555555555557, -0.35555555555555557, -0.35555555555555557, -0.35555555555555557, -0.35555555555555557, -0.35555555555555557, -0.35555555555555557, -0.35555555555555557, -0.35555555555555557, -0.35555555555555557, -0.35555555555555557]"	"[1, 1, 1, 1, 1, 1, 1, 1, 1, 1, 1, 1, 1, 1, 1, 1, 1, 1, 1, 1, 1, 1, 1, 1, 1, 1, 1, 1, 1, 1, 1, 1, 1, 1, 1, 0]"	"[0, 0, 0, 0, 0, 0, 0, 0, 0, 0, 0, 0, 0, 0, 0, 0, 0, 0, 0, 0, 0, 0, 0, 0, 0, 0, 0, 0, 0, 0, 0, 0, 0, 0, 0, 0]"	"[0, 0, 0, 0, 0, 0, 0, 0, 0, 0, 0, 0, 0, 0, 0, 0, 0, 0, 0, 0, 0, 0, 0, 0, 0, 0, 0, 0, 0, 0, 0, 0, 0, 0, 0, 1]"	"[0.47551020000173594, 0.7004627999995137, 0.8754981000020052, 1.0338441000021703, 1.2088022000025376, 1.4003773000004003, 1.5836858000002394, 1.7753778000005696, 1.9503697000000102, 2.1420628000014403, 2.3254068000023835, 2.5338967999996385, 2.733764799999335, 2.958838900001865, 3.1505001000004995, 3.36713729999974, 3.600488800002495, 3.8757143000002543, 4.1338508000008005, 4.400544000000082, 5.042411300000822, 5.359015000001818, 5.5506421999998565, 5.725639500000398, 5.934014099999331, 6.317365599999903, 6.52585370000088, 6.717438700001367, 7.100934800000687, 7.400777300001209, 7.784195899999759, 8.276163099999394, 8.501060200000211, 8.892750800001522, 9.367550400002074, 9.8844233000018]"	36	"[0.4685563999992155, 0.6935028000007151, 0.8685364999982994, 1.0268818999975338, 1.201852800000779, 1.3934245999989798, 1.5767250999997486, 1.7684267000004184, 1.943409999999858, 2.1351022999988345, 2.3184507000005397, 2.526941000000079, 2.726813099998253, 2.9518874999994296, 3.143548500000179, 3.3601893999984895, 3.593537099997775, 3.8687610999986646, 4.126894999997603, 4.393587099999422, 5.035451499999908, 5.352062099998875, 5.543684199998097, 5.718680599999061, 5.927053200000955, 6.310409999998228, 6.51890049999929, 6.710487899999862, 7.093981999998505, 7.393816699997842, 7.777247199999692, 8.269204100000934, 8.494105499998113, 8.885804699999426, 9.360589799998706, 9.877401300000201]"	"[0.5681939999994938, 0.7682093999974313, 0.9515926999993098, 1.1349743999999191, 1.30989960000079, 1.4932273999984318, 1.6682531000005838, 1.851646899998741, 2.034952499998326, 2.218350200000714, 2.4182952999981353, 2.62665940000079, 2.818325599997479, 3.0433615000001737, 3.2433605000005628, 3.443381099998078, 3.67675650000092, 3.9934150999979465, 4.251772299998265, 4.518480099999579, 5.168481199998496, 5.426918499997555, 5.626908399997774, 5.810190199998033, 6.010313299997506, 6.410239299999375, 6.593597700000828, 6.785262400000647, 7.202002800000628, 7.518647599998076, 7.877075899999909, 8.36873790000027, 8.585414699999092, 8.98545649999869, 9.477109100000234, 9.877405399998679]"	293.8352742999996	293.84066449999955	295.33262169999944	295.34078640000007								10	01	2024-02-06_16h05.38.898	BART_exp	2023.2.3	119.97758818697062	2024-02-06 16h05.52.116055 +0100	
balloon.png	31	0	25	25	7	295.34078640000007													295.332796900002	295.34078640000007	295.34078640000007	295.34078640000007	295.34078640000007	295.34078640000007	0.0055787999990570825	0.0055787999990570825	0.0055787999990570825	295.34078640000007	303.65965190000134	28	1.40	False	"[0.05555555555555555, 0.05555555555555555, 0.05555555555555555, 0.05555555555555555, 0.05555555555555555, 0.05555555555555555, 0.05555555555555555, 0.05555555555555555, 0.05555555555555555, 0.05555555555555555, 0.05555555555555555, 0.05555555555555555, 0.05555555555555555, 0.05555555555555555, 0.05555555555555555, 0.05555555555555555, 0.05555555555555555, 0.05555555555555555, 0.05555555555555555, 0.05555555555555555, 0.05555555555555555, 0.05555555555555555, 0.05555555555555555, 0.05555555555555555, 0.05555555555555555, 0.05555555555555555, 0.05555555555555555, 0.05555555555555555, 0.05555555555555555]"	"[-0.35555555555555557, -0.35555555555555557, -0.35555555555555557, -0.35555555555555557, -0.35555555555555557, -0.35555555555555557, -0.35555555555555557, -0.35555555555555557, -0.35555555555555557, -0.35555555555555557, -0.35555555555555557, -0.35555555555555557, -0.35555555555555557, -0.35555555555555557, -0.35555555555555557, -0.35555555555555557, -0.35555555555555557, -0.35555555555555557, -0.35555555555555557, -0.35555555555555557, -0.35555555555555557, -0.35555555555555557, -0.35555555555555557, -0.35555555555555557, -0.35555555555555557, -0.35555555555555557, -0.35555555555555557, -0.35555555555555557, -0.35555555555555557]"	"[1, 1, 1, 1, 1, 1, 1, 1, 1, 1, 1, 1, 1, 1, 1, 1, 1, 1, 1, 1, 1, 1, 1, 1, 1, 1, 1, 1, 0]"	"[0, 0, 0, 0, 0, 0, 0, 0, 0, 0, 0, 0, 0, 0, 0, 0, 0, 0, 0, 0, 0, 0, 0, 0, 0, 0, 0, 0, 0]"	"[0, 0, 0, 0, 0, 0, 0, 0, 0, 0, 0, 0, 0, 0, 0, 0, 0, 0, 0, 0, 0, 0, 0, 0, 0, 0, 0, 0, 1]"	"[0.4589237000000139, 0.6671823999968183, 0.8339100999983202, 1.0172501999986707, 1.2088490999994974, 1.3920462999994925, 1.5837777999986429, 1.8089165999990655, 2.4422960999982024, 2.77548349999779, 3.1754999999975553, 3.8005918999988353, 4.19225329999972, 4.525644099998317, 4.733953699997073, 4.975642499997775, 5.350684599998203, 5.725700799997867, 5.917470999997022, 6.1007350999971095, 6.300885799999378, 6.62591059999977, 6.817589599999337, 7.002285499998834, 7.209252599997853, 7.409267600000021, 7.575883800000156, 7.767518099997687, 8.325959399997373]"	29	"[0.4570744000011473, 0.6653361000026052, 0.8320611000017379, 1.015398700001242, 1.2070046000008006, 1.3901963000025717, 1.5819284000026528, 1.8070626000007906, 2.440445500000351, 2.773628599999938, 3.173646400002326, 3.798742900002253, 4.190406699999585, 4.523798700000043, 4.732106499999645, 4.973790800002462, 5.34883439999976, 5.723854400002892, 5.915622300002724, 6.09888260000298, 6.299037400000088, 6.624061700000311, 6.815750300000218, 7.0005971000027785, 7.2074050000010175, 7.407418400001916, 7.574032600001374, 7.765664599999582, 8.324044100001629]"	"[0.5497810000015306, 0.740050100001099, 0.9400119000019913, 1.1235932000017783, 1.3068251000004238, 1.4900854000006802, 1.71508890000041, 1.9317455000018526, 2.5484759000028134, 2.8734906000026967, 3.2749763000028906, 3.9235694000017247, 4.30694510000103, 4.598610600001848, 4.823664600000484, 5.082148900000902, 5.466736400001537, 5.815562700001465, 6.007036800001515, 6.240406400000211, 6.5737585999995645, 6.6904280000017025, 6.932140200002323, 7.115437899999961, 7.298856000001251, 7.465467500001978, 7.648830500002077, 7.858584500001598, 8.324048300000868]"	303.6611417999993	303.6663804999989	305.15831869999965	305.16644780000206								10	01	2024-02-06_16h05.38.898	BART_exp	2023.2.3	119.97758818697062	2024-02-06 16h05.52.116055 +0100	
balloon.png	123	0	26	26	28	305.16644780000206													305.1585109000007	305.16644780000206	305.16644780000206	305.16644780000206	305.16644780000206	305.16644780000206	0.005369799997424707	0.005369799997424707	0.005369799997424707	305.16644780000206	312.4268379999994	31	1.55	False	"[0.05555555555555555, 0.05555555555555555, 0.05555555555555555, 0.05555555555555555, 0.05555555555555555, 0.05555555555555555, 0.05555555555555555, 0.05555555555555555, 0.05555555555555555, 0.05555555555555555, 0.05555555555555555, 0.05555555555555555, 0.05555555555555555, 0.05555555555555555, 0.05555555555555555, 0.05555555555555555, 0.05555555555555555, 0.05555555555555555, 0.05555555555555555, 0.05555555555555555, 0.05555555555555555, 0.05555555555555555, 0.05555555555555555, 0.05555555555555555, 0.05555555555555555, 0.05555555555555555, 0.05555555555555555, 0.05555555555555555, 0.05555555555555555, 0.05555555555555555, 0.05555555555555555, 0.05555555555555555]"	"[-0.35555555555555557, -0.35555555555555557, -0.35555555555555557, -0.35555555555555557, -0.35555555555555557, -0.35555555555555557, -0.35555555555555557, -0.35555555555555557, -0.35555555555555557, -0.35555555555555557, -0.35555555555555557, -0.35555555555555557, -0.35555555555555557, -0.35555555555555557, -0.35555555555555557, -0.35555555555555557, -0.35555555555555557, -0.35555555555555557, -0.35555555555555557, -0.35555555555555557, -0.35555555555555557, -0.35555555555555557, -0.35555555555555557, -0.35555555555555557, -0.35555555555555557, -0.35555555555555557, -0.35555555555555557, -0.35555555555555557, -0.35555555555555557, -0.35555555555555557, -0.35555555555555557, -0.35555555555555557]"	"[1, 1, 1, 1, 1, 1, 1, 1, 1, 1, 1, 1, 1, 1, 1, 1, 1, 1, 1, 1, 1, 1, 1, 1, 1, 1, 1, 1, 1, 1, 1, 0]"	"[0, 0, 0, 0, 0, 0, 0, 0, 0, 0, 0, 0, 0, 0, 0, 0, 0, 0, 0, 0, 0, 0, 0, 0, 0, 0, 0, 0, 0, 0, 0, 0]"	"[0, 0, 0, 0, 0, 0, 0, 0, 0, 0, 0, 0, 0, 0, 0, 0, 0, 0, 0, 0, 0, 0, 0, 0, 0, 0, 0, 0, 0, 0, 0, 1]"	"[0.4171888000018953, 0.658784300001571, 0.8338368000004266, 1.0171504000027198, 1.2341873000004853, 1.5921759000011662, 1.8255423000009614, 2.0172490000004473, 2.20072269999946, 2.3673502000019653, 2.5587744000004022, 2.7504676999997173, 2.9254478000002564, 3.1422012000002724, 3.325473200002307, 3.5421506999991834, 3.758843600000546, 4.0007928000013635, 4.317247599999973, 4.56734890000007, 4.767279100000451, 4.992476499999611, 5.250609300001088, 5.459117700000206, 5.700896000002103, 5.9173571999999695, 6.142332499999611, 6.350665600002685, 6.525705500000186, 6.709037299999181, 6.850899100001698, 7.267422799999622]"	32	"[0.4153405999968527, 0.6569571999971231, 0.8319945999974152, 1.0153011000002152, 1.23235129999739, 1.5903278999976465, 1.8236999999971886, 2.015412299999298, 2.1988863999977184, 2.365507399998023, 2.556928899997729, 2.7486216999968747, 2.923599399997329, 3.1403627999970922, 3.3236259999976028, 3.5403052999972715, 3.756993399998464, 3.9989541999966605, 4.315404699998908, 4.565502899997227, 4.765429999999469, 4.990632899996854, 5.248766299999261, 5.457271799998125, 5.699076199998672, 5.915509299997211, 6.14048769999863, 6.348816499998065, 6.523855499999627, 6.707190499997523, 6.849048699998093, 7.265510999997787]"	"[0.5232875000001513, 0.7567099999978382, 0.9483430000000226, 1.1233278999970935, 1.3317026999975496, 1.6983671999987564, 1.906719599999633, 2.098393299998861, 2.2900886999996146, 2.4652514999979758, 2.6401157999971474, 2.7735159999974712, 3.006789099999878, 3.190161899998202, 3.415156399998523, 3.623496399999567, 3.840181699997629, 4.115239199996722, 4.423620800000208, 4.648628399998415, 4.865258599998924, 5.065274900000077, 5.3736264999970444, 5.581977399997413, 5.798652899997251, 6.015345499999967, 6.2322385999978, 6.398826199998439, 6.607224599996698, 6.765426799996931, 6.948731399999815, 7.265515199997026]"	312.42807280000125	312.43364329999895	313.9255892000001	313.93377410000176								10	01	2024-02-06_16h05.38.898	BART_exp	2023.2.3	119.97758818697062	2024-02-06 16h05.52.116055 +0100	
balloon.png	92	0	27	27	21	313.93377410000176													313.9257636000002	313.93377410000176	313.93377410000176	313.93377410000176	313.93377410000176	313.93377410000176	0.00576809999984107	0.00576809999984107	0.00576809999984107	313.93377410000176	321.48584520000077	29	1.45	False	"[0.05555555555555555, 0.05555555555555555, 0.05555555555555555, 0.05555555555555555, 0.05555555555555555, 0.05555555555555555, 0.05555555555555555, 0.05555555555555555, 0.05555555555555555, 0.05555555555555555, 0.05555555555555555, 0.05555555555555555, 0.05555555555555555, 0.05555555555555555, 0.05555555555555555, 0.05555555555555555, 0.05555555555555555, 0.05555555555555555, 0.05555555555555555, 0.05555555555555555, 0.05555555555555555, 0.05555555555555555, 0.05555555555555555, 0.05555555555555555, 0.05555555555555555, 0.05555555555555555, 0.05555555555555555, 0.05555555555555555, 0.05555555555555555, 0.05555555555555555]"	"[-0.35555555555555557, -0.35555555555555557, -0.35555555555555557, -0.35555555555555557, -0.35555555555555557, -0.35555555555555557, -0.35555555555555557, -0.35555555555555557, -0.35555555555555557, -0.35555555555555557, -0.35555555555555557, -0.35555555555555557, -0.35555555555555557, -0.35555555555555557, -0.35555555555555557, -0.35555555555555557, -0.35555555555555557, -0.35555555555555557, -0.35555555555555557, -0.35555555555555557, -0.35555555555555557, -0.35555555555555557, -0.35555555555555557, -0.35555555555555557, -0.35555555555555557, -0.35555555555555557, -0.35555555555555557, -0.35555555555555557, -0.35555555555555557, -0.35555555555555557]"	"[1, 1, 1, 1, 1, 1, 1, 1, 1, 1, 1, 1, 1, 1, 1, 1, 1, 1, 1, 1, 1, 1, 1, 1, 1, 1, 1, 1, 1, 0]"	"[0, 0, 0, 0, 0, 0, 0, 0, 0, 0, 0, 0, 0, 0, 0, 0, 0, 0, 0, 0, 0, 0, 0, 0, 0, 0, 0, 0, 0, 0]"	"[0, 0, 0, 0, 0, 0, 0, 0, 0, 0, 0, 0, 0, 0, 0, 0, 0, 0, 0, 0, 0, 0, 0, 0, 0, 0, 0, 0, 0, 1]"	"[1.4754989000030037, 1.6673022000031779, 1.8505253000002995, 2.0421970000024885, 2.225607800002763, 2.4008441000005405, 2.58405440000206, 2.7837606000030064, 2.958960100000695, 3.142225800002052, 3.308932800002367, 3.50893730000098, 3.708843500000512, 3.9338606000019354, 4.1923325000025216, 4.409055100000842, 4.60913040000014, 4.78405770000245, 4.984052400002838, 5.17559760000222, 5.517338800000289, 5.7172919000004185, 5.892319200000202, 6.0508218000031775, 6.234257600001001, 6.5437449000019114, 6.767379000000801, 6.934054299999843, 7.08408220000274, 7.5591545999996015]"	30	"[1.4736119999979564, 1.665421999998216, 1.848637899998721, 2.0403125999982876, 2.223725599997124, 2.398968399997102, 2.582180099998368, 2.7818759999972826, 2.9570849999981874, 3.1403399999981048, 3.3070523999995203, 3.5070555999991484, 3.7069624999967346, 3.9319761999977345, 4.190450799997052, 4.407177899996896, 4.6072451, 4.782178899997234, 4.982170100000076, 5.173715400000219, 5.5154520999967644, 5.715404899998248, 5.890430699997523, 6.0489386999979615, 6.23238019999917, 6.5420283999992535, 6.765495499999815, 6.932170500000211, 7.082199099997524, 7.557208499998524]"	"[1.5817013999985647, 1.764988799997809, 1.9483664999970642, 2.1233756999972684, 2.315081900000223, 2.5069131999989622, 2.6734071999999287, 2.8484054999971704, 3.0317599999980303, 3.198497599998518, 3.4151496999984374, 3.581810799998493, 3.7984569000000192, 4.023482199998398, 4.290153699999792, 4.481854999998177, 4.681895699999586, 4.890311099999963, 5.073688899999979, 5.248621799997636, 5.5986075999971945, 5.790270099998452, 5.973618299998634, 6.14032589999988, 6.33204029999979, 6.673655200000212, 6.848681499999657, 7.015421999996761, 7.173713299998781, 7.557212599997001]"	321.48693450000064	321.49256289999903	322.9845557000008	323.00934029999917								10	01	2024-02-06_16h05.38.898	BART_exp	2023.2.3	119.97758818697062	2024-02-06 16h05.52.116055 +0100	
balloon.png	14	0	28	28	3	323.00934029999917													322.98473210000157	323.00934029999917	323.00934029999917	323.00934029999917	323.00934029999917	323.00934029999917	-0.0009560999969835393	-0.0009560999969835393	-0.0009560999969835393	323.00934029999917	325.88648730000205	15	0.70	True	"[0.05555555555555555, 0.05555555555555555, 0.05555555555555555, 0.05555555555555555, 0.05555555555555555, 0.05555555555555555, 0.05555555555555555, 0.05555555555555555, 0.05555555555555555, 0.05555555555555555, 0.05555555555555555, 0.05555555555555555, 0.05555555555555555, 0.05555555555555555, 0.05555555555555555]"	"[-0.35555555555555557, -0.35555555555555557, -0.35555555555555557, -0.35555555555555557, -0.35555555555555557, -0.35555555555555557, -0.35555555555555557, -0.35555555555555557, -0.35555555555555557, -0.35555555555555557, -0.35555555555555557, -0.35555555555555557, -0.35555555555555557, -0.35555555555555557, -0.35555555555555557]"	"[1, 1, 1, 1, 1, 1, 1, 1, 1, 1, 1, 1, 1, 1, 1]"	"[0, 0, 0, 0, 0, 0, 0, 0, 0, 0, 0, 0, 0, 0, 0]"	"[0, 0, 0, 0, 0, 0, 0, 0, 0, 0, 0, 0, 0, 0, 0]"	"[0.3253999999978987, 0.5170469999975467, 0.7002709999978833, 0.8336294999971869, 1.0419895999984874, 1.208826099998987, 1.3838332999985141, 1.533818699997937, 1.7088076999971236, 1.892041999999492, 2.0587091999987024, 2.2255816999968374, 2.433753599998454, 2.6255824999971082, 2.8089678999967873]"	15	"[0.31406090000018594, 0.5057034000019485, 0.6889217000025383, 0.8222850000020117, 1.0306478000020434, 1.1974805000027118, 1.3724879000001238, 1.5224759000011545, 1.6974654000005103, 1.8806973000027938, 2.0473635000016657, 2.214239600001747, 2.42240590000074, 2.6142376999996486, 2.7976240000025427]"	"[0.40542960000311723, 0.5721825000000536, 0.7387702000014542, 0.9388371000022744, 1.1055089000001317, 1.2721573000017088, 1.4471659000009822, 1.6140468000012334, 1.7806101000023773, 1.938859500001854, 2.1139054000013857, 2.3138902000027883, 2.505593100002443, 2.6972634000012476, 2.88059880000219]"	325.88736260000223	325.89286880000145	327.3848290999995	327.3929992000012								10	01	2024-02-06_16h05.38.898	BART_exp	2023.2.3	119.97758818697062	2024-02-06 16h05.52.116055 +0100	
balloon.png	5	0	29	29	1	327.3929992000012													327.3850052000016	327.3929992000012	327.3929992000012	327.3929992000012	327.3929992000012	327.3929992000012	0.005695600000763079			327.3929992000012	329.2033006999991	6	0.25	True	"[0.05555555555555555, 0.05555555555555555, 0.05555555555555555, 0.05555555555555555, 0.05555555555555555, 0.05555555555555555]"	"[-0.35555555555555557, -0.35555555555555557, -0.35555555555555557, -0.35555555555555557, -0.35555555555555557, -0.35555555555555557]"	"[1, 1, 1, 1, 1, 1]"	"[0, 0, 0, 0, 0, 0]"	"[0, 0, 0, 0, 0, 0]"	"[0.5755157000021427, 0.8086655000006431, 1.058752299999469, 1.3086822000004759, 1.5255309000021953, 1.708845700002712]"	6	"[0.5736510000024282, 0.8068000000021129, 1.0568860000021232, 1.3068077000025369, 1.5236635000001115, 1.7069757999997819]"	"[0.681656100001419, 0.8985264000002644, 1.1566979000017454, 1.4066869000016595, 1.5983672000002116, 1.8067054999992251]"	329.20391709999967	329.20980359999885	330.70172319999983	330.70986339999945								10	01	2024-02-06_16h05.38.898	BART_exp	2023.2.3	119.97758818697062	2024-02-06 16h05.52.116055 +0100	
																																														330.7017608000024	330.70986339999945	330.70986339999945	340.8275882000016	space	10.111465499998303	None	10	01	2024-02-06_16h05.38.898	BART_exp	2023.2.3	119.97758818697062	2024-02-06 16h05.52.116055 +0100	
