diceImage	d_number	dice_loop.thisRepN	dice_loop.thisTrialN	dice_loop.thisN	dice_loop.thisIndex	thisRow.t	notes	Start.started	text_start.started	continue_start.started	mouse_start.started	Start.stopped	mouse_start.x	mouse_start.y	mouse_start.leftButton	mouse_start.midButton	mouse_start.rightButton	mouse_start.time	trial.started	box_dice.started	text_dice_header.started	text_gain.started	value_gain.started	text_bank.started	value_bank.started	img_dice_1.started	img_dice_2.started	img_dice_3.started	img_dice_4.started	img_dice_5.started	img_dice_6.started	img_dice_1_2.started	img_dice_3_4.started	img_dice_5_6.started	img_dice_1_2_3.started	img_dice_4_5_6.started	img_dice_1_2_3_4.started	img_dice_2_3_4_5.started	img_dice_3_4_5_6.started	text_value_header.started	text_value_1000.started	text_value_500.started	text_value_200.started	text_value_100.started	mouse_task.started	loss_sound.started	img_dice_throw_trials.started	img_dice_throw_trials.stopped	trial.stopped	mouse_task.x	mouse_task.y	mouse_task.leftButton	mouse_task.midButton	mouse_task.rightButton	mouse_task.time	choice	gain	gain_sound.started	gain_sound.stopped	End.started	text_end.started	key_end.started	End.stopped	key_end.keys	key_end.rt	key_end.duration	participant	session	date	expName	psychopyVersion	frameRate	expStart	
								0.03870539995841682	0.04492919996846467	0.04492919996846467	0.03903320000972599	19.930239099892788	[0.6888888888888889]	[-0.4]	[1]	[0]	[0]	[19.890622700098902]																																																	25	02	2024-02-16_13h48.46.512	GDT_exp	2023.2.3	119.95412958257327	2024-02-16 13h49.02.335831 +0100	
dice_2.png	2	0	0	0	1	20.012982299900614													19.93515869998373	20.012982299900614	20.012982299900614	20.012982299900614	20.012982299900614	20.012982299900614	20.012982299900614	20.012982299900614	20.012982299900614	20.012982299900614	20.012982299900614	20.012982299900614	20.012982299900614	20.012982299900614	20.012982299900614	20.012982299900614	20.012982299900614	20.012982299900614	20.012982299900614	20.012982299900614	20.012982299900614	20.012982299900614	20.012982299900614	20.012982299900614	20.012982299900614	20.012982299900614	0.02284970006439835	3.6329617999726906	23.62993189995177	25.18833909998648	25.140614499920048	"[-0.09907407407407408, -0.10092592592592593]"	"[-0.24444444444444444, -0.12129629629629629]"	"[1, 0]"	"[0, 0]"	"[0, 1]"	"[2.911606900044717, 3.57814470003359]"	3	-200										25	02	2024-02-16_13h48.46.512	GDT_exp	2023.2.3	119.95412958257327	2024-02-16 13h49.02.335831 +0100	
dice_3.png	3	0	1	1	2	25.18833909998648													25.141417199978605	25.18833909998648	25.18833909998648	25.18833909998648	25.18833909998648	25.18833909998648	25.18833909998648	25.18833909998648	25.18833909998648	25.18833909998648	25.18833909998648	25.18833909998648	25.18833909998648	25.18833909998648	25.18833909998648	25.18833909998648	25.18833909998648	25.18833909998648	25.18833909998648	25.18833909998648	25.18833909998648	25.18833909998648	25.18833909998648	25.18833909998648	25.18833909998648	25.18833909998648	0.017680800054222345	3.08064290008042	28.288585199974477	29.87216119992081	29.824411999899894	"[0.06759259259259259, 0.044444444444444446]"	"[-0.14351851851851852, 0.0712962962962963]"	"[1, 0]"	"[0, 0]"	"[0, 1]"	"[2.6125911000417545, 3.0628418000414968]"	2	-500										25	02	2024-02-16_13h48.46.512	GDT_exp	2023.2.3	119.95412958257327	2024-02-16 13h49.02.335831 +0100	
dice_6.png	6	0	2	2	5	29.87216119992081													29.824961999896914	29.87216119992081	29.87216119992081	29.87216119992081	29.87216119992081	29.87216119992081	29.87216119992081	29.87216119992081	29.87216119992081	29.87216119992081	29.87216119992081	29.87216119992081	29.87216119992081	29.87216119992081	29.87216119992081	29.87216119992081	29.87216119992081	29.87216119992081	29.87216119992081	29.87216119992081	29.87216119992081	29.87216119992081	29.87216119992081	29.87216119992081	29.87216119992081	29.87216119992081	0.01769749994855374	1.3139330999692902	31.20545819995459	32.75556489999872	32.716322199907154	"[-0.41388888888888886, -0.20092592592592592]"	"[-0.24444444444444444, 0.2212962962962963]"	"[1, 0]"	"[0, 0]"	"[0, 1]"	"[0.771104000043124, 1.2960180999943987]"	3	-200										25	02	2024-02-16_13h48.46.512	GDT_exp	2023.2.3	119.95412958257327	2024-02-16 13h49.02.335831 +0100	
dice_1.png	1	0	3	3	0	32.75556489999872													32.7168904999271	32.75556489999872	32.75556489999872	32.75556489999872	32.75556489999872	32.75556489999872	32.75556489999872	32.75556489999872	32.75556489999872	32.75556489999872	32.75556489999872	32.75556489999872	32.75556489999872	32.75556489999872	32.75556489999872	32.75556489999872	32.75556489999872	32.75556489999872	32.75556489999872	32.75556489999872	32.75556489999872	32.75556489999872	32.75556489999872	32.75556489999872	32.75556489999872	32.75556489999872	0.014246900100260973	0.5471740000648424	33.33891960000619	34.90583979990333	34.8663804999087	"[-0.21851851851851853, -0.037037037037037035]"	"[-0.3611111111111111, 0.2]"	"[1, 0]"	"[0, 0]"	"[0, 1]"	"[0.04105080000590533, 0.5328729000175372]"	4	-100										25	02	2024-02-16_13h48.46.512	GDT_exp	2023.2.3	119.95412958257327	2024-02-16 13h49.02.335831 +0100	
dice_4.png	4	0	4	4	3	34.90583979990333													34.866956799989566	34.90583979990333	34.90583979990333	34.90583979990333	34.90583979990333	34.90583979990333	34.90583979990333	34.90583979990333	34.90583979990333	34.90583979990333	34.90583979990333	34.90583979990333	34.90583979990333	34.90583979990333	34.90583979990333	34.90583979990333	34.90583979990333	34.90583979990333	34.90583979990333	34.90583979990333	34.90583979990333	34.90583979990333	34.90583979990333	34.90583979990333	34.90583979990333	34.90583979990333	0.014563399949111044		35.68907759990543	37.272530199959874	37.22481629997492	"[-0.2898148148148148, -0.09444444444444444]"	"[-0.3490740740740741, 0.19074074074074074]"	"[1, 0]"	"[0, 0]"	"[0, 1]"	"[0.23256359994411469, 0.7408160999184474]"	4	100	0.7556359999580309	2.2892428999766707								25	02	2024-02-16_13h48.46.512	GDT_exp	2023.2.3	119.95412958257327	2024-02-16 13h49.02.335831 +0100	
dice_5.png	5	0	5	5	4	37.272530199959874													37.22534969996195	37.272530199959874	37.272530199959874	37.272530199959874	37.272530199959874	37.272530199959874	37.272530199959874	37.272530199959874	37.272530199959874	37.272530199959874	37.272530199959874	37.272530199959874	37.272530199959874	37.272530199959874	37.272530199959874	37.272530199959874	37.272530199959874	37.272530199959874	37.272530199959874	37.272530199959874	37.272530199959874	37.272530199959874	37.272530199959874	37.272530199959874	37.272530199959874	37.272530199959874	0.018195900018326938		37.906080799992196	39.48105369997211	39.4338917999994	"[0.07314814814814814, 0.003703703703703704]"	"[-0.3490740740740741, 0.08703703703703704]"	"[1, 0]"	"[0, 0]"	"[0, 1]"	"[0.05397029989399016, 0.5956761999987066]"	4	100	0.614187000086531	2.139198000077158								25	02	2024-02-16_13h48.46.512	GDT_exp	2023.2.3	119.95412958257327	2024-02-16 13h49.02.335831 +0100	
dice_2.png	2	1	0	6	1	39.48105369997211													39.43447579990607	39.48105369997211	39.48105369997211	39.48105369997211	39.48105369997211	39.48105369997211	39.48105369997211	39.48105369997211	39.48105369997211	39.48105369997211	39.48105369997211	39.48105369997211	39.48105369997211	39.48105369997211	39.48105369997211	39.48105369997211	39.48105369997211	39.48105369997211	39.48105369997211	39.48105369997211	39.48105369997211	39.48105369997211	39.48105369997211	39.48105369997211	39.48105369997211	39.48105369997211	0.01829639996867627	0.7883968000533059	40.289430899894796	41.83118259999901	41.792213299893774	"[0.03796296296296296, 0.03796296296296296]"	"[-0.35648148148148145, 0.08518518518518518]"	"[1, 0]"	"[0, 0]"	"[0, 1]"	"[0.3364124000072479, 0.7697207999881357]"	4	-100										25	02	2024-02-16_13h48.46.512	GDT_exp	2023.2.3	119.95412958257327	2024-02-16 13h49.02.335831 +0100	
dice_3.png	3	1	1	7	2	41.83118259999901													41.7927883999655	41.83118259999901	41.83118259999901	41.83118259999901	41.83118259999901	41.83118259999901	41.83118259999901	41.83118259999901	41.83118259999901	41.83118259999901	41.83118259999901	41.83118259999901	41.83118259999901	41.83118259999901	41.83118259999901	41.83118259999901	41.83118259999901	41.83118259999901	41.83118259999901	41.83118259999901	41.83118259999901	41.83118259999901	41.83118259999901	41.83118259999901	41.83118259999901	41.83118259999901	0.014906800002790987	0.6135082999244332	42.47302769997623	44.03135129995644	43.98373949993402	"[0.17777777777777778, 0.08425925925925926]"	"[-0.075, 0.10833333333333334]"	"[1, 0]"	"[0, 0]"	"[0, 1]"	"[0.1067517000483349, 0.5985203000018373]"	1	-1000										25	02	2024-02-16_13h48.46.512	GDT_exp	2023.2.3	119.95412958257327	2024-02-16 13h49.02.335831 +0100	
dice_4.png	4	1	2	8	3	44.03135129995644													43.984271699911915	44.03135129995644	44.03135129995644	44.03135129995644	44.03135129995644	44.03135129995644	44.03135129995644	44.03135129995644	44.03135129995644	44.03135129995644	44.03135129995644	44.03135129995644	44.03135129995644	44.03135129995644	44.03135129995644	44.03135129995644	44.03135129995644	44.03135129995644	44.03135129995644	44.03135129995644	44.03135129995644	44.03135129995644	44.03135129995644	44.03135129995644	44.03135129995644	44.03135129995644	0.019355199998244643	0.8139224000042304	44.87306259991601	46.41498789994512	46.375790899968706	"[-0.36203703703703705, -0.27037037037037037]"	"[-0.05, 0.17962962962962964]"	"[1, 0]"	"[0, 0]"	"[0, 1]"	"[0.3944107999559492, 0.794321299996227]"	1	-1000										25	02	2024-02-16_13h48.46.512	GDT_exp	2023.2.3	119.95412958257327	2024-02-16 13h49.02.335831 +0100	
dice_1.png	1	1	3	9	0	46.41498789994512													46.37636679993011	46.41498789994512	46.41498789994512	46.41498789994512	46.41498789994512	46.41498789994512	46.41498789994512	46.41498789994512	46.41498789994512	46.41498789994512	46.41498789994512	46.41498789994512	46.41498789994512	46.41498789994512	46.41498789994512	46.41498789994512	46.41498789994512	46.41498789994512	46.41498789994512	46.41498789994512	46.41498789994512	46.41498789994512	46.41498789994512	46.41498789994512	46.41498789994512	46.41498789994512	0.014645000104792416	0.7553348001092672	47.2067196998978	48.756704499945045	48.717177099897526	"[-0.11018518518518519, -0.06666666666666667]"	"[-0.24814814814814815, 0.08796296296296297]"	"[1, 0]"	"[0, 0]"	"[0, 1]"	"[0.22395420004613698, 0.7403046999825165]"	3	-200										25	02	2024-02-16_13h48.46.512	GDT_exp	2023.2.3	119.95412958257327	2024-02-16 13h49.02.335831 +0100	
dice_6.png	6	1	4	10	5	48.756704499945045													48.717702899943106	48.756704499945045	48.756704499945045	48.756704499945045	48.756704499945045	48.756704499945045	48.756704499945045	48.756704499945045	48.756704499945045	48.756704499945045	48.756704499945045	48.756704499945045	48.756704499945045	48.756704499945045	48.756704499945045	48.756704499945045	48.756704499945045	48.756704499945045	48.756704499945045	48.756704499945045	48.756704499945045	48.756704499945045	48.756704499945045	48.756704499945045	48.756704499945045	48.756704499945045	0.018346099997870624		49.70687130000442	51.25697489990853	51.21759909996763	"[-0.09074074074074075, -0.08981481481481482]"	"[-0.26851851851851855, 0.1648148148148148]"	"[1, 0]"	"[0, 0]"	"[0, 1]"	"[0.49559979990590364, 0.904088499955833]"	3	200	0.9225069999229163	2.4393179999897256								25	02	2024-02-16_13h48.46.512	GDT_exp	2023.2.3	119.95412958257327	2024-02-16 13h49.02.335831 +0100	
dice_5.png	5	1	5	11	4	51.25697489990853													51.21812489989679	51.25697489990853	51.25697489990853	51.25697489990853	51.25697489990853	51.25697489990853	51.25697489990853	51.25697489990853	51.25697489990853	51.25697489990853	51.25697489990853	51.25697489990853	51.25697489990853	51.25697489990853	51.25697489990853	51.25697489990853	51.25697489990853	51.25697489990853	51.25697489990853	51.25697489990853	51.25697489990853	51.25697489990853	51.25697489990853	51.25697489990853	51.25697489990853	51.25697489990853	0.014562400057911873		52.27357029996347	53.8488243999891	53.80361719999928	"[-0.12037037037037036, -0.1259259259259259]"	"[-0.26666666666666666, 0.13240740740740742]"	"[1, 0]"	"[0, 0]"	"[0, 1]"	"[0.509008500026539, 0.9740956999594346]"	3	200	0.9889271999709308	2.489075700053945								25	02	2024-02-16_13h48.46.512	GDT_exp	2023.2.3	119.95412958257327	2024-02-16 13h49.02.335831 +0100	
dice_1.png	1	2	0	12	0	53.8488243999891													53.804146499955095	53.8488243999891	53.8488243999891	53.8488243999891	53.8488243999891	53.8488243999891	53.8488243999891	53.8488243999891	53.8488243999891	53.8488243999891	53.8488243999891	53.8488243999891	53.8488243999891	53.8488243999891	53.8488243999891	53.8488243999891	53.8488243999891	53.8488243999891	53.8488243999891	53.8488243999891	53.8488243999891	53.8488243999891	53.8488243999891	53.8488243999891	53.8488243999891	53.8488243999891	0.01767999993171543		55.76562289998401	57.33253629994579	57.293058799928986	"[-0.6240740740740741, -0.42592592592592593, -0.29444444444444445]"	"[-0.35, -0.24537037037037038, 0.175]"	"[1, 1, 0]"	"[0, 0, 0]"	"[0, 0, 1]"	"[0.1268687000265345, 1.4602933999849483, 1.8768948999932036]"	3	200	1.8948186000343412	3.4199676000280306								25	02	2024-02-16_13h48.46.512	GDT_exp	2023.2.3	119.95412958257327	2024-02-16 13h49.02.335831 +0100	
dice_5.png	5	2	1	13	4	57.33253629994579													57.293619399890304	57.33253629994579	57.33253629994579	57.33253629994579	57.33253629994579	57.33253629994579	57.33253629994579	57.33253629994579	57.33253629994579	57.33253629994579	57.33253629994579	57.33253629994579	57.33253629994579	57.33253629994579	57.33253629994579	57.33253629994579	57.33253629994579	57.33253629994579	57.33253629994579	57.33253629994579	57.33253629994579	57.33253629994579	57.33253629994579	57.33253629994579	57.33253629994579	57.33253629994579	0.01798100001178682	1.3972316000144929	58.765725299948826	60.315963099943474	60.27650969999377	"[-0.4583333333333333, -0.15833333333333333, -0.25833333333333336]"	"[-0.24444444444444444, 0.2, -0.14444444444444443]"	"[1, 0, 1]"	"[0, 0, 0]"	"[0, 1, 0]"	"[0.9456318999873474, 1.378994399914518, 2.7211739999474958]"	3	-200										25	02	2024-02-16_13h48.46.512	GDT_exp	2023.2.3	119.95412958257327	2024-02-16 13h49.02.335831 +0100	
dice_3.png	3	2	2	14	2	60.315963099943474													60.277090599993244	60.315963099943474	60.315963099943474	60.315963099943474	60.315963099943474	60.315963099943474	60.315963099943474	60.315963099943474	60.315963099943474	60.315963099943474	60.315963099943474	60.315963099943474	60.315963099943474	60.315963099943474	60.315963099943474	60.315963099943474	60.315963099943474	60.315963099943474	60.315963099943474	60.315963099943474	60.315963099943474	60.315963099943474	60.315963099943474	60.315963099943474	60.315963099943474	60.315963099943474	0.014536000089719892		61.10753779998049	62.649330599932	62.609961599926464	"[-0.26851851851851855, -0.1787037037037037]"	"[-0.16666666666666666, 0.20092592592592592]"	"[1, 0]"	"[0, 0]"	"[0, 1]"	"[0.349099799990654, 0.7492770999670029]"	2	500	0.7639184000436217	2.2724006000207737								25	02	2024-02-16_13h48.46.512	GDT_exp	2023.2.3	119.95412958257327	2024-02-16 13h49.02.335831 +0100	
dice_6.png	6	2	3	15	5	62.649330599932													62.610513699939474	62.649330599932	62.649330599932	62.649330599932	62.649330599932	62.649330599932	62.649330599932	62.649330599932	62.649330599932	62.649330599932	62.649330599932	62.649330599932	62.649330599932	62.649330599932	62.649330599932	62.649330599932	62.649330599932	62.649330599932	62.649330599932	62.649330599932	62.649330599932	62.649330599932	62.649330599932	62.649330599932	62.649330599932	62.649330599932	0.014772599912248552		63.857861099997535	65.42452859994955	65.38535909994971	"[0.11944444444444445, -0.025925925925925925]"	"[-0.3592592592592593, 0.17777777777777778]"	"[1, 0]"	"[0, 0]"	"[0, 1]"	"[0.6906748999608681, 1.1656123999273404]"	4	100	1.1806821000063792	2.680832999991253								25	02	2024-02-16_13h48.46.512	GDT_exp	2023.2.3	119.95412958257327	2024-02-16 13h49.02.335831 +0100	
dice_4.png	4	2	4	16	3	65.42452859994955													65.38591239997186	65.42452859994955	65.42452859994955	65.42452859994955	65.42452859994955	65.42452859994955	65.42452859994955	65.42452859994955	65.42452859994955	65.42452859994955	65.42452859994955	65.42452859994955	65.42452859994955	65.42452859994955	65.42452859994955	65.42452859994955	65.42452859994955	65.42452859994955	65.42452859994955	65.42452859994955	65.42452859994955	65.42452859994955	65.42452859994955	65.42452859994955	65.42452859994955	65.42452859994955	0.015113600064069033	0.7637867000885308	66.21622790000401	67.81637629994657	67.77189469989389	"[0.08703703703703704, 0.08055555555555556, -0.05925925925925926]"	"[-0.15648148148148147, 0.23148148148148148, -0.24166666666666667]"	"[1, 0, 1]"	"[0, 0, 0]"	"[0, 1, 0]"	"[0.2735279999906197, 0.7484158000443131, 2.25713259994518]"	2	-500										25	02	2024-02-16_13h48.46.512	GDT_exp	2023.2.3	119.95412958257327	2024-02-16 13h49.02.335831 +0100	
dice_2.png	2	2	5	17	1	67.81637629994657													67.77246599993668	67.81637629994657	67.81637629994657	67.81637629994657	67.81637629994657	67.81637629994657	67.81637629994657	67.81637629994657	67.81637629994657	67.81637629994657	67.81637629994657	67.81637629994657	67.81637629994657	67.81637629994657	67.81637629994657	67.81637629994657	67.81637629994657	67.81637629994657	67.81637629994657	67.81637629994657	67.81637629994657	67.81637629994657	67.81637629994657	67.81637629994657	67.81637629994657	67.81637629994657	0.017813900019973516	1.0107775999931619	68.85808329994325	70.38333270000294	70.36908029997721	"[-0.12222222222222222, 0.001851851851851852]"	"[-0.24259259259259258, 0.19166666666666668]"	"[1, 0]"	"[0, 0]"	"[0, 1]"	"[0.5190890999510884, 0.9927430999232456]"	3	-200										25	02	2024-02-16_13h48.46.512	GDT_exp	2023.2.3	119.95412958257327	2024-02-16 13h49.02.335831 +0100	
																																																												70.36953709996305	70.38333270000294	70.38333270000294	80.01766379992478	space	9.63118939998094	None	25	02	2024-02-16_13h48.46.512	GDT_exp	2023.2.3	119.95412958257327	2024-02-16 13h49.02.335831 +0100	
