"diceImage"	"d_number"	"dice_loop.thisRepN"	"dice_loop.thisTrialN"	"dice_loop.thisN"	"dice_loop.thisIndex"	"thisRow.t"	"notes"	"Start.started"	"text_start.started"	"continue_start.started"	"mouse_start.started"	"Start.stopped"	"mouse_start.x"	"mouse_start.y"	"mouse_start.leftButton"	"mouse_start.midButton"	"mouse_start.rightButton"	"mouse_start.time"	"trial.started"	"box_dice.started"	"text_dice_header.started"	"text_gain.started"	"value_gain.started"	"text_bank.started"	"value_bank.started"	"img_dice_1.started"	"img_dice_2.started"	"img_dice_3.started"	"img_dice_4.started"	"img_dice_5.started"	"img_dice_6.started"	"img_dice_1_2.started"	"img_dice_3_4.started"	"img_dice_5_6.started"	"img_dice_1_2_3.started"	"img_dice_4_5_6.started"	"img_dice_1_2_3_4.started"	"img_dice_2_3_4_5.started"	"img_dice_3_4_5_6.started"	"text_value_header.started"	"text_value_1000.started"	"text_value_500.started"	"text_value_200.started"	"text_value_100.started"	"mouse_task.started"	"gain_sound.started"	"img_dice_throw_trials.started"	"gain_sound.stopped"	"img_dice_throw_trials.stopped"	"trial.stopped"	"mouse_task.x"	"mouse_task.y"	"mouse_task.leftButton"	"mouse_task.midButton"	"mouse_task.rightButton"	"mouse_task.time"	"choice"	"gain"	"loss_sound.started"	"End.started"	"text_end.started"	"key_end.started"	"End.stopped"	"key_end.keys"	"key_end.rt"	"key_end.duration"	"participant"	"session"	"date"	"expName"	"psychopyVersion"	"frameRate"	"expStart"	"...75"
NA	NA	NA	NA	NA	NA	NA	NA	0.00128769999719224	0.00588609999977052	0.00588609999977052	0.00158019999798852	16.1311784999998	"[0.6453703703703704]"	"[-0.38981481481481484]"	"[1]"	"[0]"	"[0]"	"[16.12889960000757]"	NA	NA	NA	NA	NA	NA	NA	NA	NA	NA	NA	NA	NA	NA	NA	NA	NA	NA	NA	NA	NA	NA	NA	NA	NA	NA	NA	NA	NA	NA	NA	NA	NA	NA	NA	NA	NA	NA	NA	NA	NA	NA	NA	NA	NA	NA	NA	NA	32	"02"	"2024-02-22_10h15.15.541"	"GDT_exp"	"2023.2.3"	122.107129471957	"2024-02-22 10h15.26.544636 +0100"	NA
"dice_3.png"	3	0	0	0	2	16.20681589999	NA	NA	NA	NA	NA	NA	NA	NA	NA	NA	NA	NA	16.1365281999897	16.20681589999	16.20681589999	16.20681589999	16.20681589999	16.20681589999	16.20681589999	16.20681589999	16.20681589999	16.20681589999	16.20681589999	16.20681589999	16.20681589999	16.20681589999	16.20681589999	16.20681589999	16.20681589999	16.20681589999	16.20681589999	16.20681589999	16.20681589999	16.20681589999	16.20681589999	16.20681589999	16.20681589999	16.20681589999	0.02334559999872	10.4971729999961	26.6875755999936	12.0091404999985	28.2188650000026	28.1902333000035	"[0.6472222222222223, 0.07407407407407407, 0.07407407407407407]"	"[-0.38981481481481484, -0.36203703703703705, -0.36203703703703705]"	"[1, 1, 0]"	"[0, 0, 0]"	"[0, 0, 1]"	"[0.17370710000977851, 8.611229100002674, 10.442693899996812]"	4	100	NA	NA	NA	NA	NA	NA	NA	NA	32	"02"	"2024-02-22_10h15.15.541"	"GDT_exp"	"2023.2.3"	122.107129471957	"2024-02-22 10h15.26.544636 +0100"	NA
"dice_4.png"	4	0	1	1	3	28.2188650000026	NA	NA	NA	NA	NA	NA	NA	NA	NA	NA	NA	NA	28.1910971000034	28.2188650000026	28.2188650000026	28.2188650000026	28.2188650000026	28.2188650000026	28.2188650000026	28.2188650000026	28.2188650000026	28.2188650000026	28.2188650000026	28.2188650000026	28.2188650000026	28.2188650000026	28.2188650000026	28.2188650000026	28.2188650000026	28.2188650000026	28.2188650000026	28.2188650000026	28.2188650000026	28.2188650000026	28.2188650000026	28.2188650000026	28.2188650000026	28.2188650000026	0.00885559999733232	1.25833749999583	29.5046244999976	2.76703370000178	31.0456134999986	31.0137879999966	"[-0.2111111111111111, -0.2064814814814815]"	"[-0.3648148148148148, -0.3648148148148148]"	"[1, 0]"	"[0, 0]"	"[0, 1]"	"[0.7256589999888092, 1.2492969000013545]"	4	100	NA	NA	NA	NA	NA	NA	NA	NA	32	"02"	"2024-02-22_10h15.15.541"	"GDT_exp"	"2023.2.3"	122.107129471957	"2024-02-22 10h15.26.544636 +0100"	NA
"dice_2.png"	2	0	2	2	1	31.0456134999986	NA	NA	NA	NA	NA	NA	NA	NA	NA	NA	NA	NA	31.0143646999932	31.0456134999986	31.0456134999986	31.0456134999986	31.0456134999986	31.0456134999986	31.0456134999986	31.0456134999986	31.0456134999986	31.0456134999986	31.0456134999986	31.0456134999986	31.0456134999986	31.0456134999986	31.0456134999986	31.0456134999986	31.0456134999986	31.0456134999986	31.0456134999986	31.0456134999986	31.0456134999986	31.0456134999986	31.0456134999986	31.0456134999986	31.0456134999986	31.0456134999986	0.0117876000003889	0.923730800001067	32.000397900003	2.42953229999694	33.5598942999932	33.5282421000011	"[-0.5703703703703704, -0.5703703703703704]"	"[-0.35462962962962963, -0.35462962962962963]"	"[1, 0]"	"[0, 0]"	"[0, 1]"	"[0.2201585000002524, 0.911760700008017]"	4	100	NA	NA	NA	NA	NA	NA	NA	NA	32	"02"	"2024-02-22_10h15.15.541"	"GDT_exp"	"2023.2.3"	122.107129471957	"2024-02-22 10h15.26.544636 +0100"	NA
"dice_1.png"	1	0	3	3	0	33.5598942999932	NA	NA	NA	NA	NA	NA	NA	NA	NA	NA	NA	NA	33.528839999999	33.5598942999932	33.5598942999932	33.5598942999932	33.5598942999932	33.5598942999932	33.5598942999932	33.5598942999932	33.5598942999932	33.5598942999932	33.5598942999932	33.5598942999932	33.5598942999932	33.5598942999932	33.5598942999932	33.5598942999932	33.5598942999932	33.5598942999932	33.5598942999932	33.5598942999932	33.5598942999932	33.5598942999932	33.5598942999932	33.5598942999932	33.5598942999932	33.5598942999932	0.0120788999920478	NA	34.2951309999917	NA	35.8526237999904	35.8196620999952	"[-0.23148148148148148, -0.23148148148148148, 0.07685185185185185]"	"[-0.35185185185185186, -0.35185185185185186, -0.3490740740740741]"	"[1, 0, 1]"	"[0, 0, 0]"	"[0, 1, 0]"	"[0.17201809999824036, 0.6972864999988815, 1.7388217999978224]"	4	-100	0.709641800000099	NA	NA	NA	NA	NA	NA	NA	32	"02"	"2024-02-22_10h15.15.541"	"GDT_exp"	"2023.2.3"	122.107129471957	"2024-02-22 10h15.26.544636 +0100"	NA
"dice_6.png"	6	0	4	4	5	35.8526237999904	NA	NA	NA	NA	NA	NA	NA	NA	NA	NA	NA	NA	35.8203326999937	35.8526237999904	35.8526237999904	35.8526237999904	35.8526237999904	35.8526237999904	35.8526237999904	35.8526237999904	35.8526237999904	35.8526237999904	35.8526237999904	35.8526237999904	35.8526237999904	35.8526237999904	35.8526237999904	35.8526237999904	35.8526237999904	35.8526237999904	35.8526237999904	35.8526237999904	35.8526237999904	35.8526237999904	35.8526237999904	35.8526237999904	35.8526237999904	35.8526237999904	0.00892710000334773	0.972828500001924	36.8482775000011	2.4954177000036	38.4027874000021	38.3731561000022	"[0.07685185185185185, 0.07685185185185185]"	"[-0.3490740740740741, -0.3490740740740741]"	"[1, 0]"	"[0, 0]"	"[0, 1]"	"[0.4004426000028616, 0.9637156999961007]"	4	100	NA	NA	NA	NA	NA	NA	NA	NA	32	"02"	"2024-02-22_10h15.15.541"	"GDT_exp"	"2023.2.3"	122.107129471957	"2024-02-22 10h15.26.544636 +0100"	NA
"dice_5.png"	5	0	5	5	4	38.4027874000021	NA	NA	NA	NA	NA	NA	NA	NA	NA	NA	NA	NA	38.3737867000018	38.4027874000021	38.4027874000021	38.4027874000021	38.4027874000021	38.4027874000021	38.4027874000021	38.4027874000021	38.4027874000021	38.4027874000021	38.4027874000021	38.4027874000021	38.4027874000021	38.4027874000021	38.4027874000021	38.4027874000021	38.4027874000021	38.4027874000021	38.4027874000021	38.4027874000021	38.4027874000021	38.4027874000021	38.4027874000021	38.4027874000021	38.4027874000021	38.4027874000021	0.0088841999968281	1.60615829999733	40.0380952999985	3.13104559999192	41.5926173999906	41.5600277999911	"[-0.21481481481481482, -0.21481481481481482]"	"[-0.3592592592592593, -0.3592592592592593]"	"[1, 0]"	"[0, 0]"	"[0, 1]"	"[0.7929070999962278, 1.597067499998957]"	4	100	NA	NA	NA	NA	NA	NA	NA	NA	32	"02"	"2024-02-22_10h15.15.541"	"GDT_exp"	"2023.2.3"	122.107129471957	"2024-02-22 10h15.26.544636 +0100"	NA
"dice_6.png"	6	1	0	6	5	41.5926173999906	NA	NA	NA	NA	NA	NA	NA	NA	NA	NA	NA	NA	41.5605841999932	41.5926173999906	41.5926173999906	41.5926173999906	41.5926173999906	41.5926173999906	41.5926173999906	41.5926173999906	41.5926173999906	41.5926173999906	41.5926173999906	41.5926173999906	41.5926173999906	41.5926173999906	41.5926173999906	41.5926173999906	41.5926173999906	41.5926173999906	41.5926173999906	41.5926173999906	41.5926173999906	41.5926173999906	41.5926173999906	41.5926173999906	41.5926173999906	41.5926173999906	0.0123921999911545	1.3637827999919	42.9800129999931	2.86526880000019	44.5417164999963	44.5087354999996	"[0.1398148148148148, 0.1398148148148148]"	"[-0.3611111111111111, -0.3611111111111111]"	"[1, 0]"	"[0, 0]"	"[0, 1]"	"[0.6506208000064362, 1.351202400008333]"	4	100	NA	NA	NA	NA	NA	NA	NA	NA	32	"02"	"2024-02-22_10h15.15.541"	"GDT_exp"	"2023.2.3"	122.107129471957	"2024-02-22 10h15.26.544636 +0100"	NA
"dice_5.png"	5	1	1	7	4	44.5417164999963	NA	NA	NA	NA	NA	NA	NA	NA	NA	NA	NA	NA	44.5093059999926	44.5417164999963	44.5417164999963	44.5417164999963	44.5417164999963	44.5417164999963	44.5417164999963	44.5417164999963	44.5417164999963	44.5417164999963	44.5417164999963	44.5417164999963	44.5417164999963	44.5417164999963	44.5417164999963	44.5417164999963	44.5417164999963	44.5417164999963	44.5417164999963	44.5417164999963	44.5417164999963	44.5417164999963	44.5417164999963	44.5417164999963	44.5417164999963	44.5417164999963	0.0120617999928072	1.8197247999924	46.3887961	3.33445890000439	47.9465915999899	47.9035051999963	"[-0.24259259259259258, -0.24259259259259258]"	"[-0.35555555555555557, -0.35555555555555557]"	"[1, 0]"	"[0, 0]"	"[0, 1]"	"[0.9578329999931157, 1.8073686999996426]"	4	100	NA	NA	NA	NA	NA	NA	NA	NA	32	"02"	"2024-02-22_10h15.15.541"	"GDT_exp"	"2023.2.3"	122.107129471957	"2024-02-22 10h15.26.544636 +0100"	NA
"dice_3.png"	3	1	2	8	2	47.9465915999899	NA	NA	NA	NA	NA	NA	NA	NA	NA	NA	NA	NA	47.9040787999984	47.9465915999899	47.9465915999899	47.9465915999899	47.9465915999899	47.9465915999899	47.9465915999899	47.9465915999899	47.9465915999899	47.9465915999899	47.9465915999899	47.9465915999899	47.9465915999899	47.9465915999899	47.9465915999899	47.9465915999899	47.9465915999899	47.9465915999899	47.9465915999899	47.9465915999899	47.9465915999899	47.9465915999899	47.9465915999899	47.9465915999899	47.9465915999899	47.9465915999899	0.0152176999981748	1.68163769999228	49.6415655000019	3.21052690000215	51.2051599999977	51.1716153000016	"[0.10462962962962963, 0.10462962962962963]"	"[-0.3611111111111111, -0.3611111111111111]"	"[1, 0]"	"[0, 0]"	"[0, 1]"	"[0.3948859999945853, 1.6662317999871448]"	4	100	NA	NA	NA	NA	NA	NA	NA	NA	32	"02"	"2024-02-22_10h15.15.541"	"GDT_exp"	"2023.2.3"	122.107129471957	"2024-02-22 10h15.26.544636 +0100"	NA
"dice_2.png"	2	1	3	9	1	51.2051599999977	NA	NA	NA	NA	NA	NA	NA	NA	NA	NA	NA	NA	51.1722433999967	51.2051599999977	51.2051599999977	51.2051599999977	51.2051599999977	51.2051599999977	51.2051599999977	51.2051599999977	51.2051599999977	51.2051599999977	51.2051599999977	51.2051599999977	51.2051599999977	51.2051599999977	51.2051599999977	51.2051599999977	51.2051599999977	51.2051599999977	51.2051599999977	51.2051599999977	51.2051599999977	51.2051599999977	51.2051599999977	51.2051599999977	51.2051599999977	51.2051599999977	0.0132236000063131	NA	53.2788932999974	NA	54.8309259999951	54.8003611000022	"[0.09907407407407408, 0.09907407407407408]"	"[-0.3537037037037037, -0.3537037037037037]"	"[1, 0]"	"[0, 0]"	"[0, 1]"	"[1.4620680000080029, 2.0377207999990787]"	4	-100	2.05095090001123	NA	NA	NA	NA	NA	NA	NA	32	"02"	"2024-02-22_10h15.15.541"	"GDT_exp"	"2023.2.3"	122.107129471957	"2024-02-22 10h15.26.544636 +0100"	NA
"dice_1.png"	1	1	4	10	0	54.8309259999951	NA	NA	NA	NA	NA	NA	NA	NA	NA	NA	NA	NA	54.8010321000038	54.8309259999951	54.8309259999951	54.8309259999951	54.8309259999951	54.8309259999951	54.8309259999951	54.8309259999951	54.8309259999951	54.8309259999951	54.8309259999951	54.8309259999951	54.8309259999951	54.8309259999951	54.8309259999951	54.8309259999951	54.8309259999951	54.8309259999951	54.8309259999951	54.8309259999951	54.8309259999951	54.8309259999951	54.8309259999951	54.8309259999951	54.8309259999951	54.8309259999951	0.0100004999985686	NA	57.533717600003	NA	59.0723259999941	59.0412839999917	"[0.09907407407407408, 0.09907407407407408, -0.5685185185185185]"	"[-0.3537037037037037, -0.3537037037037037, -0.3333333333333333]"	"[1, 0, 1]"	"[0, 0, 0]"	"[0, 1, 0]"	"[2.127661499995156, 2.6632275999872945, 4.052941099987947]"	4	-100	2.6733716000017	NA	NA	NA	NA	NA	NA	NA	32	"02"	"2024-02-22_10h15.15.541"	"GDT_exp"	"2023.2.3"	122.107129471957	"2024-02-22 10h15.26.544636 +0100"	NA
"dice_4.png"	4	1	5	11	3	59.0723259999941	NA	NA	NA	NA	NA	NA	NA	NA	NA	NA	NA	NA	59.0418900999939	59.0723259999941	59.0723259999941	59.0723259999941	59.0723259999941	59.0723259999941	59.0723259999941	59.0723259999941	59.0723259999941	59.0723259999941	59.0723259999941	59.0723259999941	59.0723259999941	59.0723259999941	59.0723259999941	59.0723259999941	59.0723259999941	59.0723259999941	59.0723259999941	59.0723259999941	59.0723259999941	59.0723259999941	59.0723259999941	59.0723259999941	59.0723259999941	59.0723259999941	0.0103297999885399	0.99676609999733	60.0973137999972	2.51678140000149	61.6425277999952	61.6119819000014	"[-0.5675925925925925, -0.5675925925925925]"	"[-0.3351851851851852, -0.3351851851851852]"	"[1, 0]"	"[0, 0]"	"[0, 1]"	"[0.4826982999948086, 0.986214899996412]"	4	100	NA	NA	NA	NA	NA	NA	NA	NA	32	"02"	"2024-02-22_10h15.15.541"	"GDT_exp"	"2023.2.3"	122.107129471957	"2024-02-22 10h15.26.544636 +0100"	NA
"dice_4.png"	4	2	0	12	3	61.6425277999952	NA	NA	NA	NA	NA	NA	NA	NA	NA	NA	NA	NA	61.6126266999927	61.6425277999952	61.6425277999952	61.6425277999952	61.6425277999952	61.6425277999952	61.6425277999952	61.6425277999952	61.6425277999952	61.6425277999952	61.6425277999952	61.6425277999952	61.6425277999952	61.6425277999952	61.6425277999952	61.6425277999952	61.6425277999952	61.6425277999952	61.6425277999952	61.6425277999952	61.6425277999952	61.6425277999952	61.6425277999952	61.6425277999952	61.6425277999952	61.6425277999952	0.0101787000021432	1.62662410001212	63.2986560999998	3.14885770001274	64.8477783999988	64.8142350999988	"[-0.5657407407407408, -0.5657407407407408]"	"[-0.3398148148148148, -0.3398148148148148]"	"[1, 0]"	"[0, 0]"	"[0, 1]"	"[1.0782046999956947, 1.616263699994306]"	4	100	NA	NA	NA	NA	NA	NA	NA	NA	32	"02"	"2024-02-22_10h15.15.541"	"GDT_exp"	"2023.2.3"	122.107129471957	"2024-02-22 10h15.26.544636 +0100"	NA
"dice_2.png"	2	2	1	13	1	64.8477783999988	NA	NA	NA	NA	NA	NA	NA	NA	NA	NA	NA	NA	64.8149323999969	64.8477783999988	64.8477783999988	64.8477783999988	64.8477783999988	64.8477783999988	64.8477783999988	64.8477783999988	64.8477783999988	64.8477783999988	64.8477783999988	64.8477783999988	64.8477783999988	64.8477783999988	64.8477783999988	64.8477783999988	64.8477783999988	64.8477783999988	64.8477783999988	64.8477783999988	64.8477783999988	64.8477783999988	64.8477783999988	64.8477783999988	64.8477783999988	64.8477783999988	0.0107614000007743	1.68449420000252	66.5616978999897	3.19761260000814	68.1072845000017	68.0717941999901	"[-0.5657407407407408, -0.5657407407407408]"	"[-0.3398148148148148, -0.3398148148148148]"	"[1, 0]"	"[0, 0]"	"[0, 1]"	"[0.9349858999921707, 1.6734271999885095]"	4	100	NA	NA	NA	NA	NA	NA	NA	NA	32	"02"	"2024-02-22_10h15.15.541"	"GDT_exp"	"2023.2.3"	122.107129471957	"2024-02-22 10h15.26.544636 +0100"	NA
"dice_1.png"	1	2	2	14	0	68.1072845000017	NA	NA	NA	NA	NA	NA	NA	NA	NA	NA	NA	NA	68.0723946999933	68.1072845000017	68.1072845000017	68.1072845000017	68.1072845000017	68.1072845000017	68.1072845000017	68.1072845000017	68.1072845000017	68.1072845000017	68.1072845000017	68.1072845000017	68.1072845000017	68.1072845000017	68.1072845000017	68.1072845000017	68.1072845000017	68.1072845000017	68.1072845000017	68.1072845000017	68.1072845000017	68.1072845000017	68.1072845000017	68.1072845000017	68.1072845000017	68.1072845000017	0.0136463000089861	1.71989700000267	69.854754	3.23393080000824	71.402016299995	71.3615237999911	"[-0.5657407407407408, -0.5657407407407408]"	"[-0.3398148148148148, -0.3398148148148148]"	"[1, 0]"	"[0, 0]"	"[0, 1]"	"[1.0537908999976935, 1.706147000004421]"	4	100	NA	NA	NA	NA	NA	NA	NA	NA	32	"02"	"2024-02-22_10h15.15.541"	"GDT_exp"	"2023.2.3"	122.107129471957	"2024-02-22 10h15.26.544636 +0100"	NA
"dice_6.png"	6	2	3	15	5	71.402016299995	NA	NA	NA	NA	NA	NA	NA	NA	NA	NA	NA	NA	71.3621105999919	71.402016299995	71.402016299995	71.402016299995	71.402016299995	71.402016299995	71.402016299995	71.402016299995	71.402016299995	71.402016299995	71.402016299995	71.402016299995	71.402016299995	71.402016299995	71.402016299995	71.402016299995	71.402016299995	71.402016299995	71.402016299995	71.402016299995	71.402016299995	71.402016299995	71.402016299995	71.402016299995	71.402016299995	71.402016299995	0.0145186000008835	NA	73.4021149999899	NA	74.9538873999991	74.9192776999989	"[-0.2861111111111111, -0.2861111111111111]"	"[-0.3425925925925926, -0.3425925925925926]"	"[1, 0]"	"[0, 0]"	"[0, 1]"	"[1.1921070999960648, 1.9651068999955896]"	4	-100	1.97969370000646	NA	NA	NA	NA	NA	NA	NA	32	"02"	"2024-02-22_10h15.15.541"	"GDT_exp"	"2023.2.3"	122.107129471957	"2024-02-22 10h15.26.544636 +0100"	NA
"dice_3.png"	3	2	4	16	2	74.9538873999991	NA	NA	NA	NA	NA	NA	NA	NA	NA	NA	NA	NA	74.9198440000036	74.9538873999991	74.9538873999991	74.9538873999991	74.9538873999991	74.9538873999991	74.9538873999991	74.9538873999991	74.9538873999991	74.9538873999991	74.9538873999991	74.9538873999991	74.9538873999991	74.9538873999991	74.9538873999991	74.9538873999991	74.9538873999991	74.9538873999991	74.9538873999991	74.9538873999991	74.9538873999991	74.9538873999991	74.9538873999991	74.9538873999991	74.9538873999991	74.9538873999991	0.00992749999568332	1.10773199998948	76.0910578000039	2.61136840000108	77.6465652999905	77.6141798000026	"[-0.2861111111111111, -0.2861111111111111]"	"[-0.34629629629629627, -0.34629629629629627]"	"[1, 0]"	"[0, 0]"	"[0, 1]"	"[0.4616186000057496, 1.0977295000047889]"	4	100	NA	NA	NA	NA	NA	NA	NA	NA	32	"02"	"2024-02-22_10h15.15.541"	"GDT_exp"	"2023.2.3"	122.107129471957	"2024-02-22 10h15.26.544636 +0100"	NA
"dice_5.png"	5	2	5	17	4	77.6465652999905	NA	NA	NA	NA	NA	NA	NA	NA	NA	NA	NA	NA	77.6147418999899	77.6465652999905	77.6465652999905	77.6465652999905	77.6465652999905	77.6465652999905	77.6465652999905	77.6465652999905	77.6465652999905	77.6465652999905	77.6465652999905	77.6465652999905	77.6465652999905	77.6465652999905	77.6465652999905	77.6465652999905	77.6465652999905	77.6465652999905	77.6465652999905	77.6465652999905	77.6465652999905	77.6465652999905	77.6465652999905	77.6465652999905	77.6465652999905	77.6465652999905	0.010265699995216	1.1559372000047	78.8292781999917	2.6605023000011	80.3409340999933	80.3361789999908	"[-0.2861111111111111, -0.2861111111111111]"	"[-0.34629629629629627, -0.34629629629629627]"	"[1, 0]"	"[0, 0]"	"[0, 1]"	"[0.5524501000036253, 1.145335300010629]"	4	100	NA	NA	NA	NA	NA	NA	NA	NA	32	"02"	"2024-02-22_10h15.15.541"	"GDT_exp"	"2023.2.3"	122.107129471957	"2024-02-22 10h15.26.544636 +0100"	NA
NA	NA	NA	NA	NA	NA	NA	NA	NA	NA	NA	NA	NA	NA	NA	NA	NA	NA	NA	NA	NA	NA	NA	NA	NA	NA	NA	NA	NA	NA	NA	NA	NA	NA	NA	NA	NA	NA	NA	NA	NA	NA	NA	NA	NA	NA	NA	NA	NA	NA	NA	NA	NA	NA	NA	NA	NA	NA	NA	NA	80.336621800001	80.3409340999933	80.3409340999933	85.6855668999924	"space"	5.33693299999868	"None"	32	"02"	"2024-02-22_10h15.15.541"	"GDT_exp"	"2023.2.3"	122.107129471957	"2024-02-22 10h15.26.544636 +0100"	NA
