image	max_pumps	pump_loop.thisRepN	pump_loop.thisTrialN	pump_loop.thisN	pump_loop.thisIndex	thisRow.t	notes	Start.started	text_start.started	continue_start.started	mouse_start.started	Start.stopped	mouse_start.x	mouse_start.y	mouse_start.leftButton	mouse_start.midButton	mouse_start.rightButton	mouse_start.time	trials.started	stim_balloon.started	stim_balloon_burst.started	stim_balloon_burst.stopped	text_ballon_value.started	text_bank.started	mouse.started	sound_bang.started	sound_bang.stopped	button_balloon.started	trials.stopped	n_pumps	earnings	popped	mouse.x	mouse.y	mouse.leftButton	mouse.midButton	mouse.rightButton	mouse.time	button_balloon.numClicks	button_balloon.timesOn	button_balloon.timesOff	Feedback.started	text_feedback.started	Feedback.stopped	text_feedback.stopped	End.started	text_end.started	key_end.started	End.stopped	key_end.keys	key_end.rt	key_end.duration	participant	session	date	expName	psychopyVersion	frameRate	expStart	
								0.0039010000182315707	0.021974200033582747	0.021974200033582747	0.0044750000815838575	5.443790199933574	[0.5816666666666667]	[-0.37166666666666665]	[1]	[0]	[0]	[5.437706199940294]																																			01	01	2023-12-13_13h07.43.309	BART_exp	2023.2.2	None	2023-12-13 13h07.58.731782 +0100	
balloon.png	5	0	0	0	1	5.5672514999751													5.452890899963677	5.5672514999751	5.5672514999751	5.5672514999751	5.5672514999751	5.5672514999751	0.011042900034226477	0.011042900034226477	0.011042900034226477	5.5672514999751	7.538234899984673	6	0.25	True	"[-0.0033333333333333335, -0.0033333333333333335, -0.0033333333333333335, -0.0033333333333333335, -0.0033333333333333335, -0.0033333333333333335]"	"[-0.37083333333333335, -0.37083333333333335, -0.37083333333333335, -0.37083333333333335, -0.37083333333333335, -0.37083333333333335]"	"[1, 1, 1, 1, 1, 1]"	"[0, 0, 0, 0, 0, 0]"	"[0, 0, 0, 0, 0, 0]"	"[1.0473091999301687, 1.2300306999823079, 1.4159295000135899, 1.5828470999840647, 1.76317549997475, 1.9628471999894828]"	6	"[0.9445830000331625, 1.1271085001062602, 1.3130063000135124, 1.479923800099641, 1.660251000081189, 1.8599202000768855]"	"[0.977992600062862, 1.1776931000640616, 1.360218200017698, 1.5598462000489235, 1.7458242001011968, 1.926361700054258]"	7.539666199940257	7.554534599999897	9.046988599933684									01	01	2023-12-13_13h07.43.309	BART_exp	2023.2.2	None	2023-12-13 13h07.58.731782 +0100	
balloon.png	75	0	1	1	17	9.131801799987443													9.047258900012821	9.131801799987443	9.131801799987443	9.131801799987443	9.131801799987443	9.131801799987443	0.009151299949735403	0.009151299949735403	0.009151299949735403	9.131801799987443	13.49907380004879	21	1.05	False	"[0.0033333333333333335, 0.0033333333333333335, 0.004166666666666667, 0.004166666666666667, 0.004166666666666667, 0.005, 0.005, 0.004166666666666667, 0.0033333333333333335, 0.0033333333333333335, 0.0033333333333333335, 0.0033333333333333335, 0.0025, 0.0025, 0.0025, 0.0025, 0.0025, 0.0025, 0.0025, 0.0025, 0.0016666666666666668, 0.019166666666666665]"	"[-0.37583333333333335, -0.37583333333333335, -0.37583333333333335, -0.37583333333333335, -0.37583333333333335, -0.37666666666666665, -0.37666666666666665, -0.37666666666666665, -0.37666666666666665, -0.37666666666666665, -0.37666666666666665, -0.37666666666666665, -0.37583333333333335, -0.37583333333333335, -0.37583333333333335, -0.37583333333333335, -0.37583333333333335, -0.37583333333333335, -0.37583333333333335, -0.37583333333333335, -0.37583333333333335, -0.2783333333333333]"	"[1, 1, 1, 1, 1, 1, 1, 1, 1, 1, 1, 1, 1, 1, 1, 1, 1, 1, 1, 1, 1, 0]"	"[0, 0, 0, 0, 0, 0, 0, 0, 0, 0, 0, 0, 0, 0, 0, 0, 0, 0, 0, 0, 0, 0]"	"[0, 0, 0, 0, 0, 0, 0, 0, 0, 0, 0, 0, 0, 0, 0, 0, 0, 0, 0, 0, 0, 1]"	"[0.3346964999800548, 0.5530678000068292, 0.733513499959372, 0.9192419999744743, 1.2668489000061527, 1.4521187000209466, 1.63336320000235, 1.818007499910891, 1.9990534000098705, 2.1663439999101683, 2.364895600010641, 2.5653567999834195, 2.7512620999477804, 2.9182941999752074, 3.0986211999552324, 3.2841163999401033, 3.464996099937707, 3.664654399966821, 3.8649155999301, 4.017832899931818, 4.184515699977055, 4.45053969998844]"	21	"[0.25977220002096146, 0.4781478999648243, 0.6585796000435948, 0.8443169000092894, 1.1919191000051796, 1.3771976999705657, 1.5584369000280276, 1.743086399976164, 1.9241279000416398, 2.09140379994642, 2.289965800009668, 2.4904424999840558, 2.676336899981834, 2.8433643999742344, 3.0236887000501156, 3.209195400006138, 3.390077600022778, 3.5897148000076413, 3.7900084999855608, 3.942909299978055, 4.1095891000004485]"	"[0.358201100025326, 0.5251614999724552, 0.711081900051795, 1.0916383999865502, 1.2582168000517413, 1.4441886000568047, 1.6244187999982387, 1.791182699962519, 1.9577724999981, 2.157578799990006, 2.374657499953173, 2.543383999960497, 2.7237714000511914, 2.9097071000142023, 3.090390000026673, 3.276314300019294, 3.4568103000056, 3.65666009997949, 3.8229589000111446, 4.0092870000517, 4.189228100003675]"	13.500329699949361	13.514813299989328	15.00984159996733									01	01	2023-12-13_13h07.43.309	BART_exp	2023.2.2	None	2023-12-13 13h07.58.731782 +0100	
balloon.png	14	0	2	2	3	15.032511299941689													15.010128399939276	15.032511299941689	15.032511299941689	15.032511299941689	15.032511299941689	15.032511299941689	0.01142029999755323	0.01142029999755323	0.01142029999755323	15.032511299941689	18.495670399977826	15	0.70	True	"[0.065, 0.065, 0.065, 0.065, 0.065, 0.06583333333333333, 0.06666666666666667, 0.06666666666666667, 0.06666666666666667, 0.06583333333333333, 0.06583333333333333, 0.06583333333333333, 0.065, 0.06416666666666666, 0.06333333333333334]"	"[-0.37583333333333335, -0.37583333333333335, -0.37583333333333335, -0.37583333333333335, -0.37583333333333335, -0.37666666666666665, -0.37666666666666665, -0.3775, -0.3775, -0.37666666666666665, -0.37666666666666665, -0.37666666666666665, -0.37666666666666665, -0.37666666666666665, -0.37666666666666665]"	"[1, 1, 1, 1, 1, 1, 1, 1, 1, 1, 1, 1, 1, 1, 1]"	"[0, 0, 0, 0, 0, 0, 0, 0, 0, 0, 0, 0, 0, 0, 0]"	"[0, 0, 0, 0, 0, 0, 0, 0, 0, 0, 0, 0, 0, 0, 0]"	"[0.36700159998144954, 0.5527395000681281, 0.7533680000342429, 0.9331042000558227, 1.133099399972707, 1.3331817999714985, 1.5524774000514299, 1.7532471000449732, 1.933003699989058, 2.1522041000425816, 2.3495938000269234, 2.5663131000474095, 2.9662406999850646, 3.1646931000286713, 3.3658494000555947]"	15	"[0.35507519997190684, 0.5408027999801561, 0.7414514999836683, 0.9211639999412, 1.1211669999174774, 1.3212445999961346, 1.5405365999322385, 1.7416240000166, 1.921072999946773, 2.1402664999477565, 2.3379687999840826, 2.5543720999266952, 2.9543052999069914, 3.152763399994001, 3.353912299964577]"	"[0.44052910001482815, 0.6073985999682918, 0.8070334999356419, 1.0212095999158919, 1.2206769000040367, 1.406729199923575, 1.6380937999347225, 1.8206314999843016, 2.008647699956782, 2.2203823999734595, 2.4203544999472797, 2.8397193999262527, 3.0394481999101117, 3.239101200015284, 3.452820000005886]"	18.496688999934122	18.50765050004702	19.99288010003511	20.00698479998391								01	01	2023-12-13_13h07.43.309	BART_exp	2023.2.2	None	2023-12-13 13h07.58.731782 +0100	
balloon.png	79	0	3	3	18	20.00698479998391													19.993178899982013	20.00698479998391	20.00698479998391	20.00698479998391	20.00698479998391	20.00698479998391	0.010400300030596554			20.00698479998391	23.426382999983616	15	0.75	False	"[0.06666666666666667, 0.0675, 0.06833333333333333, 0.06833333333333333, 0.06833333333333333, 0.06833333333333333, 0.06833333333333333, 0.06833333333333333, 0.06833333333333333, 0.06833333333333333, 0.06833333333333333, 0.06833333333333333, 0.06833333333333333, 0.06666666666666667, 0.06666666666666667, 0.04666666666666667]"	"[-0.3858333333333333, -0.3858333333333333, -0.38666666666666666, -0.38666666666666666, -0.38666666666666666, -0.38666666666666666, -0.38666666666666666, -0.38666666666666666, -0.38666666666666666, -0.3875, -0.3875, -0.3875, -0.3875, -0.3875, -0.3875, -0.23333333333333334]"	"[1, 1, 1, 1, 1, 1, 1, 1, 1, 1, 1, 1, 1, 1, 1, 0]"	"[0, 0, 0, 0, 0, 0, 0, 0, 0, 0, 0, 0, 0, 0, 0, 0]"	"[0, 0, 0, 0, 0, 0, 0, 0, 0, 0, 0, 0, 0, 0, 0, 1]"	"[0.365181399974972, 0.5487390999915078, 0.733331499970518, 0.9336676000384614, 1.1329275000607595, 1.3000404000049457, 1.4995754000265151, 1.6993705000495538, 1.9308411000529304, 2.1319660000735894, 2.331537100020796, 2.4985402000602335, 2.6802199999801815, 2.8807745999656618, 3.0652055999962613, 3.4317453000694513]"	15	"[0.36240610003005713, 0.5458636999828741, 0.7304552000714466, 0.9308017999865115, 1.1300489000277594, 1.297165900003165, 1.4966974999988452, 1.6964930000249296, 1.9281354000559077, 2.1290919999592006, 2.32865809998475, 2.4956612000241876, 2.6773695000447333, 2.8778981000650674, 3.0623322000028566]"	"[0.4310104000614956, 0.6103543000062928, 0.8299948000349104, 0.9966824000002816, 1.1939975999994203, 1.3768633999861777, 1.5767218000255525, 1.8099311999976635, 1.9958692999789491, 2.2097192000364885, 2.376236099982634, 2.5620656000683084, 2.7627993000205606, 2.9622092000208795, 3.1422218000516295]"	23.427384300041012	23.43785400001798	24.92280960001517	24.93673439999111								01	01	2023-12-13_13h07.43.309	BART_exp	2023.2.2	None	2023-12-13 13h07.58.731782 +0100	
balloon.png	23	0	4	4	5	24.93673439999111													24.92311209999025	24.93673439999111	24.93673439999111	24.93673439999111	24.93673439999111	24.93673439999111	0.009450800018385053	0.009450800018385053	0.009450800018385053	24.93673439999111	29.904595399973914	24	1.15	True	"[0.0575, 0.0575, 0.0575, 0.0575, 0.0575, 0.0575, 0.0575, 0.0575, 0.0575, 0.0575, 0.0575, 0.0575, 0.0575, 0.0575, 0.0575, 0.0575, 0.0575, 0.0575, 0.0575, 0.0575, 0.0575, 0.0575, 0.0575, 0.0575]"	"[-0.3775, -0.3775, -0.3775, -0.3775, -0.3775, -0.3775, -0.3775, -0.3775, -0.3775, -0.3775, -0.3775, -0.3775, -0.3775, -0.3775, -0.3775, -0.3775, -0.3775, -0.3775, -0.3775, -0.3775, -0.3775, -0.3775, -0.3775, -0.3775]"	"[1, 1, 1, 1, 1, 1, 1, 1, 1, 1, 1, 1, 1, 1, 1, 1, 1, 1, 1, 1, 1, 1, 1, 1]"	"[0, 0, 0, 0, 0, 0, 0, 0, 0, 0, 0, 0, 0, 0, 0, 0, 0, 0, 0, 0, 0, 0, 0, 0]"	"[0, 0, 0, 0, 0, 0, 0, 0, 0, 0, 0, 0, 0, 0, 0, 0, 0, 0, 0, 0, 0, 0, 0, 0]"	"[0.24800700007472187, 0.4473247000714764, 0.6342575000599027, 0.8643472000258043, 1.0663045999826863, 1.2643119000131264, 1.4473401000723243, 1.6658174999756739, 1.8798998000565916, 2.0799356000497937, 2.2795431000413373, 2.4632362000411376, 2.6658720000414178, 2.8656362000619993, 3.0659228999866173, 3.2630803000647575, 3.4789484000066295, 3.696631500031799, 3.8983070000540465, 4.095227100071497, 4.3142303000204265, 4.512305399985053, 4.681095500010997, 4.881101500010118]"	24	"[0.2455012999707833, 0.44481130002532154, 0.6317453000228852, 0.8620142999570817, 1.063795099966228, 1.2621170999482274, 1.4448258000193164, 1.663308099959977, 1.8773933000629768, 2.077421099995263, 2.2770232000621036, 2.4610337000340223, 2.663362000021152, 2.8631230000173673, 3.0634055000264198, 3.260751000023447, 3.4764395999955013, 3.694127400056459, 3.8957915999926627, 4.092711700010113, 4.311714099952951, 4.509963399963453, 4.678602700005285, 4.878581700031646]"	"[0.3315541000338271, 0.5309596000006422, 0.7305460999486968, 0.9304480999708176, 1.1638153999811038, 1.3441485000075772, 1.544255599961616, 1.763817699975334, 1.9634003000101075, 2.163069300004281, 2.343851099954918, 2.5436881000641733, 2.7431220000144094, 2.943362000049092, 3.129215099965222, 3.327100499998778, 3.5607784000458196, 3.776164700044319, 3.975768500007689, 4.1756823000032455, 4.378302299999632, 4.579303200007416, 4.7586408000206575, 4.95839819998946]"	29.90623229998164	29.916770600015298	31.415709999972023									01	01	2023-12-13_13h07.43.309	BART_exp	2023.2.2	None	2023-12-13 13h07.58.731782 +0100	
balloon.png	123	0	5	5	28	31.507143500028178													31.415994000039063	31.507143500028178	31.507143500028178	31.507143500028178	31.507143500028178	31.507143500028178	0.011401400086469948	0.011401400086469948	0.011401400086469948	31.507143500028178	36.069032500032336	19	0.95	False	"[0.059166666666666666, 0.059166666666666666, 0.059166666666666666, 0.059166666666666666, 0.059166666666666666, 0.059166666666666666, 0.059166666666666666, 0.059166666666666666, 0.059166666666666666, 0.06, 0.06, 0.06, 0.06, 0.06, 0.06, 0.06, 0.060833333333333336, 0.060833333333333336, 0.060833333333333336, 0.08166666666666667]"	"[-0.3775, -0.3775, -0.3775, -0.3775, -0.3775, -0.3775, -0.3775, -0.3775, -0.3775, -0.3775, -0.37916666666666665, -0.37916666666666665, -0.37916666666666665, -0.37916666666666665, -0.37916666666666665, -0.37916666666666665, -0.37916666666666665, -0.37916666666666665, -0.37916666666666665, -0.25916666666666666]"	"[1, 1, 1, 1, 1, 1, 1, 1, 1, 1, 1, 1, 1, 1, 1, 1, 1, 1, 1, 0]"	"[0, 0, 0, 0, 0, 0, 0, 0, 0, 0, 0, 0, 0, 0, 0, 0, 0, 0, 0, 0]"	"[0, 0, 0, 0, 0, 0, 0, 0, 0, 0, 0, 0, 0, 0, 0, 0, 0, 0, 0, 1]"	"[0.4336921999929473, 0.8199116000905633, 1.0178662000689656, 1.2194735000375658, 1.4333909000270069, 1.6329904000740498, 1.8331802000757307, 2.084189600078389, 2.4825429000193253, 2.665756000089459, 2.882744300062768, 3.065616200095974, 3.250126100028865, 3.4512643000343814, 3.631679200101644, 3.7991459000622854, 3.9839006999973208, 4.151157200103626, 4.349073400022462, 4.651718800072558]"	19	"[0.3528681000461802, 0.739085300010629, 0.9370498000644147, 1.1386482999660075, 1.3525687999790534, 1.5521637999918312, 1.7523416000185534, 2.0035848000552505, 2.401987800025381, 2.5849231999600306, 2.8021102000493556, 2.9847910000244156, 3.1693479999667034, 3.370439699967392, 3.550851500011049, 3.7183130000485107, 3.9030902000376955, 4.070403099991381, 4.268254099995829]"	"[0.6191084999591112, 0.8052181999664754, 1.0055531000252813, 1.2188474000431597, 1.43624519999139, 1.6519000000553206, 1.8517842000583187, 2.3022578000091016, 2.4690942000597715, 2.669404200045392, 2.870858100010082, 3.0510156999807805, 3.2510892000282183, 3.4175820000236854, 3.617226400063373, 3.8048856999957934, 4.003061100025661, 4.183714100043289, 4.350091299973428]"	36.070133900037035	36.0807657999685	37.56464050000068	37.57865809998475								01	01	2023-12-13_13h07.43.309	BART_exp	2023.2.2	None	2023-12-13 13h07.58.731782 +0100	
balloon.png	66	0	6	6	15	37.57865809998475													37.56494880001992	37.57865809998475	37.57865809998475	37.57865809998475	37.57865809998475	37.57865809998475	0.008638300001621246	0.008638300001621246	0.008638300001621246	37.57865809998475	42.14685819996521	20	1.00	False	"[0.04416666666666667, 0.04416666666666667, 0.04416666666666667, 0.045, 0.045, 0.045, 0.045, 0.045, 0.045, 0.045, 0.045, 0.045, 0.045, 0.045, 0.045, 0.045, 0.045, 0.0375, 0.03833333333333333, 0.03833333333333333, 0.06166666666666667]"	"[-0.4025, -0.4025, -0.4025, -0.4025, -0.4025, -0.4033333333333333, -0.4033333333333333, -0.4033333333333333, -0.4033333333333333, -0.4033333333333333, -0.4033333333333333, -0.4033333333333333, -0.4033333333333333, -0.4033333333333333, -0.4033333333333333, -0.4033333333333333, -0.4033333333333333, -0.4008333333333333, -0.4025, -0.4025, -0.24916666666666668]"	"[1, 1, 1, 1, 1, 1, 1, 1, 1, 1, 1, 1, 1, 1, 1, 1, 1, 1, 1, 1, 0]"	"[0, 0, 0, 0, 0, 0, 0, 0, 0, 0, 0, 0, 0, 0, 0, 0, 0, 0, 0, 0, 0]"	"[0, 0, 0, 0, 0, 0, 0, 0, 0, 0, 0, 0, 0, 0, 0, 0, 0, 0, 0, 0, 1]"	"[0.3336067999480292, 0.5335011000279337, 0.7311804000055417, 0.9156690000090748, 1.0999765999149531, 1.3000908999238163, 1.4979228000156581, 1.66488960001152, 1.846857599914074, 2.2464169999584556, 2.4632659999188036, 2.664219999918714, 2.879366199951619, 3.0977406000019982, 3.29876619996503, 3.5124766000080854, 3.74554909998551, 3.9450416999170557, 4.113215300021693, 4.296576899942011, 4.580580099951476]"	20	"[0.33096829999703914, 0.5308612999506295, 0.7287399999331683, 0.9130337999667972, 1.0973387999692932, 1.2974504999583587, 1.4953204999910668, 1.6622568999882787, 1.8442169999470934, 2.2437731999671087, 2.460855199955404, 2.661633599898778, 2.876735799945891, 3.0951437999028713, 3.296259899972938, 3.509850599919446, 3.742898599943146, 3.942404399975203, 4.110589799936861, 4.293954199994914]"	"[0.39553849992807955, 0.61140059994068, 0.7955290999962017, 0.9776550999376923, 1.1775233999360353, 1.361578599899076, 1.5443479999667034, 1.7439271999755874, 2.127679399913177, 2.327672899933532, 2.560849899891764, 2.7435202999040484, 2.9608592999866232, 3.176402899902314, 3.393974099890329, 3.609275099937804, 3.8279279998969287, 4.027018199907616, 4.1949501999188215, 4.395089300000109]"	42.148092999937944	42.16087489994243	43.658096899976954									01	01	2023-12-13_13h07.43.309	BART_exp	2023.2.2	None	2023-12-13 13h07.58.731782 +0100	
balloon.png	1	0	7	7	0	43.733149599982426													43.65837790002115	43.733149599982426	43.733149599982426	43.733149599982426	43.733149599982426	43.733149599982426	0.013254699995741248	0.013254699995741248	0.013254699995741248	43.733149599982426	43.94376299995929	2	0.05	True	[0.021666666666666667]	[-0.38416666666666666]	[1]	[0]	[0]	[0.1838640000205487]	1	[0.1205238999100402]	[0.20614029990974814]	43.9444027999416	43.957818800001405	45.456607099971734									01	01	2023-12-13_13h07.43.309	BART_exp	2023.2.2	None	2023-12-13 13h07.58.731782 +0100	
balloon.png	10	0	8	8	2	45.4766854000045													45.456932900007814	45.4766854000045	45.4766854000045	45.4766854000045	45.4766854000045	45.4766854000045	0.015335300005972385	0.015335300005972385	0.015335300005972385	45.4766854000045	48.074324600049295	11	0.50	True	"[0.021666666666666667, 0.021666666666666667, 0.021666666666666667, 0.021666666666666667, 0.021666666666666667, 0.021666666666666667, 0.021666666666666667, 0.021666666666666667, 0.021666666666666667, 0.021666666666666667, 0.021666666666666667]"	"[-0.38416666666666666, -0.38416666666666666, -0.38416666666666666, -0.38416666666666666, -0.38416666666666666, -0.38416666666666666, -0.38416666666666666, -0.38416666666666666, -0.38416666666666666, -0.38416666666666666, -0.38416666666666666]"	"[1, 1, 1, 1, 1, 1, 1, 1, 1, 1, 1]"	"[0, 0, 0, 0, 0, 0, 0, 0, 0, 0, 0]"	"[0, 0, 0, 0, 0, 0, 0, 0, 0, 0, 0]"	"[0.31742060009855777, 0.7501856000162661, 0.9363293000496924, 1.1355311000952497, 1.3502045000204816, 1.549545600079, 1.735785200027749, 1.9493445000844076, 2.116106400033459, 2.349399400060065, 2.534016399993561]"	11	"[0.3067185999825597, 0.7394663000013679, 0.9256249000318348, 1.1248210000339895, 1.339493100065738, 1.5388245000503957, 1.7250705000478774, 1.9386303999926895, 2.1053945999592543, 2.338672999991104, 2.5233123999787495]"	"[0.5926607999717817, 0.7923158999765292, 0.9891037000343204, 1.2054673000238836, 1.4056887000333518, 1.605820200056769, 1.791358400019817, 1.989253200008534, 2.1894190000602975, 2.3915882000001147, 2.5909171999664977]"	48.07527070003562	48.09062010003254	49.58942259999458									01	01	2023-12-13_13h07.43.309	BART_exp	2023.2.2	None	2023-12-13 13h07.58.731782 +0100	
balloon.png	114	0	9	9	26	49.62975790002383													49.589998699957505	49.62975790002383	49.62975790002383	49.62975790002383	49.62975790002383	49.62975790002383	0.016510199988260865	0.016510199988260865	0.016510199988260865	49.62975790002383	53.570494499988854	19	0.95	False	"[0.021666666666666667, 0.021666666666666667, 0.021666666666666667, 0.021666666666666667, 0.021666666666666667, 0.021666666666666667, 0.021666666666666667, 0.021666666666666667, 0.021666666666666667, 0.021666666666666667, 0.021666666666666667, 0.021666666666666667, 0.021666666666666667, 0.021666666666666667, 0.021666666666666667, 0.021666666666666667, 0.021666666666666667, 0.021666666666666667, 0.021666666666666667, 0.021666666666666667]"	"[-0.38416666666666666, -0.38416666666666666, -0.38416666666666666, -0.38416666666666666, -0.38416666666666666, -0.38416666666666666, -0.38416666666666666, -0.38416666666666666, -0.38416666666666666, -0.38416666666666666, -0.38416666666666666, -0.38416666666666666, -0.38416666666666666, -0.38416666666666666, -0.38416666666666666, -0.38416666666666666, -0.38416666666666666, -0.3883333333333333, -0.3883333333333333, -0.30583333333333335]"	"[1, 1, 1, 1, 1, 1, 1, 1, 1, 1, 1, 1, 1, 1, 1, 1, 1, 1, 1, 0]"	"[0, 0, 0, 0, 0, 0, 0, 0, 0, 0, 0, 0, 0, 0, 0, 0, 0, 0, 0, 0]"	"[0, 0, 0, 0, 0, 0, 0, 0, 0, 0, 0, 0, 0, 0, 0, 0, 0, 0, 0, 1]"	"[0.3325924000237137, 0.5144108000677079, 0.7009716000175104, 0.8811959000304341, 1.0478693000040948, 1.2338502000784501, 1.4141829999862239, 1.6320105000631884, 1.8135924000525847, 2.01331090007443, 2.1978379000211135, 2.399199999985285, 2.580015500076115, 2.7640008999733254, 2.965847000014037, 3.1461969000520185, 3.3134841000428423, 3.4973524999804795, 3.679391600075178, 3.9789971000282094]"	19	"[0.3029127001063898, 0.48468450002837926, 0.6713124000234529, 0.8514773000497371, 1.0181417000712827, 1.2041303000878543, 1.3844506000168622, 1.6023252001032233, 1.783869200036861, 1.9835883000632748, 2.168374600005336, 2.3694734000600874, 2.550278300070204, 2.734446700080298, 2.936130200047046, 3.116478400072083, 3.2837613000301644, 3.4676327001070604, 3.649665900040418]"	"[0.351367500028573, 0.5514286000980064, 0.7179177000652999, 0.9178613000549376, 1.1017961000325158, 1.284285100060515, 1.4685133000602946, 1.6507395000662655, 1.8503440000349656, 2.0347934000892565, 2.2503028000937775, 2.4166016000090167, 2.616704900050536, 2.802785800071433, 3.0003339000977576, 3.183357400004752, 3.3828157000243664, 3.549457500106655, 3.7003231000853702]"	53.57163789996412	53.58492099994328	55.07048440002836	55.123360399971716								01	01	2023-12-13_13h07.43.309	BART_exp	2023.2.2	None	2023-12-13 13h07.58.731782 +0100	
balloon.png	49	0	10	10	11	55.123360399971716													55.07075109996367	55.123360399971716	55.123360399971716	55.123360399971716	55.123360399971716	55.123360399971716	0.0006512999534606934	0.0006512999534606934	0.0006512999534606934	55.123360399971716	59.05017770000268	20	1.00	False	"[0.04666666666666667, 0.04666666666666667, 0.04666666666666667, 0.04666666666666667, 0.04666666666666667, 0.04666666666666667, 0.04666666666666667, 0.04666666666666667, 0.04666666666666667, 0.04666666666666667, 0.04666666666666667, 0.04666666666666667, 0.04666666666666667, 0.04666666666666667, 0.04666666666666667, 0.04666666666666667, 0.04583333333333333, 0.04583333333333333, 0.04583333333333333, 0.06916666666666667]"	"[-0.3975, -0.3975, -0.3975, -0.3975, -0.3975, -0.3975, -0.3975, -0.3975, -0.3975, -0.3975, -0.3975, -0.3975, -0.3975, -0.3975, -0.3975, -0.3958333333333333, -0.395, -0.395, -0.395, -0.2275]"	"[1, 1, 1, 1, 1, 1, 1, 1, 1, 1, 1, 1, 1, 1, 1, 1, 1, 1, 1, 0]"	"[0, 0, 0, 0, 0, 0, 0, 0, 0, 0, 0, 0, 0, 0, 0, 0, 0, 0, 0, 0]"	"[0, 0, 0, 0, 0, 0, 0, 0, 0, 0, 0, 0, 0, 0, 0, 0, 0, 0, 0, 1]"	"[0.16511439997702837, 0.3667737999930978, 0.5471543000312522, 0.7676045999396592, 0.9472033999627456, 1.146661499980837, 1.3328875999432057, 1.5131085000466555, 1.6986231999471784, 1.8969385999953374, 2.0801881999941543, 2.2796860999660566, 2.4793978999368846, 2.664010699954815, 2.8792437999509275, 3.064359499956481, 3.2792565999552608, 3.4787310999818146, 3.6631871999707073, 3.9780922000063583]"	19	"[0.1211159999947995, 0.32266710000112653, 0.5030400999821723, 0.7234995000762865, 0.9030943000689149, 1.1025500000687316, 1.2888189000077546, 1.4690052000805736, 1.654575000051409, 1.8530448999954388, 2.0360779999755323, 2.235586200025864, 2.435284800012596, 2.6199135000351816, 2.835127199999988, 3.020253200083971, 3.2351461000507697, 3.434626100002788, 3.61909250007011]"	"[0.2028894000686705, 0.36967829999048263, 0.5866424000123516, 0.7892156000016257, 0.9862569000106305, 1.155356700066477, 1.353384800022468, 1.5354862000094727, 1.7354464000090957, 1.9210579000646248, 2.1194342999951914, 2.301702600088902, 2.5015064000617713, 2.7013432000530884, 2.9014000000897795, 3.1011693000327796, 3.300950700067915, 3.53419700008817, 3.7184547000797465]"	59.05127519997768	59.064704600023106	60.547511699958704	60.56611609994434								01	01	2023-12-13_13h07.43.309	BART_exp	2023.2.2	None	2023-12-13 13h07.58.731782 +0100	
balloon.png	127	0	11	11	29	60.56611609994434													60.54775459994562	60.56611609994434	60.56611609994434	60.56611609994434	60.56611609994434	60.56611609994434	0.015146400080993772	0.015146400080993772	0.015146400080993772	60.56611609994434	64.73466590000317	19	0.95	False	"[0.028333333333333332, 0.029166666666666667, 0.030833333333333334, 0.03166666666666667, 0.029166666666666667, 0.029166666666666667, 0.029166666666666667, 0.029166666666666667, 0.029166666666666667, 0.029166666666666667, 0.029166666666666667, 0.029166666666666667, 0.029166666666666667, 0.029166666666666667, 0.029166666666666667, 0.029166666666666667, 0.029166666666666667, 0.03666666666666667, 0.0375, 0.05333333333333334]"	"[-0.39416666666666667, -0.39416666666666667, -0.39416666666666667, -0.39166666666666666, -0.38916666666666666, -0.38916666666666666, -0.3875, -0.3875, -0.3875, -0.3875, -0.3875, -0.3875, -0.3875, -0.3875, -0.39, -0.39, -0.39, -0.38416666666666666, -0.38416666666666666, -0.2733333333333333]"	"[1, 1, 1, 1, 1, 1, 1, 1, 1, 1, 1, 1, 1, 1, 1, 1, 1, 1, 1, 0]"	"[0, 0, 0, 0, 0, 0, 0, 0, 0, 0, 0, 0, 0, 0, 0, 0, 0, 0, 0, 0]"	"[0, 0, 0, 0, 0, 0, 0, 0, 0, 0, 0, 0, 0, 0, 0, 0, 0, 0, 0, 1]"	"[0.3847440999234095, 0.5529214999405667, 0.7543264999985695, 0.9833748999517411, 1.184071599971503, 1.3659770999802276, 1.5659827999770641, 1.7997697999235243, 1.9878057999303564, 2.184879199950956, 2.3854485999327153, 2.6187398999463767, 2.817931699915789, 2.9663493999978527, 3.165114299976267, 3.34882590000052, 3.5312836999073625, 3.6983404000056908, 3.897828400018625, 4.185567899956368]"	19	"[0.38290690002031624, 0.550863099982962, 0.7522633000044152, 0.9815239999443293, 1.1820809999480844, 1.3639173000119627, 1.5639290999388322, 1.797711299965158, 1.9857864999212325, 2.1828264999203384, 2.3833766999887303, 2.6166956999804825, 2.8158757999772206, 2.9642960999626666, 3.1630668999860063, 3.3469947999110445, 3.529228499974124, 3.6962830999400467, 3.89577309996821]"	"[0.3977699999231845, 0.615391599945724, 0.8168829999631271, 1.0307867999654263, 1.2305227000033483, 1.4307230999693274, 1.6303389999084175, 1.8478003999916837, 2.03007360000629, 2.2474929000018165, 2.4474249000195414, 2.6633142000064254, 2.847125699976459, 3.0294746999861673, 3.2146669999929145, 3.3958679999923334, 3.5957005999516696, 3.762817099923268, 3.9634775000158697]"	64.73601999995299	64.74495720001869	66.24320899997838									01	01	2023-12-13_13h07.43.309	BART_exp	2023.2.2	None	2023-12-13 13h07.58.731782 +0100	
balloon.png	18	0	12	12	4	66.261921599973													66.24346140003763	66.261921599973	66.261921599973	66.261921599973	66.261921599973	66.261921599973	0.008986099972389638	0.008986099972389638	0.008986099972389638	66.261921599973	70.2961696999846	19	0.90	True	"[0.07583333333333334, 0.07583333333333334, 0.07583333333333334, 0.07583333333333334, 0.07583333333333334, 0.07583333333333334, 0.07583333333333334, 0.07583333333333334, 0.07583333333333334, 0.07583333333333334, 0.07583333333333334, 0.07583333333333334, 0.07583333333333334, 0.07583333333333334, 0.07583333333333334, 0.07583333333333334, 0.07583333333333334, 0.07583333333333334, 0.07583333333333334]"	"[-0.37416666666666665, -0.37416666666666665, -0.37416666666666665, -0.37416666666666665, -0.37416666666666665, -0.37416666666666665, -0.37416666666666665, -0.37416666666666665, -0.37416666666666665, -0.37416666666666665, -0.37416666666666665, -0.37416666666666665, -0.37416666666666665, -0.37416666666666665, -0.37416666666666665, -0.37416666666666665, -0.37416666666666665, -0.37416666666666665, -0.37416666666666665]"	"[1, 1, 1, 1, 1, 1, 1, 1, 1, 1, 1, 1, 1, 1, 1, 1, 1, 1, 1]"	"[0, 0, 0, 0, 0, 0, 0, 0, 0, 0, 0, 0, 0, 0, 0, 0, 0, 0, 0]"	"[0, 0, 0, 0, 0, 0, 0, 0, 0, 0, 0, 0, 0, 0, 0, 0, 0, 0, 0]"	"[0.3512512999586761, 0.5187490999232978, 0.7182354999240488, 0.9507242999970913, 1.153002299950458, 1.4192529999418184, 1.6170124999480322, 1.8194814999587834, 2.0545568999368697, 2.2510176999494433, 2.4533290999243036, 2.651601399993524, 2.851792800007388, 3.0654818000039086, 3.2654866999946535, 3.4499822999350727, 3.6321563000092283, 3.8180730999447405, 3.9827726999064907]"	19	"[0.3461102999281138, 0.5134424999123439, 0.712956800009124, 0.9456213000230491, 1.1476893000071868, 1.4139256000053138, 1.6118905999464914, 1.8141514000017196, 2.0495300999609753, 2.2458076999755576, 2.4480317999841645, 2.6462885999353603, 2.846468099975027, 3.060163400019519, 3.2601626999676228, 3.4446654999628663, 3.6268335999920964, 3.8127780000213534, 3.9774486999958754]"	"[0.3951303999638185, 0.6125239999964833, 0.8146897999104112, 1.047402499942109, 1.2470368000213057, 1.48040639993269, 1.6941709999227896, 1.9139875000109896, 2.114991799928248, 2.313180199940689, 2.5269936999538913, 2.7127441000193357, 2.9267868999158964, 3.1268174999859184, 3.3124502999708056, 3.5125157999573275, 3.6598868999863043, 3.8454517999198288, 4.0262225000187755]"	70.29721949994564	70.30736109998543	71.79304649995174	71.80649650003761								01	01	2023-12-13_13h07.43.309	BART_exp	2023.2.2	None	2023-12-13 13h07.58.731782 +0100	
balloon.png	36	0	13	13	8	71.80649650003761													71.79338099993765	71.80649650003761	71.80649650003761	71.80649650003761	71.80649650003761	71.80649650003761	0.0093813999556005			71.80649650003761	76.09277969994582	16	0.80	False	"[0.06666666666666667, 0.0675, 0.06916666666666667, 0.07, 0.07, 0.07, 0.07, 0.07083333333333333, 0.07083333333333333, 0.07166666666666667, 0.07166666666666667, 0.07166666666666667, 0.07166666666666667, 0.07166666666666667, 0.07166666666666667, 0.07166666666666667, 0.06166666666666667]"	"[-0.35583333333333333, -0.35583333333333333, -0.365, -0.365, -0.365, -0.365, -0.365, -0.36666666666666664, -0.36666666666666664, -0.36833333333333335, -0.36833333333333335, -0.36833333333333335, -0.36833333333333335, -0.36833333333333335, -0.36833333333333335, -0.36833333333333335, -0.2758333333333333]"	"[1, 1, 1, 1, 1, 1, 1, 1, 1, 1, 1, 1, 1, 1, 1, 1, 0]"	"[0, 0, 0, 0, 0, 0, 0, 0, 0, 0, 0, 0, 0, 0, 0, 0, 0]"	"[0, 0, 0, 0, 0, 0, 0, 0, 0, 0, 0, 0, 0, 0, 0, 0, 1]"	"[0.7327847999986261, 0.9471409999532625, 1.180419099982828, 1.4322730000130832, 1.646538299974054, 1.8793371999636292, 2.098384300014004, 2.299052400048822, 2.4985713000642136, 2.7318247000221163, 2.9643810000270605, 3.164537900011055, 3.396024400019087, 3.5983388000167906, 3.797814500052482, 3.978010299964808, 4.298133100033738]"	16	"[0.7305270000360906, 0.9448883000295609, 1.1781605000142008, 1.430015999940224, 1.6442783999955282, 1.8770814000163227, 2.0961331999860704, 2.2967950999736786, 2.4963140999898314, 2.7295693999622017, 2.9621264999732375, 3.1622966999420896, 3.393954599974677, 3.596080799936317, 3.7957680999534205, 3.975762499962002]"	"[0.8110841999296099, 1.0306030999636278, 1.2967280999291688, 1.4971952999476343, 1.7103244999889284, 1.9630469999974594, 2.1766652000369504, 2.3765306000132114, 2.576291000004858, 2.7960599999642, 3.028894599992782, 3.2266711000120267, 3.4620314999483526, 3.6767186999786645, 3.862869899952784, 4.041973999934271]"	76.09406699996907	76.10461219993886	77.58928369998466	77.60275770002045								01	01	2023-12-13_13h07.43.309	BART_exp	2023.2.2	None	2023-12-13 13h07.58.731782 +0100	
balloon.png	62	0	14	14	14	77.60275770002045													77.58965470001567	77.60275770002045	77.60275770002045	77.60275770002045	77.60275770002045	77.60275770002045	0.008794099907390773	0.008794099907390773	0.008794099907390773	77.60275770002045	82.78531890001614	17	0.85	False	"[0.06833333333333333, 0.06833333333333333, 0.06833333333333333, 0.06833333333333333, 0.06833333333333333, 0.06833333333333333, 0.06916666666666667, 0.06916666666666667, 0.06916666666666667, 0.06916666666666667, 0.06916666666666667, 0.06916666666666667, 0.07, 0.07, 0.07, 0.07, 0.07, 0.04833333333333333]"	"[-0.38166666666666665, -0.38166666666666665, -0.38083333333333336, -0.38083333333333336, -0.38083333333333336, -0.38083333333333336, -0.38083333333333336, -0.38083333333333336, -0.38083333333333336, -0.38083333333333336, -0.38083333333333336, -0.38083333333333336, -0.38083333333333336, -0.38083333333333336, -0.38083333333333336, -0.38083333333333336, -0.38083333333333336, -0.21583333333333332]"	"[1, 1, 1, 1, 1, 1, 1, 1, 1, 1, 1, 1, 1, 1, 1, 1, 1, 0]"	"[0, 0, 0, 0, 0, 0, 0, 0, 0, 0, 0, 0, 0, 0, 0, 0, 0, 0]"	"[0, 0, 0, 0, 0, 0, 0, 0, 0, 0, 0, 0, 0, 0, 0, 0, 0, 1]"	"[0.5821863000746816, 0.7663123999955133, 1.2039747000671923, 1.400344500085339, 1.6129211999941617, 1.8321615000022575, 2.046401900006458, 2.2656400999985635, 2.665459500043653, 2.845848400029354, 3.078711000038311, 3.28193130006548, 3.645481300074607, 3.848076599999331, 4.327922100084834, 4.52776300010737, 4.747200900106691, 5.194451300078072]"	16	"[0.5801094999769703, 0.7642059999052435, 1.2023156000068411, 1.3982695000013337, 1.610805599950254, 1.830049299984239, 2.044305899995379, 2.2635263999691233, 2.843741099932231, 3.0766698999796063, 3.279817899921909, 3.643540999968536, 3.8459641999797896, 4.325812699971721, 4.525639400002547, 4.745086699957028]"	"[0.6637896999018267, 0.8975857999175787, 1.2774515999481082, 1.4970579999499023, 1.7104945000028238, 1.9302988999988884, 2.1294705999316648, 2.7430200999369845, 2.9628066999139264, 3.16321639996022, 3.3797481999499723, 3.726198999909684, 4.2257938999682665, 4.425506199942902, 4.625447699916549, 4.844793499913067]"	82.78632369998377	82.8011832999764	84.30038729996886									01	01	2023-12-13_13h07.43.309	BART_exp	2023.2.2	None	2023-12-13 13h07.58.731782 +0100	
balloon.png	92	0	15	15	21	84.38938920001965													84.30102829996031	84.38938920001965	84.38938920001965	84.38938920001965	84.38938920001965	84.38938920001965	0.01651680003851652	0.01651680003851652	0.01651680003851652	84.38938920001965	90.86663059995044	21	1.05	False	"[0.065, 0.06583333333333333, 0.06583333333333333, 0.06583333333333333, 0.06583333333333333, 0.06583333333333333, 0.06583333333333333, 0.06583333333333333, 0.07083333333333333, 0.07083333333333333, 0.07166666666666667, 0.07166666666666667, 0.07833333333333334, 0.07916666666666666, 0.07833333333333334, 0.07916666666666666, 0.08083333333333333, 0.08083333333333333, 0.08083333333333333, 0.0825, 0.0825, 0.06666666666666667]"	"[-0.36083333333333334, -0.365, -0.365, -0.365, -0.365, -0.365, -0.365, -0.365, -0.3641666666666667, -0.3641666666666667, -0.365, -0.365, -0.37333333333333335, -0.3725, -0.37166666666666665, -0.37, -0.36833333333333335, -0.36583333333333334, -0.36583333333333334, -0.36583333333333334, -0.36583333333333334, -0.25166666666666665]"	"[1, 1, 1, 1, 1, 1, 1, 1, 1, 1, 1, 1, 1, 1, 1, 1, 1, 1, 1, 1, 1, 0]"	"[0, 0, 0, 0, 0, 0, 0, 0, 0, 0, 0, 0, 0, 0, 0, 0, 0, 0, 0, 0, 0, 0]"	"[0, 0, 0, 0, 0, 0, 0, 0, 0, 0, 0, 0, 0, 0, 0, 0, 0, 0, 0, 0, 0, 1]"	"[0.5481060999445617, 0.7494570999406278, 0.9333841999759898, 1.1666027000173926, 1.580373500008136, 1.779992299969308, 1.979905299958773, 2.197576600010507, 2.7460645999526605, 2.9997648999560624, 3.2326666000299156, 3.3984531000023708, 3.9322599000297487, 4.146374300005846, 4.714141099946573, 4.9467590999556705, 5.180083699990064, 5.631356799975038, 5.831340000033379, 6.080333999940194, 6.261407100013457, 6.563862500013784]"	21	"[0.4692591999191791, 0.6706124999327585, 0.8545323999132961, 1.0877463999204338, 1.5015152998967096, 1.7011460999492556, 1.9010493999812752, 2.118828499922529, 2.6672039999393746, 2.9208963999990374, 3.15405099990312, 3.3195949000073597, 3.8536538999760523, 4.067517099902034, 4.635284999967553, 4.867905899998732, 5.1012645999435335, 5.552677899948321, 5.752615800010972, 6.001796199940145, 6.182685799896717]"	"[0.5549568999558687, 0.7527810999890789, 0.9544365999754518, 1.3857576999580488, 1.5857329999562353, 1.8010440999642015, 2.0181590999709442, 2.5512802999000996, 2.786554599995725, 3.051086899940856, 3.2669167999411, 3.7665699999779463, 3.966347699984908, 4.520109999924898, 4.750964899896644, 4.967217099969275, 5.234893999993801, 5.651862800004892, 5.884847899898887, 6.074868700001389, 6.265487800003029]"	90.86816920002457	90.87816870003007	92.37664769997355									01	01	2023-12-13_13h07.43.309	BART_exp	2023.2.2	None	2023-12-13 13h07.58.731782 +0100	
balloon.png	84	0	16	16	19	92.4515006999718													92.37689800001681	92.4515006999718	92.4515006999718	92.4515006999718	92.4515006999718	92.4515006999718	0.010120099992491305	0.010120099992491305	0.010120099992491305	92.4515006999718	97.46267349994741	17	0.85	False	"[0.041666666666666664, 0.041666666666666664, 0.041666666666666664, 0.041666666666666664, 0.041666666666666664, 0.041666666666666664, 0.041666666666666664, 0.041666666666666664, 0.0425, 0.04666666666666667, 0.04666666666666667, 0.04583333333333333, 0.04583333333333333, 0.04583333333333333, 0.04583333333333333, 0.04583333333333333, 0.045, 0.025]"	"[-0.37916666666666665, -0.37916666666666665, -0.37916666666666665, -0.37833333333333335, -0.37833333333333335, -0.3775, -0.3775, -0.3775, -0.3775, -0.385, -0.3825, -0.37416666666666665, -0.37416666666666665, -0.37416666666666665, -0.37416666666666665, -0.37416666666666665, -0.37416666666666665, -0.2225]"	"[1, 1, 1, 1, 1, 1, 1, 1, 1, 1, 1, 1, 1, 1, 1, 1, 1, 0]"	"[0, 0, 0, 0, 0, 0, 0, 0, 0, 0, 0, 0, 0, 0, 0, 0, 0, 0]"	"[0, 0, 0, 0, 0, 0, 0, 0, 0, 0, 0, 0, 0, 0, 0, 0, 0, 1]"	"[0.45346740004606545, 0.8531959999818355, 1.151728400029242, 1.3523377999663353, 1.5836738999933004, 1.8186441999860108, 2.332824100041762, 2.518512499984354, 3.2205940999556333, 3.431704799993895, 3.6326274999883026, 3.8510713999858126, 4.050285100005567, 4.2315123999724165, 4.4307098999852315, 4.616594700026326, 4.784180499962531, 5.084483299986459]"	17	"[0.38731510005891323, 0.7870214000577107, 1.0856006999965757, 1.2861620000330731, 1.5177962000016123, 1.7524702000664547, 2.2666373000247404, 2.4523463000077754, 3.1545939999632537, 3.3655314999632537, 3.5664517000550404, 3.7849029999924824, 3.984111799974926, 4.165337900049053, 4.36452930001542, 4.550422000000253, 4.717998899985105]"	"[0.6671903000678867, 0.8864246000302956, 1.1188731000293046, 1.3662890000268817, 1.5998999000294134, 2.052263700054027, 2.3186282999813557, 2.598815800040029, 3.265222999965772, 3.451111900038086, 3.6648834999650717, 3.8651390000013635, 4.064560199971311, 4.25087440002244, 4.4509307000553235, 4.597900900058448, 4.830972300027497]"	97.46372510003857	97.47374269994907	98.97236070001964									01	01	2023-12-13_13h07.43.309	BART_exp	2023.2.2	None	2023-12-13 13h07.58.731782 +0100	
balloon.png	31	0	17	17	7	99.01166219997685													98.97264359996188	99.01166219997685	99.01166219997685	99.01166219997685	99.01166219997685	99.01166219997685	0.010606399970129132	0.010606399970129132	0.010606399970129132	99.01166219997685	103.93837490002625	18	0.90	False	"[0.014166666666666666, 0.014166666666666666, 0.014166666666666666, 0.014166666666666666, 0.014166666666666666, 0.014166666666666666, 0.014166666666666666, 0.014166666666666666, 0.014166666666666666, 0.014166666666666666, 0.014166666666666666, 0.014166666666666666, 0.014166666666666666, 0.014166666666666666, 0.014166666666666666, 0.014166666666666666, 0.014166666666666666, 0.014166666666666666, 0.010833333333333334]"	"[-0.40166666666666667, -0.40166666666666667, -0.40166666666666667, -0.40166666666666667, -0.40166666666666667, -0.40166666666666667, -0.40166666666666667, -0.40166666666666667, -0.40166666666666667, -0.40166666666666667, -0.40166666666666667, -0.40166666666666667, -0.40166666666666667, -0.40166666666666667, -0.40166666666666667, -0.40166666666666667, -0.40166666666666667, -0.40166666666666667, -0.31083333333333335]"	"[1, 1, 1, 1, 1, 1, 1, 1, 1, 1, 1, 1, 1, 1, 1, 1, 1, 1, 0]"	"[0, 0, 0, 0, 0, 0, 0, 0, 0, 0, 0, 0, 0, 0, 0, 0, 0, 0, 0]"	"[0, 0, 0, 0, 0, 0, 0, 0, 0, 0, 0, 0, 0, 0, 0, 0, 0, 0, 1]"	"[0.16821859998162836, 0.5670910999178886, 0.8002011999487877, 1.0000473000109196, 1.2187970000086352, 1.4326822999864817, 1.8990675000241026, 2.117291899980046, 2.4835484999930486, 2.75200729991775, 3.0654146999586374, 3.2986748999683186, 3.5176238999702036, 3.7180057999212295, 3.9508176000090316, 4.164492100011557, 4.364532499923371, 4.549880499951541, 4.964400899945758]"	18	"[0.13810470001772046, 0.5369796000886708, 0.7700871000997722, 0.9699340000515804, 1.1886784000089392, 1.4025565000483766, 1.8689741000998765, 2.087188000092283, 2.453457900090143, 2.7218907000496984, 3.035303800017573, 3.268557900097221, 3.4875122000230476, 3.687891000066884, 3.9206983000040054, 4.134375600027852, 4.334412100026384, 4.519763300078921]"	"[0.4224730000132695, 0.6363998000742868, 0.8559338999912143, 1.0536950000096112, 1.269399799988605, 1.468861800036393, 1.9691140000941232, 2.1883246999932453, 2.603043500101194, 2.835085100028664, 3.134581100079231, 3.3683918000897393, 3.5679093000944704, 3.7675208000000566, 4.001340600079857, 4.22024630010128, 4.400541900075041, 4.600436700042337]"	103.93942199996673	103.9546238000039	105.4539906999562									01	01	2023-12-13_13h07.43.309	BART_exp	2023.2.2	None	2023-12-13 13h07.58.731782 +0100	
balloon.png	105	0	18	18	24	105.50264319998678													105.45455589995254	105.50264319998678	105.50264319998678	105.50264319998678	105.50264319998678	105.50264319998678	0.01668999996036291	0.01668999996036291	0.01668999996036291	105.50264319998678	111.21659760002512	16	0.80	False	"[0.010833333333333334, 0.010833333333333334, 0.013333333333333334, 0.013333333333333334, 0.013333333333333334, 0.013333333333333334, 0.013333333333333334, 0.013333333333333334, 0.013333333333333334, 0.013333333333333334, 0.013333333333333334, 0.013333333333333334, 0.014166666666666666, 0.014166666666666666, 0.014166666666666666, 0.014166666666666666, 0.014166666666666666, 0.015833333333333335, 0.05416666666666667]"	"[-0.4275, -0.4275, -0.4125, -0.4125, -0.4125, -0.4125, -0.4125, -0.4125, -0.4125, -0.4125, -0.4125, -0.4125, -0.4125, -0.4125, -0.4125, -0.4125, -0.41083333333333333, -0.41083333333333333, -0.2275]"	"[1, 1, 1, 1, 1, 1, 1, 1, 1, 1, 1, 1, 1, 1, 1, 1, 1, 1, 0]"	"[0, 0, 0, 0, 0, 0, 0, 0, 0, 0, 0, 0, 0, 0, 0, 0, 0, 0, 0]"	"[0, 0, 0, 0, 0, 0, 0, 0, 0, 0, 0, 0, 0, 0, 0, 0, 0, 0, 1]"	"[0.5810687999473885, 0.7807082999497652, 1.1135387000394985, 1.3133743000216782, 1.5520871999906376, 1.7632802999578416, 1.9966086000204086, 2.282553600030951, 2.529034800012596, 2.7495654999511316, 2.949191499967128, 3.1625139999669045, 3.6635487000457942, 3.8811825000448152, 4.3282340000150725, 4.561456099967472, 5.180187699967064, 5.379881300032139, 5.7606491999467835]"	16	"[1.0742398999864236, 1.2740719999419525, 1.5128394999774173, 1.7239722999511287, 1.9573038999224082, 2.243302099988796, 2.4897313999244943, 2.710428799968213, 2.90988589997869, 3.123221799964085, 3.6242540000239387, 3.8418816999765113, 4.288929599919356, 4.522150099975988, 5.140890599926934, 5.3406781000085175]"	"[1.1604154999367893, 1.3599341999506578, 1.5906298999907449, 1.809684899984859, 2.0898947999812663, 2.3422421999275684, 2.5755556999938563, 2.8088295999914408, 2.9893425999907777, 3.222822399926372, 3.722237900015898, 4.155577600002289, 4.388548200018704, 4.988150299992412, 5.221468899981119, 5.454276599921286]"	111.21774989995174	111.23166539997328	112.7318748999387									01	01	2023-12-13_13h07.43.309	BART_exp	2023.2.2	None	2023-12-13 13h07.58.731782 +0100	
balloon.png	110	0	19	19	25	112.81557460001204													112.7324669000227	112.81557460001204	112.81557460001204	112.81557460001204	112.81557460001204	112.81557460001204	0.016326199984177947	0.016326199984177947	0.016326199984177947	112.81557460001204	119.29785910004284	25	1.25	False	"[0.04416666666666667, 0.05333333333333334, 0.05333333333333334, 0.05333333333333334, 0.05333333333333334, 0.05333333333333334, 0.05333333333333334, 0.05333333333333334, 0.05333333333333334, 0.05333333333333334, 0.05333333333333334, 0.05333333333333334, 0.05333333333333334, 0.05333333333333334, 0.05333333333333334, 0.05333333333333334, 0.05333333333333334, 0.05333333333333334, 0.05333333333333334, 0.05333333333333334, 0.05333333333333334, 0.05333333333333334, 0.05333333333333334, 0.05333333333333334, 0.05333333333333334, 0.05333333333333334, 0.05416666666666667]"	"[-0.35, -0.3625, -0.3625, -0.3625, -0.3625, -0.3625, -0.3625, -0.3625, -0.3625, -0.3625, -0.3625, -0.3625, -0.3625, -0.3625, -0.3625, -0.3625, -0.3625, -0.3625, -0.3625, -0.3625, -0.3625, -0.3625, -0.3625, -0.3625, -0.3625, -0.3625, -0.30333333333333334]"	"[1, 1, 1, 1, 1, 1, 1, 1, 1, 1, 1, 1, 1, 1, 1, 1, 1, 1, 1, 1, 1, 1, 1, 1, 1, 1, 0]"	"[0, 0, 0, 0, 0, 0, 0, 0, 0, 0, 0, 0, 0, 0, 0, 0, 0, 0, 0, 0, 0, 0, 0, 0, 0, 0, 0]"	"[0, 0, 0, 0, 0, 0, 0, 0, 0, 0, 0, 0, 0, 0, 0, 0, 0, 0, 0, 0, 0, 0, 0, 0, 0, 0, 1]"	"[0.3689392999513075, 0.6480364999733865, 0.8478776999982074, 1.0668903000187129, 1.3806969999568537, 1.580473899957724, 2.0329841999337077, 2.2470960000064224, 2.4658893999876454, 2.6802300999406725, 3.1131154999602586, 3.312800099956803, 3.5127656999975443, 3.7653858000412583, 4.030565800028853, 4.232033499982208, 4.465195799944922, 4.645735000027344, 4.8333373999921605, 5.031043799943291, 5.212099099997431, 5.378375599975698, 5.577820500009693, 5.811703599989414, 6.030250399955548, 6.211015000008047, 6.563980199978687]"	25	"[0.5738764000125229, 0.7737255999818444, 0.992742000031285, 1.306546000065282, 1.506322400062345, 1.958838399965316, 2.172936800052412, 2.39174540003296, 2.6060739000095055, 3.038961600046605, 3.238647500053048, 3.4386137999827042, 3.6912346000317484, 3.9564341000514105, 4.157879000063986, 4.391094999969937, 4.571584100020118, 4.759225300047547, 4.956886200001463, 5.1379390000365674, 5.304218300036155, 5.503667599987239, 5.7375437000300735, 5.95609550003428, 6.136858700076118]"	"[0.659604600048624, 0.8735772999934852, 1.0730021999916062, 1.372889699996449, 1.8393672000383958, 2.059006300056353, 2.272510200040415, 2.4921764000318944, 2.92505830002483, 3.1053892000345513, 3.3050234999973327, 3.5380627000704408, 3.7908178999787197, 4.0239053000696, 4.224166000029072, 4.437667199992575, 4.6374603000003844, 4.822444200050086, 5.023366600042209, 5.2230007000034675, 5.3706945000449196, 5.588451600051485, 5.854359999997541, 6.036840400076471, 6.222797099966556]"	119.29910489998292	119.31016310001723	120.7956128999358	120.80913169996347								01	01	2023-12-13_13h07.43.309	BART_exp	2023.2.2	None	2023-12-13 13h07.58.731782 +0100	
balloon.png	101	0	20	20	23	120.80913169996347													120.79618059995119	120.80913169996347	120.80913169996347	120.80913169996347	120.80913169996347	120.80913169996347	0.010132500086911023	0.010132500086911023	0.010132500086911023	120.80913169996347	126.26085570000578	24	1.20	False	"[0.06, 0.06, 0.06, 0.06, 0.06, 0.06, 0.06, 0.06, 0.06, 0.06, 0.06, 0.06, 0.06, 0.06, 0.06, 0.06, 0.06, 0.06, 0.06, 0.06, 0.06, 0.06, 0.06, 0.06, 0.04833333333333333]"	"[-0.41333333333333333, -0.41333333333333333, -0.41333333333333333, -0.41333333333333333, -0.41333333333333333, -0.41333333333333333, -0.41333333333333333, -0.41333333333333333, -0.41333333333333333, -0.41333333333333333, -0.41333333333333333, -0.41333333333333333, -0.41333333333333333, -0.41333333333333333, -0.41333333333333333, -0.41333333333333333, -0.41333333333333333, -0.41333333333333333, -0.41333333333333333, -0.41333333333333333, -0.41333333333333333, -0.41333333333333333, -0.41333333333333333, -0.41333333333333333, -0.2808333333333333]"	"[1, 1, 1, 1, 1, 1, 1, 1, 1, 1, 1, 1, 1, 1, 1, 1, 1, 1, 1, 1, 1, 1, 1, 1, 0]"	"[0, 0, 0, 0, 0, 0, 0, 0, 0, 0, 0, 0, 0, 0, 0, 0, 0, 0, 0, 0, 0, 0, 0, 0, 0]"	"[0, 0, 0, 0, 0, 0, 0, 0, 0, 0, 0, 0, 0, 0, 0, 0, 0, 0, 0, 0, 0, 0, 0, 0, 1]"	"[0.2662590000545606, 0.4461224999977276, 0.6634253000374883, 0.865262100007385, 1.0984492000425234, 1.3317858000518754, 1.5311736000003293, 1.7449778999434784, 1.9779702000087127, 2.2110963000450283, 2.411188600002788, 2.632291099987924, 2.811187700019218, 3.011227000039071, 3.210654400056228, 3.429893600055948, 3.6443195999599993, 3.8630624000215903, 4.0632475999882445, 4.276651600026526, 4.462654700037092, 4.643807000014931, 4.8428085000487044, 5.029164599953219, 5.4632710999576375]"	24	"[0.2638378000119701, 0.44368740008212626, 0.6610857000341639, 0.862829799996689, 1.0960209000622854, 1.3293683000374585, 1.528756899992004, 1.742541900021024, 1.9755388000048697, 2.2086616000160575, 2.408757600001991, 2.6299219999928027, 2.8087527999887243, 3.008796100039035, 3.2082189000211656, 3.4274570000125095, 3.6418902000878006, 3.860626299981959, 4.060816499986686, 4.27421449997928, 4.460225600050762, 4.641375200008042, 4.840373500017449, 5.026734800077975]"	"[0.3961406000889838, 0.5292686000466347, 0.7431888000573963, 0.9756913000019267, 1.1954590000677854, 1.4098931000335142, 1.6088752000359818, 1.8422538000158966, 2.061835400061682, 2.293308100081049, 2.4749412999954075, 2.6751917999936268, 2.8750095000723377, 3.075111399986781, 3.2924571000039577, 3.507646400015801, 3.7271689000772312, 3.9270573999965563, 4.126996700069867, 4.3268186000641435, 4.526543200016022, 4.706960699986666, 4.90697310003452, 5.106502300011925]"	126.26204830000643	126.2713783000363	127.75649029994383	127.7702575000003								01	01	2023-12-13_13h07.43.309	BART_exp	2023.2.2	None	2023-12-13 13h07.58.731782 +0100	
balloon.png	97	0	21	21	22	127.7702575000003													127.75679709995165	127.7702575000003	127.7702575000003	127.7702575000003	127.7702575000003	127.7702575000003	0.008312500081956387	0.008312500081956387	0.008312500081956387	127.7702575000003	132.13719439995475	20	1.00	False	"[0.04583333333333333, 0.04583333333333333, 0.04583333333333333, 0.04583333333333333, 0.04583333333333333, 0.04583333333333333, 0.04583333333333333, 0.045, 0.04416666666666667, 0.04416666666666667, 0.043333333333333335, 0.043333333333333335, 0.043333333333333335, 0.043333333333333335, 0.043333333333333335, 0.043333333333333335, 0.043333333333333335, 0.043333333333333335, 0.043333333333333335, 0.043333333333333335, 0.05583333333333333]"	"[-0.4041666666666667, -0.4041666666666667, -0.4041666666666667, -0.4041666666666667, -0.4041666666666667, -0.4041666666666667, -0.4041666666666667, -0.4041666666666667, -0.4041666666666667, -0.4041666666666667, -0.4025, -0.4025, -0.4025, -0.4025, -0.4025, -0.4025, -0.4025, -0.4025, -0.4025, -0.4025, -0.23333333333333334]"	"[1, 1, 1, 1, 1, 1, 1, 1, 1, 1, 1, 1, 1, 1, 1, 1, 1, 1, 1, 1, 0]"	"[0, 0, 0, 0, 0, 0, 0, 0, 0, 0, 0, 0, 0, 0, 0, 0, 0, 0, 0, 0, 0]"	"[0, 0, 0, 0, 0, 0, 0, 0, 0, 0, 0, 0, 0, 0, 0, 0, 0, 0, 0, 0, 1]"	"[0.16708559996914119, 0.3477568000089377, 0.5335190000478178, 0.7335939999902621, 0.9137079999782145, 1.113361099967733, 1.3134529000381008, 1.5142665000166744, 1.7134794000303373, 1.9129826000425965, 2.1495224999962375, 2.3325878999894485, 2.5653818000573665, 2.7457652000011876, 2.945751899969764, 3.1460710000246763, 3.398879299988039, 3.6317685999674723, 3.898263099952601, 4.096242800005712, 4.379088100045919]"	20	"[0.16481069999281317, 0.34547549998387694, 0.5312684000236914, 0.7313034000108019, 0.911420900025405, 1.1110807000659406, 1.3111837999895215, 1.511990200029686, 1.711197299999185, 1.910694400081411, 2.147509800037369, 2.3303051000693813, 2.563102100044489, 2.7434815000742674, 2.9434706000611186, 3.1437850000802428, 3.3966388000408188, 3.629490700084716, 3.895985300070606, 4.093965900014155]"	"[0.21165489999111742, 0.39750419999472797, 0.61156089999713, 0.7780294000403956, 0.9780544000677764, 1.1780878000427037, 1.3775341000873595, 1.5776517000049353, 1.7772056000540033, 2.010520700016059, 2.196498600067571, 2.4102455000393093, 2.610274000093341, 2.843424800084904, 3.043382600066252, 3.276711400016211, 3.509676899993792, 3.742765999981202, 3.9761147000826895, 4.175648699980229]"	132.13836909993552	132.15311459999066	133.64993479999248									01	01	2023-12-13_13h07.43.309	BART_exp	2023.2.2	None	2023-12-13 13h07.58.731782 +0100	
balloon.png	57	0	22	22	13	133.67461829993408													133.65019249997567	133.67461829993408	133.67461829993408	133.67461829993408	133.67461829993408	133.67461829993408	0.013474799925461411	0.013474799925461411	0.013474799925461411	133.67461829993408	136.93547150003724	17	0.85	False	"[0.035833333333333335, 0.035833333333333335, 0.035833333333333335, 0.035833333333333335, 0.035833333333333335, 0.035833333333333335, 0.035833333333333335, 0.035833333333333335, 0.035833333333333335, 0.035833333333333335, 0.035833333333333335, 0.035833333333333335, 0.035833333333333335, 0.035833333333333335, 0.035833333333333335, 0.035833333333333335, 0.035833333333333335, 0.0125]"	"[-0.3858333333333333, -0.3858333333333333, -0.3858333333333333, -0.3858333333333333, -0.3858333333333333, -0.3858333333333333, -0.3858333333333333, -0.3858333333333333, -0.3858333333333333, -0.3858333333333333, -0.3858333333333333, -0.3858333333333333, -0.3858333333333333, -0.3858333333333333, -0.3858333333333333, -0.3858333333333333, -0.3858333333333333, -0.27416666666666667]"	"[1, 1, 1, 1, 1, 1, 1, 1, 1, 1, 1, 1, 1, 1, 1, 1, 1, 0]"	"[0, 0, 0, 0, 0, 0, 0, 0, 0, 0, 0, 0, 0, 0, 0, 0, 0, 0]"	"[0, 0, 0, 0, 0, 0, 0, 0, 0, 0, 0, 0, 0, 0, 0, 0, 0, 1]"	"[0.025204400066286325, 0.20015569997485727, 0.38635749998502433, 0.58674040006008, 0.7667659000726417, 0.9665342000080273, 1.1329650999978185, 1.3328699000412598, 1.5190575000597164, 1.7176520000211895, 1.9173854000400752, 2.0990749000338838, 2.2987352000782266, 2.465679100016132, 2.652785300044343, 2.85127470002044, 3.0178874999983236, 3.2837550999829546]"	17	"[0.011289300047792494, 0.18623160000424832, 0.37244020006619394, 0.5728716000448912, 0.7528463000198826, 0.9526177000952885, 1.1190477000782266, 1.3189525000052527, 1.505134200095199, 1.7037357999943197, 1.903467099997215, 2.0851529000792652, 2.2848167000338435, 2.4517560000531375, 2.638933700043708, 2.837358199991286, 3.0039700000779703]"	"[0.05290510004851967, 0.25263190001714975, 0.45236810005735606, 0.63872170005925, 0.8188735999865457, 1.0034027000656351, 1.1853128999937326, 1.3853305000811815, 1.571298100054264, 1.7714317000936717, 1.951052900054492, 2.1514566000550985, 2.3516314000589773, 2.5042281000642106, 2.70395210001152, 2.9042117000790313, 3.0841864000540227]"	136.9365096000256	136.94765340001322	138.4306134999497	138.4468102999963								01	01	2023-12-13_13h07.43.309	BART_exp	2023.2.2	None	2023-12-13 13h07.58.731782 +0100	
balloon.png	27	0	23	23	6	138.4468102999963													138.43117480003275	138.4468102999963	138.4468102999963	138.4468102999963	138.4468102999963	138.4468102999963	0.010404499946162105	0.010404499946162105	0.010404499946162105	138.4468102999963	143.0125231000129	22	1.10	False	"[0.035, 0.035, 0.035, 0.035, 0.035, 0.035, 0.035, 0.035, 0.035, 0.035, 0.035, 0.035, 0.035, 0.035, 0.035, 0.035, 0.035, 0.035, 0.035, 0.035, 0.035, 0.034166666666666665]"	"[-0.41, -0.41, -0.41, -0.41, -0.41, -0.41, -0.41, -0.41, -0.41, -0.41, -0.41, -0.41, -0.41, -0.41, -0.41, -0.41, -0.41, -0.41, -0.41, -0.41, -0.41, -0.315]"	"[1, 1, 1, 1, 1, 1, 1, 1, 1, 1, 1, 1, 1, 1, 1, 1, 1, 1, 1, 1, 1, 0]"	"[0, 0, 0, 0, 0, 0, 0, 0, 0, 0, 0, 0, 0, 0, 0, 0, 0, 0, 0, 0, 0, 0]"	"[0, 0, 0, 0, 0, 0, 0, 0, 0, 0, 0, 0, 0, 0, 0, 0, 0, 0, 0, 0, 0, 1]"	"[0.14946570002939552, 0.367471200064756, 0.6020378000102937, 0.7826756000285968, 1.0349603000795469, 1.2488253000192344, 1.468124600010924, 1.7018122000154108, 1.9014631001045927, 2.1015303001040593, 2.3010328999953344, 2.4814640000695363, 2.781335800071247, 2.9339757000561804, 3.167088699992746, 3.367137800087221, 3.599965700064786, 3.7810017000883818, 3.9666657000780106, 4.147339800023474, 4.333119100076146, 4.579807300004177]"	21	"[0.14647519995924085, 0.3644888000562787, 0.5990719000110403, 0.779686399968341, 1.0319666999857873, 1.245830800035037, 1.4651383999735117, 1.6988213000586256, 1.8984736000420526, 2.0985362000064924, 2.2980449000606313, 2.4784793000435457, 2.778339899959974, 2.930988600011915, 3.1640891999704763, 3.364136000047438, 3.5969879999756813, 3.7780034999595955, 3.963678600033745, 4.1443424000171944, 4.330133900046349]"	"[0.24610510002821684, 0.46458410006016493, 0.6791204999899492, 0.8969308000523597, 1.1312489999691024, 1.331582500017248, 1.5648521999828517, 1.764969200012274, 1.9782183000352234, 2.1783234999747947, 2.3446154999546707, 2.5647387000499293, 2.811097600031644, 3.030421099974774, 3.2444987000199035, 3.463556900038384, 3.6442321999929845, 3.8438266000011936, 4.0438777999952435, 4.22981940000318, 4.37674470001366]"	143.01364300004207	143.02898740000091	144.52831219998188									01	01	2023-12-13_13h07.43.309	BART_exp	2023.2.2	None	2023-12-13 13h07.58.731782 +0100	
balloon.png	118	0	24	24	27	144.54947269998956													144.52888759993948	144.54947269998956	144.54947269998956	144.54947269998956	144.54947269998956	144.54947269998956	0.017117499955929816	0.017117499955929816	0.017117499955929816	144.54947269998956	149.12809340003878	19	0.95	False	"[0.04416666666666667, 0.04416666666666667, 0.04416666666666667, 0.04416666666666667, 0.04416666666666667, 0.04416666666666667, 0.04416666666666667, 0.04416666666666667, 0.04416666666666667, 0.04416666666666667, 0.04416666666666667, 0.04416666666666667, 0.04416666666666667, 0.04416666666666667, 0.04416666666666667, 0.04416666666666667, 0.043333333333333335, 0.043333333333333335, 0.043333333333333335, 0.029166666666666667]"	"[-0.41583333333333333, -0.41583333333333333, -0.415, -0.4141666666666667, -0.4141666666666667, -0.4141666666666667, -0.4141666666666667, -0.4141666666666667, -0.4141666666666667, -0.4141666666666667, -0.4141666666666667, -0.4141666666666667, -0.4141666666666667, -0.4141666666666667, -0.4141666666666667, -0.41333333333333333, -0.41333333333333333, -0.41333333333333333, -0.41333333333333333, -0.2608333333333333]"	"[1, 1, 1, 1, 1, 1, 1, 1, 1, 1, 1, 1, 1, 1, 1, 1, 1, 1, 1, 0]"	"[0, 0, 0, 0, 0, 0, 0, 0, 0, 0, 0, 0, 0, 0, 0, 0, 0, 0, 0, 0]"	"[0, 0, 0, 0, 0, 0, 0, 0, 0, 0, 0, 0, 0, 0, 0, 0, 0, 0, 0, 1]"	"[0.3004450999433175, 0.5000949999084696, 0.7159866999136284, 0.9343476999783888, 1.1339480999158695, 1.3473022999241948, 1.5667148999636993, 1.7805051999166608, 1.999922399991192, 2.19780520000495, 2.413286199909635, 2.632569900015369, 2.847014999948442, 3.0460397999268025, 3.279085599933751, 3.498301599989645, 3.679147299961187, 3.8650415999582037, 4.098177399951965, 4.597695300006308]"	19	"[0.2895382000133395, 0.48919089999981225, 0.7050801999866962, 0.9234445999609306, 1.1230398999759927, 1.3364006000338122, 1.5558084999211133, 1.76959809998516, 1.9890138999326155, 2.187057500006631, 2.4023825000040233, 2.621669100015424, 2.8361058000009507, 3.035131699987687, 3.268174699973315, 3.487392899929546, 3.668246699962765, 3.854135600035079, 4.087263299967162]"	"[0.3700805000262335, 0.5698955999687314, 0.7891720000188798, 1.002708000014536, 1.2026648999890313, 1.4219444999471307, 1.6217203999403864, 1.8357940999558195, 2.055515200016089, 2.2556230999762192, 2.468875600025058, 2.7018732000142336, 2.9015364999650046, 3.101802699966356, 3.320775100030005, 3.518675399944186, 3.701167199993506, 3.919948900002055, 4.167835899977945]"	149.12916949996725	149.13989290001336	150.6261780000059	150.6389472000301								01	01	2023-12-13_13h07.43.309	BART_exp	2023.2.2	None	2023-12-13 13h07.58.731782 +0100	
balloon.png	53	0	25	25	12	150.6389472000301													150.62642959994264	150.6389472000301	150.6389472000301	150.6389472000301	150.6389472000301	150.6389472000301	0.009887699969112873	0.009887699969112873	0.009887699969112873	150.6389472000301	156.17059630004223	26	1.30	False	"[0.03666666666666667, 0.03666666666666667, 0.035833333333333335, 0.035833333333333335, 0.035833333333333335, 0.035833333333333335, 0.035, 0.035, 0.035, 0.035, 0.035, 0.034166666666666665, 0.034166666666666665, 0.034166666666666665, 0.034166666666666665, 0.034166666666666665, 0.034166666666666665, 0.03333333333333333, 0.0325, 0.0325, 0.0325, 0.0325, 0.0325, 0.0325, 0.0325, 0.0325, 0.0]"	"[-0.3875, -0.3875, -0.3875, -0.3875, -0.38666666666666666, -0.38666666666666666, -0.38666666666666666, -0.38666666666666666, -0.38666666666666666, -0.38666666666666666, -0.38666666666666666, -0.3858333333333333, -0.3858333333333333, -0.3858333333333333, -0.3858333333333333, -0.3858333333333333, -0.3858333333333333, -0.3858333333333333, -0.3858333333333333, -0.385, -0.385, -0.385, -0.385, -0.385, -0.385, -0.385, -0.25833333333333336]"	"[1, 1, 1, 1, 1, 1, 1, 1, 1, 1, 1, 1, 1, 1, 1, 1, 1, 1, 1, 1, 1, 1, 1, 1, 1, 1, 0]"	"[0, 0, 0, 0, 0, 0, 0, 0, 0, 0, 0, 0, 0, 0, 0, 0, 0, 0, 0, 0, 0, 0, 0, 0, 0, 0, 0]"	"[0, 0, 0, 0, 0, 0, 0, 0, 0, 0, 0, 0, 0, 0, 0, 0, 0, 0, 0, 0, 0, 0, 0, 0, 0, 0, 1]"	"[0.0845784000121057, 0.2468020999804139, 0.46624939993489534, 0.6641055999789387, 0.865529999951832, 1.0638524999376386, 1.279494500020519, 1.4791895999806002, 1.7002252000384033, 1.9122908000135794, 2.098650799947791, 2.3333915999392048, 2.5453014000086114, 2.7453525000019, 2.964612999930978, 3.1779989999486133, 3.3778223999543115, 3.5778212000150234, 3.811136099975556, 4.028790100011975, 4.230084799928591, 4.428603200009093, 4.643671100027859, 4.8437519000144675, 5.043769699987024, 5.229822500026785, 5.542898699990474]"	26	"[0.07237329997587949, 0.24474159989040345, 0.46418269991409034, 0.6620546999620274, 0.8634704999858513, 1.0618438998935744, 1.277432099916041, 1.4771228999597952, 1.6981813999591395, 1.910230099922046, 2.096597799914889, 2.331339699914679, 2.5432539999019355, 2.743305999902077, 2.962561099906452, 3.1759517999598756, 3.3757663998985663, 3.5757623999379575, 3.8090741999913007, 4.02678669989109, 4.228028699988499, 4.42655879992526, 4.641607799916528, 4.8416914999252185, 5.041705499985255, 5.2277637999504805]"	"[0.13036909990478307, 0.3106845999136567, 0.5110113999107853, 0.7107671999838203, 0.9106053999857977, 1.1438867999240756, 1.3438229999737814, 1.543582099955529, 1.7433864999329671, 1.9430974998977035, 2.1432423999067396, 2.3640214999904856, 2.6094189999857917, 2.8100346999708563, 3.029025199939497, 3.242402199888602, 3.441899999976158, 3.6613624999299645, 3.8752570999786258, 4.092468399903737, 4.294188699917868, 4.507992699975148, 4.708320299978368, 4.907668499974534, 5.094429999939166, 5.292253899970092]"	156.17185719998088	156.18739890004508	157.6846353999572									01	01	2023-12-13_13h07.43.309	BART_exp	2023.2.2	None	2023-12-13 13h07.58.731782 +0100	
balloon.png	44	0	26	26	10	157.76937620004173													157.68490889994428	157.76937620004173	157.76937620004173	157.76937620004173	157.76937620004173	157.76937620004173	0.01570049999281764	0.01570049999281764	0.01570049999281764	157.76937620004173	164.37115669995546	30	1.50	False	"[0.02666666666666667, 0.02666666666666667, 0.02666666666666667, 0.025833333333333333, 0.025833333333333333, 0.025833333333333333, 0.025833333333333333, 0.025833333333333333, 0.025833333333333333, 0.025833333333333333, 0.025833333333333333, 0.025833333333333333, 0.025833333333333333, 0.025833333333333333, 0.025833333333333333, 0.025833333333333333, 0.025833333333333333, 0.025833333333333333, 0.025833333333333333, 0.025833333333333333, 0.025833333333333333, 0.025833333333333333, 0.025833333333333333, 0.024166666666666666, 0.024166666666666666, 0.024166666666666666, 0.024166666666666666, 0.024166666666666666, 0.024166666666666666, 0.03333333333333333]"	"[-0.3883333333333333, -0.3883333333333333, -0.3883333333333333, -0.3883333333333333, -0.3883333333333333, -0.3883333333333333, -0.3883333333333333, -0.3883333333333333, -0.3883333333333333, -0.3883333333333333, -0.3883333333333333, -0.3883333333333333, -0.3883333333333333, -0.3883333333333333, -0.3883333333333333, -0.3883333333333333, -0.3883333333333333, -0.3883333333333333, -0.3883333333333333, -0.3883333333333333, -0.3883333333333333, -0.3883333333333333, -0.3883333333333333, -0.3875, -0.38666666666666666, -0.38666666666666666, -0.38666666666666666, -0.38666666666666666, -0.38666666666666666, -0.3333333333333333]"	"[1, 1, 1, 1, 1, 1, 1, 1, 1, 1, 1, 1, 1, 1, 1, 1, 1, 1, 1, 1, 1, 1, 1, 1, 1, 1, 1, 1, 1, 0]"	"[0, 0, 0, 0, 0, 0, 0, 0, 0, 0, 0, 0, 0, 0, 0, 0, 0, 0, 0, 0, 0, 0, 0, 0, 0, 0, 0, 0, 0, 0]"	"[0, 0, 0, 0, 0, 0, 0, 0, 0, 0, 0, 0, 0, 0, 0, 0, 0, 0, 0, 0, 0, 0, 0, 0, 0, 0, 0, 0, 0, 1]"	"[0.13624030002392828, 0.33611220004968345, 0.5502297000493854, 0.7857226000633091, 0.9522051999811083, 1.1674494000617415, 1.3995909000514075, 1.5993503000354394, 1.7991818999871612, 2.01873680006247, 2.232554499991238, 2.4836541999829933, 2.718172900029458, 2.9845682000741363, 3.1851713000796735, 3.4511172000784427, 3.6314827000023797, 3.8174282000400126, 4.050860000075772, 4.25032650004141, 4.450569699984044, 4.6499708000337705, 4.816828200011514, 5.0171261000214145, 5.216253300081007, 5.415946200024337, 5.615966800018214, 5.831584400031716, 6.046918699983507, 6.684833800070919]"	29	"[0.061188100022263825, 0.2610594999277964, 0.47518970002420247, 0.7106731999665499, 0.877162899938412, 1.0923946999246255, 1.3245316999964416, 1.5242956000147387, 1.724127299967222, 1.9436836999375373, 2.157502399990335, 2.408723199972883, 2.6431398999411613, 2.9095154999522492, 3.110139700002037, 3.3760753999231383, 3.5564376999391243, 3.742368599982001, 3.975805899943225, 4.1752762999385595, 4.375525099923834, 4.5749189999187365, 4.741776500013657, 4.942077899933793, 5.141210000030696, 5.34089629992377, 5.540921599953435, 5.756532400031574, 5.972063099965453]"	"[0.1276308000087738, 0.3609759999671951, 0.5440599999856204, 0.7581010999856517, 0.9577602000208572, 1.157689500018023, 1.3907184000127017, 1.6085187999997288, 1.8237098000245169, 2.0237048999406397, 2.241469700005837, 2.4898726999526843, 2.7229496999643743, 2.9759604999562725, 3.1895439999643713, 3.441708100028336, 3.6419718000106514, 3.8416690999874845, 4.041894800029695, 4.241832499974407, 4.455249099992216, 4.641946299932897, 4.822098099975847, 5.0414859999436885, 5.240605999948457, 5.421654799953103, 5.640660799923353, 5.840805699932389, 6.073956699925475]"	164.37257689994294	164.38147419993766	165.86556299997028	165.87920399999712								01	01	2023-12-13_13h07.43.309	BART_exp	2023.2.2	None	2023-12-13 13h07.58.731782 +0100	
balloon.png	40	0	27	27	9	165.87920399999712													165.86582629999612	165.87920399999712	165.87920399999712	165.87920399999712	165.87920399999712	165.87920399999712	0.0067387999733909965	0.0067387999733909965	0.0067387999733909965	165.87920399999712	171.54462709999643	25	1.25	False	"[0.07833333333333334, 0.07833333333333334, 0.07833333333333334, 0.08666666666666667, 0.08666666666666667, 0.08666666666666667, 0.08666666666666667, 0.08666666666666667, 0.08666666666666667, 0.08666666666666667, 0.08666666666666667, 0.08666666666666667, 0.08666666666666667, 0.08666666666666667, 0.08666666666666667, 0.08666666666666667, 0.08666666666666667, 0.08666666666666667, 0.08666666666666667, 0.08666666666666667, 0.08666666666666667, 0.08666666666666667, 0.08666666666666667, 0.08666666666666667, 0.08666666666666667, 0.08583333333333333]"	"[-0.3858333333333333, -0.3858333333333333, -0.3858333333333333, -0.38416666666666666, -0.38416666666666666, -0.38416666666666666, -0.38416666666666666, -0.38416666666666666, -0.38416666666666666, -0.38416666666666666, -0.38416666666666666, -0.38416666666666666, -0.38416666666666666, -0.38416666666666666, -0.38416666666666666, -0.38416666666666666, -0.38416666666666666, -0.38416666666666666, -0.38416666666666666, -0.38416666666666666, -0.38416666666666666, -0.38416666666666666, -0.38416666666666666, -0.38416666666666666, -0.38416666666666666, -0.37416666666666665]"	"[1, 1, 1, 1, 1, 1, 1, 1, 1, 1, 1, 1, 1, 1, 1, 1, 1, 1, 1, 1, 1, 1, 1, 1, 1, 0]"	"[0, 0, 0, 0, 0, 0, 0, 0, 0, 0, 0, 0, 0, 0, 0, 0, 0, 0, 0, 0, 0, 0, 0, 0, 0, 0]"	"[0, 0, 0, 0, 0, 0, 0, 0, 0, 0, 0, 0, 0, 0, 0, 0, 0, 0, 0, 0, 0, 0, 0, 0, 0, 1]"	"[0.3808277000207454, 0.566294000018388, 0.7802483000559732, 1.0135058000450954, 1.2130725999595597, 1.4326636999612674, 1.6330653000622988, 1.830748200067319, 2.0660550000611693, 2.279581299982965, 2.4659808999858797, 2.6990444000111893, 2.898095899960026, 3.098571400041692, 3.331507800030522, 3.5457495000446215, 3.8313310999656096, 4.011324099963531, 4.211757200071588, 4.477659499971196, 4.664136999985203, 4.877619500039145, 5.064155300031416, 5.243884800001979, 5.43031039997004, 5.677499599987641]"	26	"[0.3783999999286607, 0.5638641000259668, 0.7778216999722645, 1.0110781999537721, 1.2106428999686614, 1.430242499918677, 1.6306419000029564, 1.82832710002549, 2.063637299928814, 2.2771512999897823, 2.463581999996677, 2.696616799919866, 2.8957859999500215, 3.09613800002262, 3.329081099946052, 3.5433174999197945, 3.8289204000029713, 4.008899100008421, 4.209326599957421, 4.475227999966592, 4.661712099914439, 4.875188699923456, 5.061765299993567, 5.241461099940352, 5.427883600001223, 5.674995900015347]"	"[0.41105270001571625, 0.6444399999454618, 0.8617820999352261, 1.0776611999608576, 1.2951357000274584, 1.4973129000281915, 1.696592399966903, 1.910246399929747, 2.143640900030732, 2.343140900018625, 2.562699700007215, 2.7291272999718785, 2.976447799941525, 3.2271119999932125, 3.4433947999496013, 3.6760158999823034, 3.8761661999160424, 4.108932900009677, 4.30897809995804, 4.528245299938135, 4.742061999975704, 4.9277792000211775, 5.107963899965398, 5.308247699984349, 5.507994599989615, 5.675001199939288]"	171.5458717000438	171.56068869994488	173.06029169994872									01	01	2023-12-13_13h07.43.309	BART_exp	2023.2.2	None	2023-12-13 13h07.58.731782 +0100	
balloon.png	88	0	28	28	20	173.07509800000116													173.06085559993517	173.07509800000116	173.07509800000116	173.07509800000116	173.07509800000116	173.07509800000116	0.016742500010877848	0.016742500010877848	0.016742500010877848	173.07509800000116	178.6941921999678	25	1.25	False	"[0.056666666666666664, 0.056666666666666664, 0.056666666666666664, 0.056666666666666664, 0.056666666666666664, 0.056666666666666664, 0.056666666666666664, 0.056666666666666664, 0.056666666666666664, 0.05583333333333333, 0.05583333333333333, 0.05583333333333333, 0.05583333333333333, 0.05583333333333333, 0.05583333333333333, 0.05583333333333333, 0.05583333333333333, 0.05583333333333333, 0.05583333333333333, 0.05583333333333333, 0.05583333333333333, 0.05583333333333333, 0.05583333333333333, 0.05583333333333333, 0.05583333333333333, 0.041666666666666664]"	"[-0.39, -0.39, -0.39, -0.39, -0.39, -0.39, -0.39, -0.39, -0.39, -0.39166666666666666, -0.39166666666666666, -0.39166666666666666, -0.39166666666666666, -0.39166666666666666, -0.39166666666666666, -0.39166666666666666, -0.39166666666666666, -0.39166666666666666, -0.39166666666666666, -0.39166666666666666, -0.39166666666666666, -0.39166666666666666, -0.39166666666666666, -0.39166666666666666, -0.39166666666666666, -0.2725]"	"[1, 1, 1, 1, 1, 1, 1, 1, 1, 1, 1, 1, 1, 1, 1, 1, 1, 1, 1, 1, 1, 1, 1, 1, 1, 0]"	"[0, 0, 0, 0, 0, 0, 0, 0, 0, 0, 0, 0, 0, 0, 0, 0, 0, 0, 0, 0, 0, 0, 0, 0, 0, 0]"	"[0, 0, 0, 0, 0, 0, 0, 0, 0, 0, 0, 0, 0, 0, 0, 0, 0, 0, 0, 0, 0, 0, 0, 0, 0, 1]"	"[0.33364930003881454, 0.5002706000814214, 0.7005201000720263, 0.9333434000145644, 1.1330020000459626, 1.3658633000450209, 1.5802494999952614, 1.7992114000953734, 2.032459200010635, 2.23415630008094, 2.4655169000616297, 2.665622500004247, 2.912451900076121, 3.1121739000082016, 3.3625741000287235, 3.5453623000066727, 3.7981540000764653, 3.995964300003834, 4.230571900028735, 4.4309562999987975, 4.6442827000282705, 4.831246600020677, 5.011397600057535, 5.197592500015162, 5.378103900002316, 5.631948900059797]"	25	"[0.3283835999900475, 0.4949926999397576, 0.6953006000258029, 0.9280708000296727, 1.127729499945417, 1.3605919999536127, 1.5749761000042781, 1.7939331999514252, 2.0271875999169424, 2.2288916999241337, 2.460242999950424, 2.6603509000269696, 2.9071766999550164, 3.1068971999920905, 3.357515599927865, 3.540088800014928, 3.792878199950792, 3.9907182999886572, 4.225289599969983, 4.425691799959168, 4.639009999926202, 4.825970600009896, 5.0061143999919295, 5.192317700013518, 5.372817300027236]"	"[0.36147859995253384, 0.5610172000015154, 0.7750128000043333, 0.9941851999610662, 1.2080795000074431, 1.4273494000080973, 1.6590776999946684, 1.893885999917984, 2.0740068999584764, 2.307684800005518, 2.526791999931447, 2.7594005999853835, 2.9734134000027552, 3.2066167999291793, 3.406932699959725, 3.6255066000157967, 3.83981799997855, 4.07288500003051, 4.292190299951471, 4.5060043999692425, 4.691991099971347, 4.872182599967346, 5.056879699928686, 5.25636699993629, 5.438340299995616]"	178.69540630001575	178.70496230002027	180.18973500002176	180.20305010001175								01	01	2023-12-13_13h07.43.309	BART_exp	2023.2.2	None	2023-12-13 13h07.58.731782 +0100	
balloon.png	71	0	29	29	16	180.20305010001175													180.18998369993642	180.20305010001175	180.20305010001175	180.20305010001175	180.20305010001175	180.20305010001175	0.0077683000126853585	0.0077683000126853585	0.0077683000126853585	180.20305010001175	186.71916119998787	30	1.50	False	"[0.0275, 0.0275, 0.0275, 0.0275, 0.0275, 0.0275, 0.0275, 0.0275, 0.0275, 0.0275, 0.0275, 0.0275, 0.0275, 0.0275, 0.0275, 0.0275, 0.0275, 0.0275, 0.0275, 0.0275, 0.0275, 0.0275, 0.0275, 0.0275, 0.0275, 0.0275, 0.0275, 0.0275, 0.0275, 0.0275, 0.011666666666666667]"	"[-0.38166666666666665, -0.38166666666666665, -0.38166666666666665, -0.38166666666666665, -0.38166666666666665, -0.38166666666666665, -0.38166666666666665, -0.38166666666666665, -0.38166666666666665, -0.38166666666666665, -0.38166666666666665, -0.38166666666666665, -0.38166666666666665, -0.38166666666666665, -0.38166666666666665, -0.38166666666666665, -0.38166666666666665, -0.38166666666666665, -0.38166666666666665, -0.38166666666666665, -0.38166666666666665, -0.38166666666666665, -0.38166666666666665, -0.38166666666666665, -0.38166666666666665, -0.38166666666666665, -0.38166666666666665, -0.38166666666666665, -0.38166666666666665, -0.38166666666666665, -0.2925]"	"[1, 1, 1, 1, 1, 1, 1, 1, 1, 1, 1, 1, 1, 1, 1, 1, 1, 1, 1, 1, 1, 1, 1, 1, 1, 1, 1, 1, 1, 1, 0]"	"[0, 0, 0, 0, 0, 0, 0, 0, 0, 0, 0, 0, 0, 0, 0, 0, 0, 0, 0, 0, 0, 0, 0, 0, 0, 0, 0, 0, 0, 0, 0]"	"[0, 0, 0, 0, 0, 0, 0, 0, 0, 0, 0, 0, 0, 0, 0, 0, 0, 0, 0, 0, 0, 0, 0, 0, 0, 0, 0, 0, 0, 0, 1]"	"[0.13145410001743585, 0.315924399998039, 0.5310177999781445, 0.7308329999214038, 0.9309185999445617, 1.1465168999275193, 1.346544999978505, 1.5994187999749556, 1.8131402999861166, 2.0465946999611333, 2.232322399970144, 2.4653229999821633, 2.697032899945043, 2.879094499978237, 3.078791399952024, 3.296754000009969, 3.5117582000093535, 3.711977200000547, 3.9950322000076994, 4.212198699940927, 4.427705999929458, 4.661041099927388, 4.880035199923441, 5.0791664000134915, 5.2785993999568745, 5.47874009993393, 5.693810799974017, 5.877408899948932, 6.080297700013034, 6.26030829991214, 6.5279287999728695]"	29	"[0.12938499997835606, 0.3136704999487847, 0.528917699935846, 0.7287315999856219, 0.9288489000173286, 1.1442379000363871, 1.5971311000175774, 1.8108622999861836, 2.044305899995379, 2.230048600002192, 2.463041399954818, 2.6947585999732837, 2.8768101999303326, 3.076509900041856, 3.294508900027722, 3.5094727999530733, 3.709704100037925, 3.992745399940759, 4.210104799945839, 4.4254210999934, 4.658759000012651, 4.8779364000074565, 5.076918400009163, 5.276342099998146, 5.476508999941871, 5.6915769999613985, 5.875282399938442, 6.078080700011924, 6.258072500000708]"	"[0.19933700002729893, 0.39578200003597885, 0.5972041999921203, 0.7954906999366358, 0.9949606000445783, 1.4618641999550164, 1.6775750999804586, 1.9105259999632835, 2.1105663999915123, 2.310552699957043, 2.5433683999581262, 2.7431193999946117, 2.960710100014694, 3.142954600043595, 3.3622433999553323, 3.5759935999521986, 3.7926265000132844, 4.059760499978438, 4.277681099949405, 4.52549489994999, 4.726689900038764, 4.942657400039025, 5.142746699973941, 5.342342699994333, 5.542266399948858, 5.743988299975172, 5.942141399951652, 6.142008399940096, 6.31035109993536]"	186.72068200004287	186.73397119995207	188.2335030999966									01	01	2023-12-13_13h07.43.309	BART_exp	2023.2.2	None	2023-12-13 13h07.58.731782 +0100	
																																														188.2336591000203	188.24763689993415	188.24763689993415	190.26687910000328	space	2.008754700073041	None	01	01	2023-12-13_13h07.43.309	BART_exp	2023.2.2	None	2023-12-13 13h07.58.731782 +0100	
