image	max_pumps	pump_loop.thisRepN	pump_loop.thisTrialN	pump_loop.thisN	pump_loop.thisIndex	thisRow.t	notes	Start.started	text_start.started	continue_start.started	mouse_start.started	Start.stopped	mouse_start.x	mouse_start.y	mouse_start.leftButton	mouse_start.midButton	mouse_start.rightButton	mouse_start.time	trials.started	stim_balloon.started	stim_balloon_burst.started	stim_balloon_burst.stopped	text_ballon_value.started	text_bank.started	mouse.started	sound_bang.started	sound_bang.stopped	button_balloon.started	trials.stopped	n_pumps	earnings	popped	mouse.x	mouse.y	mouse.leftButton	mouse.midButton	mouse.rightButton	mouse.time	button_balloon.numClicks	button_balloon.timesOn	button_balloon.timesOff	Feedback.started	text_feedback.started	Feedback.stopped	text_feedback.stopped	End.started	text_end.started	key_end.started	End.stopped	key_end.keys	key_end.rt	key_end.duration	participant	session	date	expName	psychopyVersion	frameRate	expStart	
								0.036748099999385886	0.05018459999701008	0.05018459999701008	0.03708779999578837	253.45140529998753	[0.7]	[-0.4203703703703704]	[1]	[0]	[0]	[253.4137069999997]																																			14	03	2024-02-07_15h33.25.932	BART_exp	2023.2.3	119.97485326084676	2024-02-07 15h33.40.201653 +0100	
balloon.png	53	0	0	0	12	253.51760019999347													253.4585292999982	253.51760019999347	253.51760019999347	253.51760019999347	253.51760019999347	253.51760019999347	0.008808400001726113	0.008808400001726113	0.008808400001726113	253.51760019999347	268.0200654999935	22	1.10	False	"[-0.03981481481481482, -0.03981481481481482, -0.03981481481481482, -0.03981481481481482, -0.03981481481481482, -0.03981481481481482, -0.03981481481481482, -0.03981481481481482, -0.03981481481481482, -0.03981481481481482, -0.03981481481481482, -0.03981481481481482, -0.03981481481481482, -0.03981481481481482, -0.03981481481481482, -0.03981481481481482, -0.03981481481481482, -0.03981481481481482, -0.03981481481481482, -0.03981481481481482, -0.03981481481481482, -0.03981481481481482, -0.03981481481481482]"	"[-0.387037037037037, -0.387037037037037, -0.387037037037037, -0.387037037037037, -0.387037037037037, -0.387037037037037, -0.387037037037037, -0.387037037037037, -0.387037037037037, -0.387037037037037, -0.387037037037037, -0.387037037037037, -0.387037037037037, -0.387037037037037, -0.387037037037037, -0.387037037037037, -0.387037037037037, -0.387037037037037, -0.387037037037037, -0.387037037037037, -0.387037037037037, -0.387037037037037, -0.387037037037037]"	"[1, 1, 1, 1, 1, 1, 1, 1, 1, 1, 1, 1, 1, 1, 1, 1, 1, 1, 1, 1, 1, 1, 0]"	"[0, 0, 0, 0, 0, 0, 0, 0, 0, 0, 0, 0, 0, 0, 0, 0, 0, 0, 0, 0, 0, 0, 0]"	"[0, 0, 0, 0, 0, 0, 0, 0, 0, 0, 0, 0, 0, 0, 0, 0, 0, 0, 0, 0, 0, 0, 1]"	"[2.268592299995362, 3.176674999995157, 3.6850640999909956, 4.568293399992399, 5.151726500000223, 5.626878099996247, 6.018570799991721, 6.452125199997681, 7.160152399999788, 7.535172199990484, 7.9770060000009835, 8.452167799987365, 9.34366109999246, 9.810480199987069, 10.268721000000369, 10.702094199994463, 11.452271699992707, 11.918822299994645, 12.619099799994729, 12.844044099998428, 13.718978799995966, 14.210802499990677, 14.560627200000454]"	23	"[2.2216859000036493, 3.1297463000082644, 3.638134600012563, 4.521363600011682, 5.1047921999997925, 5.579950200000894, 5.9716368000081275, 6.405192600010196, 7.113217300007818, 7.488238000005367, 7.930071000009775, 8.40523970000504, 9.296727500011912, 9.76354660000652, 10.221788599999854, 10.655159700007061, 11.405340400000568, 11.871891100003268, 12.572168600003351, 12.797110200001043, 13.672044100007042, 14.163867399998708, 14.513626800006023]"	"[2.3794221999996807, 3.3461730999988504, 3.779483000005712, 4.679563300000154, 5.20458740000322, 5.696346400000039, 6.079653799999505, 6.5213867999991635, 7.221536600001855, 7.621429700011504, 8.046454000010272, 8.563165400002617, 9.46323810001195, 9.954905999999028, 10.379946300003212, 10.78834050000296, 11.5300305000128, 12.005139900007634, 12.680166400008602, 12.955168000000413, 13.780184000002919, 14.3052241000114, 14.5136310000089]"	268.0214934999967	268.035129099997	269.5270213999902									14	03	2024-02-07_15h33.25.932	BART_exp	2023.2.3	119.97485326084676	2024-02-07 15h33.40.201653 +0100	
balloon.png	23	0	1	1	5	269.5436480999924													269.52719499998784	269.5436480999924	269.5436480999924	269.5436480999924	269.5436480999924	269.5436480999924	0.006957599995075725	0.006957599995075725	0.006957599995075725	269.5436480999924	284.97979399999895	22	1.10	False	"[-0.03981481481481482, -0.03981481481481482, -0.03981481481481482, -0.03981481481481482, -0.03981481481481482, -0.03981481481481482, -0.03981481481481482, -0.03981481481481482, -0.03981481481481482, -0.03981481481481482, -0.03981481481481482, -0.03981481481481482, -0.03981481481481482, -0.03981481481481482, -0.03981481481481482, -0.03981481481481482, -0.03981481481481482, -0.03981481481481482, -0.03981481481481482, -0.03981481481481482, -0.03981481481481482, -0.03981481481481482, -0.03981481481481482]"	"[-0.387037037037037, -0.387037037037037, -0.387037037037037, -0.387037037037037, -0.387037037037037, -0.387037037037037, -0.387037037037037, -0.387037037037037, -0.387037037037037, -0.387037037037037, -0.387037037037037, -0.387037037037037, -0.387037037037037, -0.387037037037037, -0.387037037037037, -0.387037037037037, -0.387037037037037, -0.387037037037037, -0.387037037037037, -0.387037037037037, -0.387037037037037, -0.387037037037037, -0.387037037037037]"	"[1, 1, 1, 1, 1, 1, 1, 1, 1, 1, 1, 1, 1, 1, 1, 1, 1, 1, 1, 1, 1, 1, 0]"	"[0, 0, 0, 0, 0, 0, 0, 0, 0, 0, 0, 0, 0, 0, 0, 0, 0, 0, 0, 0, 0, 0, 0]"	"[0, 0, 0, 0, 0, 0, 0, 0, 0, 0, 0, 0, 0, 0, 0, 0, 0, 0, 0, 0, 0, 0, 1]"	"[2.775797299997066, 3.334205799998017, 3.85071670000616, 4.200830300003872, 4.7009487000032095, 5.167647599999327, 6.0843582000088645, 6.901127799996175, 7.467623500007903, 9.176119499999913, 9.776313000009395, 10.501590100000612, 10.959725299995625, 11.318034199997783, 11.826253200008068, 12.309812899999088, 12.768133100005798, 13.151532600008068, 13.893200899998192, 14.33492799999658, 14.818117500006338, 15.060012800007826, 15.451698400007444]"	23	"[2.7675962999928743, 3.3260078999883262, 3.842512399991392, 4.192630999998073, 4.692755399999442, 5.159448899998097, 6.076158899988513, 6.892929899986484, 7.459419599996181, 9.16791469999589, 9.768111199999112, 10.493405899993377, 10.951527599987458, 11.309841499998583, 11.818045399995754, 12.301607499990496, 12.759930899992469, 13.143329999991693, 13.884994099993492, 14.32672049998655, 14.809911199990893, 15.051815099999658, 15.443430699990131]"	"[2.900642799999332, 3.475665299993125, 3.93403330000001, 4.317384199996013, 4.875767599995015, 5.359153599987621, 6.242543000000296, 7.05925269999716, 7.650945699992008, 9.359466099995188, 9.934428799999296, 10.609674699997413, 11.042887099989457, 11.409532099991338, 11.926284099987242, 12.426276899990626, 12.91796219999378, 13.309674999996787, 14.034809599994333, 14.45143729999836, 14.934773599990876, 15.20153589999245, 15.44343499999377]"	284.98108919999504	284.9863933999877	286.4783441999898	286.4864774000016								14	03	2024-02-07_15h33.25.932	BART_exp	2023.2.3	119.97485326084676	2024-02-07 15h33.40.201653 +0100	
balloon.png	79	0	2	2	18	286.4864774000016													286.47851739999896	286.4864774000016	286.4864774000016	286.4864774000016	286.4864774000016	286.4864774000016	0.0054512000060640275	0.0054512000060640275	0.0054512000060640275	286.4864774000016	297.7387896	22	1.10	False	"[-0.03981481481481482, -0.03981481481481482, -0.03981481481481482, -0.03981481481481482, -0.03981481481481482, -0.03981481481481482, -0.03981481481481482, -0.03981481481481482, -0.03981481481481482, -0.03981481481481482, -0.03981481481481482, -0.03981481481481482, -0.03981481481481482, -0.03981481481481482, -0.03981481481481482, -0.03981481481481482, -0.03981481481481482, -0.03981481481481482, -0.03981481481481482, -0.03981481481481482, -0.03981481481481482, -0.03981481481481482, -0.03981481481481482]"	"[-0.387037037037037, -0.387037037037037, -0.387037037037037, -0.387037037037037, -0.387037037037037, -0.387037037037037, -0.387037037037037, -0.387037037037037, -0.387037037037037, -0.387037037037037, -0.387037037037037, -0.387037037037037, -0.387037037037037, -0.387037037037037, -0.387037037037037, -0.387037037037037, -0.387037037037037, -0.387037037037037, -0.387037037037037, -0.387037037037037, -0.387037037037037, -0.387037037037037, -0.387037037037037]"	"[1, 1, 1, 1, 1, 1, 1, 1, 1, 1, 1, 1, 1, 1, 1, 1, 1, 1, 1, 1, 1, 1, 0]"	"[0, 0, 0, 0, 0, 0, 0, 0, 0, 0, 0, 0, 0, 0, 0, 0, 0, 0, 0, 0, 0, 0, 0]"	"[0, 0, 0, 0, 0, 0, 0, 0, 0, 0, 0, 0, 0, 0, 0, 0, 0, 0, 0, 0, 0, 0, 1]"	"[0.5588175000011688, 0.7922086000035051, 1.2170175999926869, 1.9755502000043634, 2.6504627999966033, 3.3006081000057748, 3.793811600000481, 4.267243900001631, 4.667263499999535, 5.092269300002954, 5.517561700005899, 5.825662100003683, 6.242375500005437, 6.650722799997311, 7.392611899995245, 7.800990100004128, 8.242489600001136, 8.684181699994951, 9.526088500002516, 9.926123600002029, 10.642667699998128, 10.96788120000565, 11.259365200006869]"	23	"[0.5569594999979017, 0.7903517999948235, 1.2151601999939885, 1.9736968999932287, 2.6486010999942664, 3.298746000000392, 3.792115099990042, 4.265380600001663, 4.665401799997198, 5.090410899996641, 5.515699700001278, 5.823798600002192, 6.24051019999024, 6.64886000000115, 7.390758399997139, 7.799134499990032, 8.240627699997276, 8.682316999998875, 9.524230099996203, 9.924262699991232, 10.640803599992068, 10.96602300000086, 11.257436899992172]"	"[0.6649723000009544, 0.9066561999934493, 1.3233461999916472, 2.131732399997418, 2.7986188999930164, 3.4068751000013435, 3.890200800000457, 4.3818867999943905, 4.781914599996526, 5.231947099993704, 5.657016799988924, 5.940475899988087, 6.357050299993716, 6.7904361999972025, 7.598767999996198, 7.940461699996376, 8.382146399992052, 8.798868500001845, 9.665704799990635, 10.090799899990088, 10.765733399995952, 11.090693599995575, 11.25744119999581]"	297.7397253999952	297.74557579999964	299.23753719999513	299.2540217999922								14	03	2024-02-07_15h33.25.932	BART_exp	2023.2.3	119.97485326084676	2024-02-07 15h33.40.201653 +0100	
balloon.png	71	0	3	3	16	299.2540217999922													299.2377107999928	299.2540217999922	299.2540217999922	299.2540217999922	299.2540217999922	299.2540217999922	-0.0007370999956037849	-0.0007370999956037849	-0.0007370999956037849	299.2540217999922	310.3898732999951	22	1.10	False	"[-0.03981481481481482, -0.03981481481481482, -0.03981481481481482, -0.03981481481481482, -0.03981481481481482, -0.03981481481481482, -0.03981481481481482, -0.03981481481481482, -0.03981481481481482, -0.03981481481481482, -0.03981481481481482, -0.03981481481481482, -0.03981481481481482, -0.03981481481481482, -0.03981481481481482, -0.03981481481481482, -0.03981481481481482, -0.03981481481481482, -0.03981481481481482, -0.03981481481481482, -0.03981481481481482, -0.03981481481481482, -0.03981481481481482]"	"[-0.387037037037037, -0.387037037037037, -0.387037037037037, -0.387037037037037, -0.387037037037037, -0.387037037037037, -0.387037037037037, -0.387037037037037, -0.387037037037037, -0.387037037037037, -0.387037037037037, -0.387037037037037, -0.387037037037037, -0.387037037037037, -0.387037037037037, -0.387037037037037, -0.387037037037037, -0.387037037037037, -0.387037037037037, -0.387037037037037, -0.387037037037037, -0.387037037037037, -0.387037037037037]"	"[1, 1, 1, 1, 1, 1, 1, 1, 1, 1, 1, 1, 1, 1, 1, 1, 1, 1, 1, 1, 1, 1, 0]"	"[0, 0, 0, 0, 0, 0, 0, 0, 0, 0, 0, 0, 0, 0, 0, 0, 0, 0, 0, 0, 0, 0, 0]"	"[0, 0, 0, 0, 0, 0, 0, 0, 0, 0, 0, 0, 0, 0, 0, 0, 0, 0, 0, 0, 0, 0, 1]"	"[0.47536339999351185, 0.858692499998142, 1.2088608000049135, 1.7255275000061374, 2.117108399994322, 2.5255933000007644, 3.1256649999995716, 3.5923919000051683, 4.075579099997412, 4.642322100000456, 5.159158199996455, 5.667362399995909, 6.092543699996895, 6.525727000000188, 7.20929860000615, 7.9259808999922825, 8.351072899997234, 8.809394199997769, 9.292618499996024, 9.742845500004478, 10.401170700002695, 10.826080600003479, 11.15123930000118]"	23	"[0.46735439999611117, 0.8506850999983726, 1.2008491000015056, 1.7175168999965535, 2.1090976999985287, 2.5175833999965107, 3.1176567999937106, 3.584384999994654, 4.06757079999079, 4.634311699992395, 5.151155200001085, 5.659354699993855, 6.084537899994757, 6.509448099997826, 7.201293999998597, 7.917973100004019, 8.343064200002118, 8.801392699999269, 9.28461220000463, 9.734836599993287, 10.393162499996834, 10.81807179999305, 11.14316890000191]"	"[0.5756302999943728, 0.9588892000028864, 1.292263900002581, 1.8256248999969102, 2.2339665000035893, 2.683982200003811, 3.2757169999968028, 3.777191100001801, 4.267432599997846, 4.800803299993277, 5.250821800000267, 5.734225099993637, 6.225993000000017, 6.659266399990884, 7.292652699994505, 8.051140199997462, 8.492709400001331, 8.959437600002275, 9.442818900002749, 9.901147600001423, 10.517997999995714, 10.984726099995896, 11.143173100004788]"	310.3908291999978	310.39645439999003	311.88842730000033	311.90488479999476								14	03	2024-02-07_15h33.25.932	BART_exp	2023.2.3	119.97485326084676	2024-02-07 15h33.40.201653 +0100	
balloon.png	18	0	4	4	4	311.90488479999476													311.8885994000011	311.90488479999476	311.90488479999476	311.90488479999476	311.90488479999476	311.90488479999476	-0.0009452000085730106	-0.0009452000085730106	-0.0009452000085730106	311.90488479999476	316.99027639999986	11	0.55	False	"[-0.03981481481481482, -0.03981481481481482, -0.03981481481481482, -0.03981481481481482, -0.03981481481481482, -0.03981481481481482, -0.03981481481481482, -0.03981481481481482, -0.03981481481481482, -0.03981481481481482, -0.03981481481481482, -0.03981481481481482]"	"[-0.387037037037037, -0.387037037037037, -0.387037037037037, -0.387037037037037, -0.387037037037037, -0.387037037037037, -0.387037037037037, -0.387037037037037, -0.387037037037037, -0.387037037037037, -0.387037037037037, -0.387037037037037]"	"[1, 1, 1, 1, 1, 1, 1, 1, 1, 1, 1, 0]"	"[0, 0, 0, 0, 0, 0, 0, 0, 0, 0, 0, 0]"	"[0, 0, 0, 0, 0, 0, 0, 0, 0, 0, 0, 1]"	"[0.3504432000045199, 0.6269502000068314, 0.942160699996748, 1.3588631000020541, 1.817049200006295, 2.217066800003522, 2.667279100001906, 3.092322900003637, 3.5423128999973414, 3.9838612000021385, 4.800582099996973, 5.1007425999996485]"	12	"[0.3437648000108311, 0.6204375000088476, 0.9354852000105893, 1.3521851000114111, 1.8103678000043146, 2.210390500011272, 2.6606019000028027, 3.0856429999985266, 3.5356343000021297, 3.9771790000086185, 4.793900700009544, 5.0939967000012984]"	"[0.45178129999840166, 0.7434659999998985, 1.0518587000115076, 1.4935297000047285, 1.918562999999267, 2.3769978000054834, 2.82699760000105, 3.193686800004798, 3.652006000003894, 4.077039299998432, 4.910500500001945, 5.0940009000041755]"	316.9910058999958	316.9969248999987	318.48886309999216	318.50534119999793								14	03	2024-02-07_15h33.25.932	BART_exp	2023.2.3	119.97485326084676	2024-02-07 15h33.40.201653 +0100	
balloon.png	84	0	5	5	19	318.50534119999793													318.48903620000056	318.50534119999793	318.50534119999793	318.50534119999793	318.50534119999793	318.50534119999793	-0.000687599997036159	-0.000687599997036159	-0.000687599997036159	318.50534119999793	330.53289759998734	22	1.10	False	"[-0.041666666666666664, -0.041666666666666664, -0.041666666666666664, -0.041666666666666664, -0.041666666666666664, -0.041666666666666664, -0.041666666666666664, -0.041666666666666664, -0.041666666666666664, -0.041666666666666664, -0.041666666666666664, -0.041666666666666664, -0.041666666666666664, -0.041666666666666664, -0.041666666666666664, -0.041666666666666664, -0.041666666666666664, -0.041666666666666664, -0.041666666666666664, -0.041666666666666664, -0.041666666666666664, -0.041666666666666664, -0.041666666666666664]"	"[-0.3888888888888889, -0.3888888888888889, -0.3888888888888889, -0.3888888888888889, -0.3888888888888889, -0.3888888888888889, -0.3888888888888889, -0.3888888888888889, -0.3888888888888889, -0.3888888888888889, -0.3888888888888889, -0.3888888888888889, -0.3888888888888889, -0.3888888888888889, -0.3888888888888889, -0.3888888888888889, -0.3888888888888889, -0.3888888888888889, -0.3888888888888889, -0.3888888888888889, -0.3888888888888889, -0.3888888888888889, -0.3888888888888889]"	"[1, 1, 1, 1, 1, 1, 1, 1, 1, 1, 1, 1, 1, 1, 1, 1, 1, 1, 1, 1, 1, 1, 0]"	"[0, 0, 0, 0, 0, 0, 0, 0, 0, 0, 0, 0, 0, 0, 0, 0, 0, 0, 0, 0, 0, 0, 0]"	"[0, 0, 0, 0, 0, 0, 0, 0, 0, 0, 0, 0, 0, 0, 0, 0, 0, 0, 0, 0, 0, 0, 1]"	"[0.8588905000069644, 1.3503781000035815, 1.7920729000034044, 2.258929600007832, 2.7754814000072656, 3.2340236000018194, 3.675723600012134, 4.059119900004589, 4.6172729000099935, 5.092550200002734, 5.559037500002887, 6.009048400010215, 6.425758200013661, 6.967510700007551, 7.450948600002448, 7.892655500007095, 8.492708600009792, 9.017556000006152, 9.517764400006854, 9.976149200010695, 10.400992200011387, 10.859511400005431, 12.042923700006213]"	23	"[0.8527430999965873, 1.3442291999963345, 1.7859251999907428, 2.252783299991279, 2.7693365999875823, 3.227879199999734, 3.669581800000742, 4.052974799997173, 4.611125199997332, 5.086408699993626, 5.55289159998938, 6.002899699989939, 6.419609799995669, 6.9613626999926055, 7.4448019999981625, 7.886513199991896, 8.48655940000026, 9.011429599995608, 9.511616699994192, 9.970009699987713, 10.394851999997627, 10.85336159999133, 12.036714899993967]"	"[1.0191510999866296, 1.4607682999921963, 1.9443232999910833, 2.402505599995493, 2.9608546999952523, 3.385923499998171, 3.819233099988196, 4.2111257999931695, 4.769300899992231, 5.21099089999916, 5.711090500000864, 6.152748199994676, 6.552776999989874, 7.0861213999887696, 7.561188299994683, 8.027891099991393, 8.661455399997067, 9.177956199986511, 9.678000100000645, 10.11136379999516, 10.519701099998201, 11.01140819999273, 12.036719399999129]"	330.53385989999515	330.5395034999965	332.0314795999875	332.0479597999947								14	03	2024-02-07_15h33.25.932	BART_exp	2023.2.3	119.97485326084676	2024-02-07 15h33.40.201653 +0100	
balloon.png	40	0	6	6	9	332.0479597999947													332.0316585999972	332.0479597999947	332.0479597999947	332.0479597999947	332.0479597999947	332.0479597999947	-0.0009067999926628545	-0.0009067999926628545	-0.0009067999926628545	332.0479597999947	351.86747879999166	34	1.70	False	"[-0.041666666666666664, -0.041666666666666664, -0.041666666666666664, -0.041666666666666664, -0.041666666666666664, -0.041666666666666664, -0.041666666666666664, -0.041666666666666664, -0.041666666666666664, -0.041666666666666664, -0.041666666666666664, -0.041666666666666664, -0.041666666666666664, -0.041666666666666664, -0.041666666666666664, -0.041666666666666664, -0.041666666666666664, -0.041666666666666664, -0.041666666666666664, -0.041666666666666664, -0.041666666666666664, -0.041666666666666664, -0.041666666666666664, -0.041666666666666664, -0.041666666666666664, -0.041666666666666664, -0.041666666666666664, -0.041666666666666664, -0.041666666666666664, -0.041666666666666664, -0.041666666666666664, -0.041666666666666664, -0.041666666666666664, -0.041666666666666664, -0.041666666666666664]"	"[-0.3888888888888889, -0.3888888888888889, -0.3888888888888889, -0.3888888888888889, -0.3888888888888889, -0.3888888888888889, -0.3888888888888889, -0.3888888888888889, -0.3888888888888889, -0.3888888888888889, -0.3888888888888889, -0.3888888888888889, -0.3888888888888889, -0.3888888888888889, -0.3888888888888889, -0.3888888888888889, -0.3888888888888889, -0.3888888888888889, -0.3888888888888889, -0.3888888888888889, -0.3888888888888889, -0.3888888888888889, -0.3888888888888889, -0.3888888888888889, -0.3888888888888889, -0.3888888888888889, -0.3888888888888889, -0.3888888888888889, -0.3888888888888889, -0.3888888888888889, -0.3888888888888889, -0.3888888888888889, -0.3888888888888889, -0.3888888888888889, -0.3888888888888889]"	"[1, 1, 1, 1, 1, 1, 1, 1, 1, 1, 1, 1, 1, 1, 1, 1, 1, 1, 1, 1, 1, 1, 1, 1, 1, 1, 1, 1, 1, 1, 1, 1, 1, 1, 0]"	"[0, 0, 0, 0, 0, 0, 0, 0, 0, 0, 0, 0, 0, 0, 0, 0, 0, 0, 0, 0, 0, 0, 0, 0, 0, 0, 0, 0, 0, 0, 0, 0, 0, 0, 0]"	"[0, 0, 0, 0, 0, 0, 0, 0, 0, 0, 0, 0, 0, 0, 0, 0, 0, 0, 0, 0, 0, 0, 0, 0, 0, 0, 0, 0, 0, 0, 0, 0, 0, 0, 1]"	"[0.7254429000022355, 1.1338915999949677, 1.667022099994938, 2.025379700004123, 2.5255669000034686, 2.9172816000063904, 3.292288600001484, 3.800514899994596, 4.183873899994069, 4.725730499994825, 5.1507736000057776, 5.759120899994741, 6.233990900000208, 6.650691100003314, 7.1509231999953045, 8.126086899996153, 8.567674599995371, 9.059186600003159, 9.501052799998433, 10.067732399998931, 10.809301200002665, 11.276197900006082, 12.076216000001295, 12.809500100003788, 13.576211299994611, 14.201208400001633, 14.792912999997498, 15.417983499995898, 15.977668999999878, 16.484879299998283, 17.05991009999707, 17.67660839999735, 18.218161700002383, 19.55995680000342, 19.83490289999463]"	35	"[0.7215233000024455, 1.1299834000092233, 1.6630934000131674, 2.0214591000112705, 2.521641900006216, 2.913359700003639, 3.2883663000102388, 3.7965944000025047, 4.179952400008915, 4.721805100009078, 5.1468496000015875, 5.755195700010518, 6.230062300004647, 6.64676670001063, 7.147000400000252, 8.122166600005585, 8.563749000008102, 9.055262300011236, 9.497130400006426, 10.063808700011577, 10.80537450000702, 11.272278000004007, 12.072285800008103, 12.805573100005859, 13.57228120000218, 14.197284600013518, 14.788984300001175, 15.414061900009983, 15.973902800003998, 16.48095560001093, 17.055984400009038, 17.672687600002973, 18.21423810000124, 19.556038100010483, 19.830916100007016]"	"[0.8545906000072137, 1.254582500012475, 1.8296311000012793, 2.171387800000957, 2.671381400010432, 3.0547103000135394, 3.4047236000042176, 3.846446499999729, 4.254929200003971, 4.838155800011009, 5.271537400010857, 5.879895100006252, 6.338321600007475, 6.771639500002493, 7.271646000008332, 8.263642000005348, 8.71353920000547, 9.221811300012632, 9.6634880000056, 10.238552800001344, 10.938589000012144, 11.438634400008596, 12.238807900008396, 12.96378590000677, 13.680492100000265, 14.347154600007343, 14.930712900008075, 15.572229199999128, 16.130624700002954, 16.680639700003667, 17.205872100006673, 17.839089600005536, 18.372429100010777, 19.672538000013446, 19.830920300009893]"	351.8686364999885	351.8743614999985	353.366280599992	353.382763799993								14	03	2024-02-07_15h33.25.932	BART_exp	2023.2.3	119.97485326084676	2024-02-07 15h33.40.201653 +0100	
balloon.png	110	0	7	7	25	353.382763799993													353.3664679999929	353.382763799993	353.382763799993	353.382763799993	353.382763799993	353.382763799993	-0.0008713000133866444	-0.0008713000133866444	-0.0008713000133866444	353.382763799993	366.0852913999988	22	1.10	False	"[-0.041666666666666664, -0.041666666666666664, -0.041666666666666664, -0.041666666666666664, -0.041666666666666664, -0.041666666666666664, -0.041666666666666664, -0.041666666666666664, -0.041666666666666664, -0.041666666666666664, -0.041666666666666664, -0.041666666666666664, -0.041666666666666664, -0.041666666666666664, -0.041666666666666664, -0.041666666666666664, -0.041666666666666664, -0.041666666666666664, -0.041666666666666664, -0.041666666666666664, -0.041666666666666664, -0.041666666666666664, -0.041666666666666664]"	"[-0.3888888888888889, -0.3888888888888889, -0.3888888888888889, -0.3888888888888889, -0.3888888888888889, -0.3888888888888889, -0.3888888888888889, -0.3888888888888889, -0.3888888888888889, -0.3888888888888889, -0.3888888888888889, -0.3888888888888889, -0.3888888888888889, -0.3888888888888889, -0.3888888888888889, -0.3888888888888889, -0.3888888888888889, -0.3888888888888889, -0.3888888888888889, -0.3888888888888889, -0.3888888888888889, -0.3888888888888889, -0.3888888888888889]"	"[1, 1, 1, 1, 1, 1, 1, 1, 1, 1, 1, 1, 1, 1, 1, 1, 1, 1, 1, 1, 1, 1, 0]"	"[0, 0, 0, 0, 0, 0, 0, 0, 0, 0, 0, 0, 0, 0, 0, 0, 0, 0, 0, 0, 0, 0, 0]"	"[0, 0, 0, 0, 0, 0, 0, 0, 0, 0, 0, 0, 0, 0, 0, 0, 0, 0, 0, 0, 0, 0, 1]"	"[0.5337653000024147, 1.283695499994792, 1.717255399998976, 2.108840999993845, 2.6005764000001363, 3.042138100005104, 3.6421558000001824, 4.1089715999987675, 4.550749000001815, 4.975740800000494, 5.384181100002024, 5.867300400001113, 6.34251060000679, 6.884038200005307, 7.484092500002589, 7.992596900003264, 9.376058399997419, 10.009267000001273, 10.984522700004163, 11.46767220000038, 11.959545699995942, 12.418061100004707, 12.717899600000237]"	23	"[0.52482959999179, 1.2747577999980422, 1.7083272000018042, 2.099900599991088, 2.5916422000009334, 3.0332027999975253, 3.6332184999919264, 4.100038899996434, 4.541817299992545, 4.966809399993508, 5.375244299997576, 5.858364400002756, 6.333574799995404, 6.875106499996036, 7.475154599989764, 7.983665099993232, 9.367126400000416, 10.000337599994964, 10.975586599990493, 11.458737900000415, 11.950607999999193, 12.409187899989774, 12.708896600001026]"	"[0.6412006000027759, 1.4328992999944603, 1.8579349999927217, 2.2496403999975882, 2.6914593999972567, 3.133019899993087, 3.7413972999929683, 4.141425299996627, 4.641466300003231, 5.066525599992019, 5.499850499996683, 6.008252400002675, 6.466628900001524, 7.008313899990753, 7.6000125999999, 8.091745199999423, 9.491793699999107, 10.083504599999287, 11.11692069999117, 11.600261999992654, 12.050315100001171, 12.500330099996063, 12.708900800003903]"	366.0863188999938	366.09195329999784	367.5838974999933	367.6087045999884								14	03	2024-02-07_15h33.25.932	BART_exp	2023.2.3	119.97485326084676	2024-02-07 15h33.40.201653 +0100	
balloon.png	44	0	8	8	10	367.6087045999884													367.5840824999905	367.6087045999884	367.6087045999884	367.6087045999884	367.6087045999884	367.6087045999884	-0.0009694999898783863	-0.0009694999898783863	-0.0009694999898783863	367.6087045999884	381.47793939999247	24	1.20	False	"[-0.041666666666666664, -0.041666666666666664, -0.041666666666666664, -0.041666666666666664, -0.041666666666666664, -0.041666666666666664, -0.041666666666666664, -0.041666666666666664, -0.041666666666666664, -0.041666666666666664, -0.041666666666666664, -0.041666666666666664, -0.041666666666666664, -0.041666666666666664, -0.041666666666666664, -0.041666666666666664, -0.041666666666666664, -0.041666666666666664, -0.041666666666666664, -0.041666666666666664, -0.041666666666666664, -0.041666666666666664, -0.041666666666666664, -0.041666666666666664, -0.041666666666666664]"	"[-0.3888888888888889, -0.3888888888888889, -0.3888888888888889, -0.3888888888888889, -0.3888888888888889, -0.3888888888888889, -0.3888888888888889, -0.3888888888888889, -0.3888888888888889, -0.3888888888888889, -0.3888888888888889, -0.3888888888888889, -0.3888888888888889, -0.3888888888888889, -0.3888888888888889, -0.3888888888888889, -0.3888888888888889, -0.3888888888888889, -0.3888888888888889, -0.3888888888888889, -0.3888888888888889, -0.3888888888888889, -0.3888888888888889, -0.3888888888888889, -0.3888888888888889]"	"[1, 1, 1, 1, 1, 1, 1, 1, 1, 1, 1, 1, 1, 1, 1, 1, 1, 1, 1, 1, 1, 1, 1, 1, 0]"	"[0, 0, 0, 0, 0, 0, 0, 0, 0, 0, 0, 0, 0, 0, 0, 0, 0, 0, 0, 0, 0, 0, 0, 0, 0]"	"[0, 0, 0, 0, 0, 0, 0, 0, 0, 0, 0, 0, 0, 0, 0, 0, 0, 0, 0, 0, 0, 0, 0, 0, 1]"	"[1.0754940000042552, 1.6172647000057623, 2.1506274999992456, 2.684060400002636, 3.1518605000019306, 3.6005265999992844, 4.02560110000195, 4.600650199994561, 5.159128100000089, 5.625692200002959, 6.050696599995717, 6.400739299991983, 6.842423499998404, 7.292637599995942, 8.067702000000281, 8.601035700005013, 9.234244199993555, 9.701120300000184, 10.176006800000323, 10.676244200003566, 11.309549600002356, 11.776145499999984, 12.367856900003972, 13.126349300000584, 13.89296060000197]"	25	"[1.0640730000013718, 1.6058355999994092, 2.139207300002454, 2.672630700006266, 3.140607200009981, 3.5891028000041842, 4.014179300007527, 4.58922480000183, 5.1477042000042275, 5.6142648000095505, 6.039270699999179, 6.389311500010081, 6.830995200012694, 7.281212800007779, 8.056276400006027, 8.589613600008306, 9.222819500006153, 9.689692200001446, 10.164579600008437, 10.664817100012442, 11.29812469999888, 11.764717800004291, 12.356431200008956, 13.114931000003708, 13.881469600004493]"	"[1.2221176000020932, 1.7472108000074513, 2.3222052000055555, 2.805629800001043, 3.264124900000752, 3.7140081000106875, 4.130659300004481, 4.697374200011836, 5.305749200007995, 5.747643300011987, 6.164127000010922, 6.497495500007062, 6.8808546000072965, 7.331008300010581, 8.189260800005286, 8.714300000006915, 9.381014200000209, 9.831076000002213, 10.297742800001288, 10.797796200000448, 11.406171000009635, 11.814559300008113, 12.489605700000538, 13.248015300006955, 13.881474100009655]"	381.47890629999165	381.48465639998903	382.9766449000017	382.9931260999874								14	03	2024-02-07_15h33.25.932	BART_exp	2023.2.3	119.97485326084676	2024-02-07 15h33.40.201653 +0100	
balloon.png	5	0	9	9	1	382.9931260999874													382.9768267999898	382.9931260999874	382.9931260999874	382.9931260999874	382.9931260999874	382.9931260999874	-0.0007631999906152487	-0.0007631999906152487	-0.0007631999906152487	382.9931260999874	385.95359469999676	6	0.25	True	"[-0.041666666666666664, -0.041666666666666664, -0.041666666666666664, -0.041666666666666664, -0.041666666666666664, -0.041666666666666664]"	"[-0.3888888888888889, -0.3888888888888889, -0.3888888888888889, -0.3888888888888889, -0.3888888888888889, -0.3888888888888889]"	"[1, 1, 1, 1, 1, 1]"	"[0, 0, 0, 0, 0, 0]"	"[0, 0, 0, 0, 0, 0]"	"[0.4754650999966543, 1.0003240000078222, 1.5005089000042062, 2.058874399997876, 2.475568199995905, 2.8420914000016637]"	6	"[0.4669179000047734, 0.9917700000078185, 1.4919573000079254, 2.0503269000037108, 2.4670163999981014, 2.833538300008513]"	"[0.5998916000098689, 1.133327100003953, 1.6666472000069916, 2.1666774000041187, 2.583463800008758, 2.958381600008579]"	385.9542434999894	385.96830809999665	387.4601102999877									14	03	2024-02-07_15h33.25.932	BART_exp	2023.2.3	119.97485326084676	2024-02-07 15h33.40.201653 +0100	
balloon.png	105	0	10	10	24	387.4767371999915													387.4603041999944	387.4767371999915	387.4767371999915	387.4767371999915	387.4767371999915	387.4767371999915	0.0074438000010559335	0.0074438000010559335	0.0074438000010559335	387.4767371999915	398.1623541000008	22	1.10	False	"[-0.041666666666666664, -0.041666666666666664, -0.041666666666666664, -0.041666666666666664, -0.041666666666666664, -0.041666666666666664, -0.041666666666666664, -0.041666666666666664, -0.041666666666666664, -0.041666666666666664, -0.041666666666666664, -0.041666666666666664, -0.041666666666666664, -0.041666666666666664, -0.041666666666666664, -0.041666666666666664, -0.041666666666666664, -0.041666666666666664, -0.041666666666666664, -0.041666666666666664, -0.041666666666666664, -0.041666666666666664, -0.041666666666666664]"	"[-0.3888888888888889, -0.3888888888888889, -0.3888888888888889, -0.3888888888888889, -0.3888888888888889, -0.3888888888888889, -0.3888888888888889, -0.3888888888888889, -0.3888888888888889, -0.3888888888888889, -0.3888888888888889, -0.3888888888888889, -0.3888888888888889, -0.3888888888888889, -0.3888888888888889, -0.3888888888888889, -0.3888888888888889, -0.3888888888888889, -0.3888888888888889, -0.3888888888888889, -0.3888888888888889, -0.3888888888888889, -0.3888888888888889]"	"[1, 1, 1, 1, 1, 1, 1, 1, 1, 1, 1, 1, 1, 1, 1, 1, 1, 1, 1, 1, 1, 1, 0]"	"[0, 0, 0, 0, 0, 0, 0, 0, 0, 0, 0, 0, 0, 0, 0, 0, 0, 0, 0, 0, 0, 0, 0]"	"[0, 0, 0, 0, 0, 0, 0, 0, 0, 0, 0, 0, 0, 0, 0, 0, 0, 0, 0, 0, 0, 0, 1]"	"[0.3420602999976836, 0.7839540999993915, 1.425635899999179, 1.8006965999957174, 2.142191899998579, 2.85906379998778, 3.53406899998663, 3.95914009999251, 4.467427600000519, 4.909047699999064, 5.31750849999662, 5.759296199990786, 6.159271299999091, 6.58431729998847, 6.992717699991772, 7.451040299987653, 8.075935799992294, 8.525974299991503, 9.059351299991249, 9.534757999994326, 9.89276429999154, 10.367974900000263, 10.701084599990281]"	23	"[0.33742919999349397, 0.7793261000042548, 1.4210045000072569, 1.7960635000054026, 2.1375647999957437, 2.854427600002964, 3.529439200006891, 3.954507000002195, 4.46279720000166, 4.904417199999443, 5.312872599999537, 5.754662100007408, 6.154633199999807, 6.579699299996719, 6.988088800004334, 7.446418699997594, 8.071304800003418, 8.521338699996704, 9.054714400001103, 9.530123000004096, 9.888127600002917, 10.363344800003688, 10.696388399999705]"	"[0.4873768999968888, 0.9039994000049774, 1.5540257999964524, 1.8957198999996763, 2.245786400002544, 3.020775199998752, 3.6541736999934074, 4.095937399994, 4.579236200006562, 5.0376736000034725, 5.462631100002909, 5.871036700002151, 6.271013899997342, 6.696052300001611, 7.137817599999835, 7.571116199993412, 8.179546300001675, 8.654506100006984, 9.196215999996639, 9.65458079999371, 10.029627600000822, 10.504625700006727, 10.696392800004105]"	398.16334780000034	398.1691361999983	399.66111029998865	399.6775725999905								14	03	2024-02-07_15h33.25.932	BART_exp	2023.2.3	119.97485326084676	2024-02-07 15h33.40.201653 +0100	
balloon.png	49	0	11	11	11	399.6775725999905													399.6612915000005	399.6775725999905	399.6775725999905	399.6775725999905	399.6775725999905	399.6775725999905	-0.0007698000117670745	-0.0007698000117670745	-0.0007698000117670745	399.6775725999905	408.02159449999453	17	0.85	False	"[-0.041666666666666664, -0.041666666666666664, -0.041666666666666664, -0.041666666666666664, -0.041666666666666664, -0.041666666666666664, -0.041666666666666664, -0.041666666666666664, -0.041666666666666664, -0.041666666666666664, -0.041666666666666664, -0.041666666666666664, -0.041666666666666664, -0.041666666666666664, -0.041666666666666664, -0.041666666666666664, -0.041666666666666664, -0.041666666666666664]"	"[-0.3888888888888889, -0.3888888888888889, -0.3888888888888889, -0.3888888888888889, -0.3888888888888889, -0.3888888888888889, -0.3888888888888889, -0.3888888888888889, -0.3888888888888889, -0.3888888888888889, -0.3888888888888889, -0.3888888888888889, -0.3888888888888889, -0.3888888888888889, -0.3888888888888889, -0.3888888888888889, -0.3888888888888889, -0.3888888888888889]"	"[1, 1, 1, 1, 1, 1, 1, 1, 1, 1, 1, 1, 1, 1, 1, 1, 1, 0]"	"[0, 0, 0, 0, 0, 0, 0, 0, 0, 0, 0, 0, 0, 0, 0, 0, 0, 0]"	"[0, 0, 0, 0, 0, 0, 0, 0, 0, 0, 0, 0, 0, 0, 0, 0, 0, 1]"	"[0.6836677999963285, 1.0174277000041911, 1.47537729999749, 1.933759599996847, 2.492149600002449, 2.950813499992364, 3.3422968999948353, 3.742333799993503, 4.209106199996313, 4.6341450000036275, 5.060287300002528, 5.459052499994868, 6.3175554999907035, 6.650751699999091, 6.984308799990686, 7.725987500001793, 8.04249809999601, 8.359405299997889]"	18	"[0.6793004000064684, 1.0130683000024874, 1.471007100000861, 1.9293853999988642, 2.4877854000078514, 2.946499400000903, 3.337924399995245, 3.7379606000031345, 4.2047467000084, 4.629776900008437, 5.056077100001858, 5.454682800002047, 6.3131856999971205, 6.6463783000072, 6.9799436000030255, 7.72161770000821, 8.038129000007757, 8.35497060000489]"	"[0.7708509000076447, 1.1461023000010755, 1.5625187999976333, 1.9958934000023874, 2.6792855999956373, 3.0626319000002695, 3.479367899999488, 3.896035400000983, 4.312716800006456, 4.746089000007487, 5.1461045000032755, 5.562811800002237, 6.40454440000758, 6.771270500001265, 7.121290800001589, 7.854628400004003, 8.187997700006235, 8.354974900008528]"	408.02247479998914	408.0281799999939	409.5201315000013	409.53658139999607								14	03	2024-02-07_15h33.25.932	BART_exp	2023.2.3	119.97485326084676	2024-02-07 15h33.40.201653 +0100	
balloon.png	75	0	12	12	17	409.53658139999607													409.52030959998956	409.53658139999607	409.53658139999607	409.53658139999607	409.53658139999607	409.53658139999607	-0.0008797999907983467	-0.0008797999907983467	-0.0008797999907983467	409.53658139999607	421.8242210999888	23	1.15	False	"[-0.041666666666666664, -0.041666666666666664, -0.041666666666666664, -0.041666666666666664, -0.041666666666666664, -0.041666666666666664, -0.041666666666666664, -0.041666666666666664, -0.041666666666666664, -0.041666666666666664, -0.041666666666666664, -0.041666666666666664, -0.041666666666666664, -0.041666666666666664, -0.041666666666666664, -0.041666666666666664, -0.041666666666666664, -0.041666666666666664, -0.041666666666666664, -0.041666666666666664, -0.041666666666666664, -0.041666666666666664, -0.041666666666666664, -0.041666666666666664]"	"[-0.3888888888888889, -0.3888888888888889, -0.3888888888888889, -0.3888888888888889, -0.3888888888888889, -0.3888888888888889, -0.3888888888888889, -0.3888888888888889, -0.3888888888888889, -0.3888888888888889, -0.3888888888888889, -0.3888888888888889, -0.3888888888888889, -0.3888888888888889, -0.3888888888888889, -0.3888888888888889, -0.3888888888888889, -0.3888888888888889, -0.3888888888888889, -0.3888888888888889, -0.3888888888888889, -0.3888888888888889, -0.3888888888888889, -0.3888888888888889]"	"[1, 1, 1, 1, 1, 1, 1, 1, 1, 1, 1, 1, 1, 1, 1, 1, 1, 1, 1, 1, 1, 1, 1, 0]"	"[0, 0, 0, 0, 0, 0, 0, 0, 0, 0, 0, 0, 0, 0, 0, 0, 0, 0, 0, 0, 0, 0, 0, 0]"	"[0, 0, 0, 0, 0, 0, 0, 0, 0, 0, 0, 0, 0, 0, 0, 0, 0, 0, 0, 0, 0, 0, 0, 1]"	"[0.55864190000284, 1.1255119999987073, 1.5005603000026895, 1.9850506000075256, 2.400415600000997, 2.8171101000043564, 3.20885010001075, 3.5755179000116186, 4.175702900000033, 4.642388500011293, 5.059099400008563, 5.434304100010195, 5.859129900010885, 6.692583000010927, 7.109258199998294, 7.500917500001378, 7.934302499998012, 8.367521899999701, 8.775873999999021, 9.276064899997436, 9.717756400001235, 10.117834200005746, 11.926258899999084, 12.302777100005187]"	24	"[0.5534780000016326, 1.1203463999991072, 1.4954003999882843, 1.9798861999879591, 2.3952511999959825, 2.8119429999933345, 3.203689599991776, 3.570355899995775, 4.170537300000433, 4.637224099991727, 5.0539314999914495, 5.429143299988937, 5.85396559999208, 6.687417499997537, 7.104097099989303, 7.495754599993234, 7.92913679999765, 8.362360399987665, 8.770707799994852, 9.270901799987769, 9.712592999989283, 10.1126690999954, 11.921093199998722, 12.29765929999121]"	"[0.6616553999920143, 1.195026000001235, 1.6285015999892494, 2.078418999997666, 2.511794899997767, 2.9202553999930387, 3.3118896999949357, 3.6952369999926304, 4.33694629999809, 4.836989699993865, 5.195301599989762, 5.595358099992154, 5.9953576999978395, 6.80379219999304, 7.228784099992481, 7.645518699995591, 8.087138799994136, 8.50397159998829, 8.928872699994827, 9.395649400001275, 9.82062379999843, 10.237314500001958, 12.02910569999949, 12.297666499987827]"	421.82525840000017	421.83742599999823	423.3292323999922									14	03	2024-02-07_15h33.25.932	BART_exp	2023.2.3	119.97485326084676	2024-02-07 15h33.40.201653 +0100	
balloon.png	127	0	13	13	29	423.34585929999594													423.3294076999882	423.34585929999594	423.34585929999594	423.34585929999594	423.34585929999594	423.34585929999594	0.005390299993450753	0.005390299993450753	0.005390299993450753	423.34585929999594	433.7900030999881	22	1.10	False	"[-0.041666666666666664, -0.041666666666666664, -0.041666666666666664, -0.041666666666666664, -0.041666666666666664, -0.041666666666666664, -0.041666666666666664, -0.041666666666666664, -0.041666666666666664, -0.041666666666666664, -0.041666666666666664, -0.041666666666666664, -0.041666666666666664, -0.041666666666666664, -0.041666666666666664, -0.041666666666666664, -0.041666666666666664, -0.041666666666666664, -0.041666666666666664, -0.041666666666666664, -0.041666666666666664, -0.041666666666666664, -0.041666666666666664]"	"[-0.3888888888888889, -0.3888888888888889, -0.3888888888888889, -0.3888888888888889, -0.3888888888888889, -0.3888888888888889, -0.3888888888888889, -0.3888888888888889, -0.3888888888888889, -0.3888888888888889, -0.3888888888888889, -0.3888888888888889, -0.3888888888888889, -0.3888888888888889, -0.3888888888888889, -0.3888888888888889, -0.3888888888888889, -0.3888888888888889, -0.3888888888888889, -0.3888888888888889, -0.3888888888888889, -0.3888888888888889, -0.3888888888888889]"	"[1, 1, 1, 1, 1, 1, 1, 1, 1, 1, 1, 1, 1, 1, 1, 1, 1, 1, 1, 1, 1, 1, 0]"	"[0, 0, 0, 0, 0, 0, 0, 0, 0, 0, 0, 0, 0, 0, 0, 0, 0, 0, 0, 0, 0, 0, 0]"	"[0, 0, 0, 0, 0, 0, 0, 0, 0, 0, 0, 0, 0, 0, 0, 0, 0, 0, 0, 0, 0, 0, 1]"	"[0.5922365000005811, 1.0840820000012172, 1.5506166999984998, 2.0426103999925544, 2.525804099990637, 2.842509099995368, 3.2841936999902828, 3.684234300002572, 4.25926829999662, 4.6592797999910545, 5.0176930000016, 5.400847099997918, 5.884365499994601, 6.32608810000238, 6.9342887999955565, 7.359321700001601, 7.809355199991842, 8.217815899988636, 9.07629640000232, 9.342836499999976, 9.767814799997723, 10.217966299998807, 10.459705200002645]"	23	"[0.586150600007386, 1.0780067000014242, 1.544534400003613, 2.036541900000884, 2.5197155000059865, 2.8364258000074187, 3.278114100001403, 3.678147099999478, 4.253180600004271, 4.65319160000945, 5.011608700006036, 5.394758400012506, 5.8782784000068204, 6.320007500005886, 6.928203300005407, 7.353238299998338, 7.803269100011676, 8.211730700000771, 9.070213500002865, 9.336752900009742, 9.76172840000072, 10.211877599998843, 10.453553600003943]"	"[0.7110313000011956, 1.2026916000031633, 1.6943558000057237, 2.1527173000067705, 2.6277401000115788, 2.95279440000013, 3.394456400012132, 3.802836800008663, 4.419539000009536, 4.8029103000008035, 5.13631910001277, 5.478001200011931, 5.952983800001675, 6.4196802000078605, 7.069874600012554, 7.503112800011877, 7.936434400005965, 8.3198032000073, 9.203210700012278, 9.469945300006657, 9.894955200012191, 10.353263700002572, 10.45355780000682]"	433.7911901999905	433.7965861999983	435.2885823999968	435.29672089999076								14	03	2024-02-07_15h33.25.932	BART_exp	2023.2.3	119.97485326084676	2024-02-07 15h33.40.201653 +0100	
balloon.png	27	0	14	14	6	435.29672089999076													435.2887599999958	435.29672089999076	435.29672089999076	435.29672089999076	435.29672089999076	435.29672089999076	0.0055951999966055155	0.0055951999966055155	0.0055951999966055155	435.29672089999076	449.0913014999969	28	1.35	True	"[-0.041666666666666664, -0.041666666666666664, -0.041666666666666664, -0.041666666666666664, -0.041666666666666664, -0.041666666666666664, -0.041666666666666664, -0.041666666666666664, -0.041666666666666664, -0.041666666666666664, -0.041666666666666664, -0.041666666666666664, -0.041666666666666664, -0.041666666666666664, -0.041666666666666664, -0.041666666666666664, -0.041666666666666664, -0.041666666666666664, -0.041666666666666664, -0.041666666666666664, -0.041666666666666664, -0.041666666666666664, -0.041666666666666664, -0.041666666666666664, -0.041666666666666664, -0.041666666666666664, -0.041666666666666664, -0.041666666666666664]"	"[-0.3888888888888889, -0.3888888888888889, -0.3888888888888889, -0.3888888888888889, -0.3888888888888889, -0.3888888888888889, -0.3888888888888889, -0.3888888888888889, -0.3888888888888889, -0.3888888888888889, -0.3888888888888889, -0.3888888888888889, -0.3888888888888889, -0.3888888888888889, -0.3888888888888889, -0.3888888888888889, -0.3888888888888889, -0.3888888888888889, -0.3888888888888889, -0.3888888888888889, -0.3888888888888889, -0.3888888888888889, -0.3888888888888889, -0.3888888888888889, -0.3888888888888889, -0.3888888888888889, -0.3888888888888889, -0.3888888888888889]"	"[1, 1, 1, 1, 1, 1, 1, 1, 1, 1, 1, 1, 1, 1, 1, 1, 1, 1, 1, 1, 1, 1, 1, 1, 1, 1, 1, 1]"	"[0, 0, 0, 0, 0, 0, 0, 0, 0, 0, 0, 0, 0, 0, 0, 0, 0, 0, 0, 0, 0, 0, 0, 0, 0, 0, 0, 0]"	"[0, 0, 0, 0, 0, 0, 0, 0, 0, 0, 0, 0, 0, 0, 0, 0, 0, 0, 0, 0, 0, 0, 0, 0, 0, 0, 0, 0]"	"[0.5670943000004627, 0.9836417000042275, 1.4838489999965532, 1.8420975000044564, 2.259082699994906, 2.667271800004528, 3.1172934000060195, 3.4839792999991914, 3.8507107000041287, 4.325711900004535, 4.900761199998669, 5.225587399996584, 5.7590942999959225, 6.242337100004079, 6.725939299998572, 7.142551199998707, 7.625875800003996, 8.117633500005468, 8.717684300005203, 9.24260040000081, 9.692725200002315, 10.126102800000808, 10.6761467000033, 11.267902300009155, 12.159441900003003, 12.68462250000448, 13.11798799999815, 13.659712599997874]"	28	"[0.5651951000036206, 0.9817369000084, 1.4819438999984413, 1.8401911999972071, 2.2571746000030544, 2.6653646000049775, 3.1154017000080785, 3.482071599995834, 3.8488061999960337, 4.323812300004647, 4.8988561000005575, 5.223684700002195, 5.757187199997134, 6.240427299999283, 6.724031500009005, 7.140650700006518, 7.623970700005884, 8.11572870000964, 8.715778500001761, 9.24069230000896, 9.690821500000311, 10.124200500009465, 10.674245100002736, 11.265996100002667, 12.157540700005484, 12.682721100005438, 13.116084299996146, 13.657812600009493]"	"[0.6732302000018535, 1.0732419999985723, 1.598275399999693, 1.923303899995517, 2.3816844999964815, 2.781717000005301, 3.240051000000676, 3.606849300005706, 3.9901190000091447, 4.431833599999663, 5.015207999997074, 5.298620300003677, 5.91528030000336, 6.37383630000113, 6.857015300003695, 7.273683100007474, 7.765441299998201, 8.248759099995368, 8.8654530000058, 9.382194400008302, 9.823871200002031, 10.240543899999466, 10.823932300001616, 11.398968699999386, 12.32402820000425, 12.857409100004588, 13.274138599997968, 13.790780800001812]"	449.09239589999197	449.0976306999946	450.5895987999975	450.59773219999624								14	03	2024-02-07_15h33.25.932	BART_exp	2023.2.3	119.97485326084676	2024-02-07 15h33.40.201653 +0100	
balloon.png	114	0	15	15	26	450.59773219999624													450.58977700000105	450.59773219999624	450.59773219999624	450.59773219999624	450.59773219999624	450.59773219999624	0.005395900006988086			450.59773219999624	458.2748108999949	17	0.85	False	"[-0.041666666666666664, -0.041666666666666664, -0.041666666666666664, -0.041666666666666664, -0.041666666666666664, -0.041666666666666664, -0.041666666666666664, -0.041666666666666664, -0.041666666666666664, -0.041666666666666664, -0.041666666666666664, -0.041666666666666664, -0.041666666666666664, -0.041666666666666664, -0.041666666666666664, -0.041666666666666664, -0.041666666666666664, -0.041666666666666664]"	"[-0.3888888888888889, -0.3888888888888889, -0.3888888888888889, -0.3888888888888889, -0.3888888888888889, -0.3888888888888889, -0.3888888888888889, -0.3888888888888889, -0.3888888888888889, -0.3888888888888889, -0.3888888888888889, -0.3888888888888889, -0.3888888888888889, -0.3888888888888889, -0.3888888888888889, -0.3888888888888889, -0.3888888888888889, -0.3888888888888889]"	"[1, 1, 1, 1, 1, 1, 1, 1, 1, 1, 1, 1, 1, 1, 1, 1, 1, 0]"	"[0, 0, 0, 0, 0, 0, 0, 0, 0, 0, 0, 0, 0, 0, 0, 0, 0, 0]"	"[0, 0, 0, 0, 0, 0, 0, 0, 0, 0, 0, 0, 0, 0, 0, 0, 0, 1]"	"[0.458686600002693, 0.917132100003073, 1.2753739000036148, 1.6837524000002304, 2.05045809999865, 2.4754338000057032, 2.8089723000011873, 3.308818000004976, 3.817405299996608, 4.3090832000016235, 4.725757000007434, 5.109097900000052, 5.709125099994708, 5.9174663000012515, 6.275699599995278, 6.70910969999386, 7.109075900007156, 7.684100600003148]"	18	"[0.45674049999797717, 0.9151816999947187, 1.2734253999951761, 1.681806599997799, 2.04851459999918, 2.47348719999718, 2.807024800000363, 3.306871399996453, 3.815462699989439, 4.307145300001139, 4.723818300000858, 5.107152999989921, 5.707174399998621, 5.915518499998143, 6.273746099992422, 6.707161099999212, 7.107127800001763, 7.682088299989118]"	"[0.5815665999980411, 1.056555599992862, 1.3982594999979483, 1.831648999999743, 2.1816365999984555, 2.5150118000019575, 2.940127099995152, 3.4151000999991084, 3.9235260999994352, 4.423461499987752, 4.8068778999877395, 5.173507799991057, 5.806892799999332, 6.073568899999373, 6.415294199992786, 6.848665199999232, 7.2236540999874705, 7.682094799994957]"	458.2757291000016	458.2816013999982	459.7735774999892	459.798366899995								14	03	2024-02-07_15h33.25.932	BART_exp	2023.2.3	119.97485326084676	2024-02-07 15h33.40.201653 +0100	
balloon.png	31	0	16	16	7	459.798366899995													459.7737553999905	459.798366899995	459.798366899995	459.798366899995	459.798366899995	459.798366899995	-0.0006849000055808574	-0.0006849000055808574	-0.0006849000055808574	459.798366899995	470.04225759999827	22	1.10	False	"[-0.041666666666666664, -0.041666666666666664, -0.041666666666666664, -0.041666666666666664, -0.041666666666666664, -0.041666666666666664, -0.041666666666666664, -0.041666666666666664, -0.041666666666666664, -0.041666666666666664, -0.041666666666666664, -0.041666666666666664, -0.041666666666666664, -0.041666666666666664, -0.041666666666666664, -0.041666666666666664, -0.041666666666666664, -0.041666666666666664, -0.041666666666666664, -0.041666666666666664, -0.041666666666666664, -0.041666666666666664, -0.041666666666666664]"	"[-0.3888888888888889, -0.3888888888888889, -0.3888888888888889, -0.3888888888888889, -0.3888888888888889, -0.3888888888888889, -0.3888888888888889, -0.3888888888888889, -0.3888888888888889, -0.3888888888888889, -0.3888888888888889, -0.3888888888888889, -0.3888888888888889, -0.3888888888888889, -0.3888888888888889, -0.3888888888888889, -0.3888888888888889, -0.3888888888888889, -0.3888888888888889, -0.3888888888888889, -0.3888888888888889, -0.3888888888888889, -0.3888888888888889]"	"[1, 1, 1, 1, 1, 1, 1, 1, 1, 1, 1, 1, 1, 1, 1, 1, 1, 1, 1, 1, 1, 1, 0]"	"[0, 0, 0, 0, 0, 0, 0, 0, 0, 0, 0, 0, 0, 0, 0, 0, 0, 0, 0, 0, 0, 0, 0]"	"[0, 0, 0, 0, 0, 0, 0, 0, 0, 0, 0, 0, 0, 0, 0, 0, 0, 0, 0, 0, 0, 0, 1]"	"[0.5169495000009192, 0.9254584000009345, 1.3839683999976842, 1.967258699995, 2.308940500006429, 2.608984899998177, 2.9673698999977205, 3.4090141000051517, 3.8588523999933386, 4.267234600003576, 4.625748199992813, 5.117408399994019, 5.675638500004425, 6.16751739999745, 6.734210199996596, 7.167573700004141, 7.592657200002577, 8.000983999998425, 8.484167799993884, 8.892607500005397, 9.467553900001803, 9.91772189999756, 10.267588300004718]"	23	"[0.5051024999993388, 0.9135989999922458, 1.3721168000047328, 1.9554004999954486, 2.297102600001381, 2.597128299996257, 2.9555170999956317, 3.3971657999936724, 3.84700100000191, 4.25537759999861, 4.613897799994447, 5.105555599991931, 5.663782699994044, 6.155663199999253, 6.72235759999603, 7.155718699999852, 7.58080080000218, 7.989126500004204, 8.472306900002877, 8.880747899995185, 9.455697299999883, 9.905865499997162, 10.255663000003551]"	"[0.6383051000011619, 1.0300350000034086, 1.4633891999983462, 2.038375599993742, 2.413429799998994, 2.688441199992667, 3.0134611999965273, 3.55513749999227, 3.9718476999987615, 4.363803500003996, 4.730283099997905, 5.263617999997223, 5.830303900002036, 6.297024200001033, 6.8720515000022715, 7.288878999999724, 7.705432200003997, 8.12213740000152, 8.622257399998489, 9.038904400003958, 9.597260199996526, 10.063939600004232, 10.2556673999934]"	470.04325569998764	470.0490659999923	471.54103269999905	471.5574984999985								14	03	2024-02-07_15h33.25.932	BART_exp	2023.2.3	119.97485326084676	2024-02-07 15h33.40.201653 +0100	
balloon.png	66	0	17	17	15	471.5574984999985													471.54121099998883	471.5574984999985	471.5574984999985	471.5574984999985	471.5574984999985	471.5574984999985	-0.000775200009229593	-0.000775200009229593	-0.000775200009229593	471.5574984999985	480.9598605999927	17	0.85	False	"[-0.041666666666666664, -0.041666666666666664, -0.041666666666666664, -0.041666666666666664, -0.041666666666666664, -0.041666666666666664, -0.041666666666666664, -0.041666666666666664, -0.041666666666666664, -0.041666666666666664, -0.041666666666666664, -0.041666666666666664, -0.041666666666666664, -0.041666666666666664, -0.041666666666666664, -0.041666666666666664, -0.041666666666666664, -0.041666666666666664]"	"[-0.3888888888888889, -0.3888888888888889, -0.3888888888888889, -0.3888888888888889, -0.3888888888888889, -0.3888888888888889, -0.3888888888888889, -0.3888888888888889, -0.3888888888888889, -0.3888888888888889, -0.3888888888888889, -0.3888888888888889, -0.3888888888888889, -0.3888888888888889, -0.3888888888888889, -0.3888888888888889, -0.3888888888888889, -0.3888888888888889]"	"[1, 1, 1, 1, 1, 1, 1, 1, 1, 1, 1, 1, 1, 1, 1, 1, 1, 0]"	"[0, 0, 0, 0, 0, 0, 0, 0, 0, 0, 0, 0, 0, 0, 0, 0, 0, 0]"	"[0, 0, 0, 0, 0, 0, 0, 0, 0, 0, 0, 0, 0, 0, 0, 0, 0, 1]"	"[1.1672216000006301, 1.501760800005286, 1.942234300004202, 2.325635000001057, 2.833864400003222, 3.2090106999967247, 3.625755000000936, 4.067256700000144, 4.500605299996096, 4.925666499999352, 5.384203499997966, 6.342553199996473, 6.742571099995985, 7.192642299996805, 7.917523099997197, 8.484424199996283, 8.900993700008257, 9.41775459999917]"	18	"[1.1631308000069112, 1.4978334000043105, 1.9381413999944925, 2.321541099998285, 2.829766599999857, 3.2049165000062203, 3.6216614000004483, 4.063160699995933, 4.496509499993408, 4.921570199992857, 5.3801106000028085, 6.338460800005123, 6.738473599994904, 7.188548999998602, 7.913423499994678, 8.480330000005779, 8.896895400001085, 9.413592099997913]"	"[1.2794637000042712, 1.6212252999976045, 2.046170700006769, 2.471231000003172, 2.8962367000058293, 3.321299100003671, 3.7296671999938553, 4.171535100002075, 4.5964670999965165, 5.071391799996491, 5.529764199993224, 6.521496799992747, 6.896612900003674, 7.329955399996834, 8.079941899995902, 8.621731000006548, 9.038452199994936, 9.413596500002313]"	480.9607023999997	480.9664807999943	482.45850249999785	482.4749282999983								14	03	2024-02-07_15h33.25.932	BART_exp	2023.2.3	119.97485326084676	2024-02-07 15h33.40.201653 +0100	
balloon.png	36	0	18	18	8	482.4749282999983													482.45868399999745	482.4749282999983	482.4749282999983	482.4749282999983	482.4749282999983	482.4749282999983	-0.0007196000078693032	-0.0007196000078693032	-0.0007196000078693032	482.4749282999983	494.269223299998	22	1.10	False	"[-0.041666666666666664, -0.041666666666666664, -0.041666666666666664, -0.041666666666666664, -0.041666666666666664, -0.041666666666666664, -0.041666666666666664, -0.041666666666666664, -0.041666666666666664, -0.041666666666666664, -0.041666666666666664, -0.041666666666666664, -0.041666666666666664, -0.041666666666666664, -0.041666666666666664, -0.041666666666666664, -0.041666666666666664, -0.041666666666666664, -0.041666666666666664, -0.041666666666666664, -0.041666666666666664, -0.041666666666666664, -0.041666666666666664]"	"[-0.3888888888888889, -0.3888888888888889, -0.3888888888888889, -0.3888888888888889, -0.3888888888888889, -0.3888888888888889, -0.3888888888888889, -0.3888888888888889, -0.3888888888888889, -0.3888888888888889, -0.3888888888888889, -0.3888888888888889, -0.3888888888888889, -0.3888888888888889, -0.3888888888888889, -0.3888888888888889, -0.3888888888888889, -0.3888888888888889, -0.3888888888888889, -0.3888888888888889, -0.3888888888888889, -0.3888888888888889, -0.3888888888888889]"	"[1, 1, 1, 1, 1, 1, 1, 1, 1, 1, 1, 1, 1, 1, 1, 1, 1, 1, 1, 1, 1, 1, 0]"	"[0, 0, 0, 0, 0, 0, 0, 0, 0, 0, 0, 0, 0, 0, 0, 0, 0, 0, 0, 0, 0, 0, 0]"	"[0, 0, 0, 0, 0, 0, 0, 0, 0, 0, 0, 0, 0, 0, 0, 0, 0, 0, 0, 0, 0, 0, 1]"	"[0.7502653999981703, 1.3836928000091575, 1.792001200010418, 2.758755500006373, 3.2172449000063352, 3.6339619000063976, 4.309003700007452, 4.8090290000109235, 5.275728599997819, 5.908964200003538, 6.609263500009547, 7.13406589999795, 7.517409100008081, 7.992665900004795, 8.550825199999963, 9.292680099999416, 9.61769440000353, 10.017720600008033, 10.342585000005784, 10.767632700008107, 11.026146200005314, 11.526055100010126, 11.809593500001938]"	23	"[0.7436973000003491, 1.3771245999960229, 1.7854315000004135, 2.752190100000007, 3.2106776000000536, 3.6273965000000317, 4.302436800004216, 4.802474399999483, 5.26915690000169, 5.902393199998187, 6.602694400004111, 7.127501199996914, 7.510850599996047, 7.9860937999910675, 8.544255200002226, 9.286117800002103, 9.611128599994117, 10.01115619999473, 10.336014300002716, 10.76106649999565, 11.01958769999328, 11.51948970000376, 11.802964699993026]"	"[0.8935371999978088, 1.4852582000021357, 1.9019622999912826, 2.885349699994549, 3.335447000004933, 3.7687508999952115, 4.4187990999926114, 4.910525200000848, 5.427199099998688, 6.035571200001868, 6.768953399994643, 7.294008600001689, 7.585748099998455, 8.160981799999718, 8.719097499997588, 9.453846499993233, 9.74414130000514, 10.160871600004612, 10.45262019999791, 10.8942384999973, 11.152708299996448, 11.67763279999781, 11.802968799995142]"	494.27015719999326	494.2757314999908	495.7676991999906	495.7841716999974								14	03	2024-02-07_15h33.25.932	BART_exp	2023.2.3	119.97485326084676	2024-02-07 15h33.40.201653 +0100	
balloon.png	101	0	19	19	23	495.7841716999974													495.7678836999985	495.7841716999974	495.7841716999974	495.7841716999974	495.7841716999974	495.7841716999974	-0.0009835999953793362	-0.0009835999953793362	-0.0009835999953793362	495.7841716999974	511.6369769999874	22	1.10	False	"[-0.041666666666666664, -0.041666666666666664, -0.041666666666666664, -0.041666666666666664, -0.041666666666666664, -0.041666666666666664, -0.041666666666666664, -0.041666666666666664, -0.041666666666666664, -0.041666666666666664, -0.041666666666666664, -0.041666666666666664, -0.041666666666666664, -0.041666666666666664, -0.041666666666666664, -0.041666666666666664, -0.041666666666666664, -0.041666666666666664, -0.041666666666666664, -0.041666666666666664, -0.041666666666666664, -0.041666666666666664, -0.041666666666666664]"	"[-0.38981481481481484, -0.38981481481481484, -0.38981481481481484, -0.38981481481481484, -0.38981481481481484, -0.38981481481481484, -0.38981481481481484, -0.38981481481481484, -0.38981481481481484, -0.38981481481481484, -0.38981481481481484, -0.38981481481481484, -0.38981481481481484, -0.38981481481481484, -0.38981481481481484, -0.38981481481481484, -0.38981481481481484, -0.38981481481481484, -0.38981481481481484, -0.38981481481481484, -0.38981481481481484, -0.38981481481481484, -0.38981481481481484]"	"[1, 1, 1, 1, 1, 1, 1, 1, 1, 1, 1, 1, 1, 1, 1, 1, 1, 1, 1, 1, 1, 1, 0]"	"[0, 0, 0, 0, 0, 0, 0, 0, 0, 0, 0, 0, 0, 0, 0, 0, 0, 0, 0, 0, 0, 0, 0]"	"[0, 0, 0, 0, 0, 0, 0, 0, 0, 0, 0, 0, 0, 0, 0, 0, 0, 0, 0, 0, 0, 0, 1]"	"[1.533875100009027, 2.0337509000091814, 2.700652600004105, 4.192224000013084, 4.700775000004796, 6.900940800012904, 7.325960200003465, 7.950979000001098, 8.77586570000858, 9.209273800006486, 9.64271510000981, 10.2176596000063, 10.992688000013004, 11.484625299999607, 11.926223600006779, 12.442786800005706, 12.98447429999942, 13.634564200008754, 14.168060300013167, 14.626268700012588, 14.992950100000598, 15.443203800008632, 15.86815400001069]"	23	"[1.5265953000052832, 2.026468500000192, 2.6933736999926623, 4.184944499997073, 4.69349059999513, 6.893664200004423, 7.31867880000209, 7.94369590000133, 8.768585800004075, 9.201992699992843, 9.63543799999752, 10.210381299999426, 10.985404099992593, 11.477346700005, 11.918944499993813, 12.435505799992825, 12.977194199993392, 13.627284200003487, 14.160776199991233, 14.61899089999497, 14.985666399996262, 15.435922399992705, 15.860807599994587]"	"[1.6679383000009693, 2.167981899998267, 2.8846888999978546, 4.34313039999688, 4.859873299996252, 7.059985999992932, 7.443350899993675, 8.060043999998015, 8.910171600000467, 9.335269300005166, 9.801828099996783, 10.368528799997875, 11.110295499995118, 11.610361300001387, 12.085355899995193, 12.552044099997147, 13.093728699997882, 13.760431000002427, 14.327284899991355, 14.770266099993023, 15.135536899993895, 15.60223259999475, 15.860811899998225]"	511.6380998999957	511.6436126999906	513.1355866999947	513.1436895999941								14	03	2024-02-07_15h33.25.932	BART_exp	2023.2.3	119.97485326084676	2024-02-07 15h33.40.201653 +0100	
balloon.png	123	0	20	20	28	513.1436895999941													513.135773499991	513.1436895999941	513.1436895999941	513.1436895999941	513.1436895999941	513.1436895999941	0.005653100000927225	0.005653100000927225	0.005653100000927225	513.1436895999941	523.3292859999929	23	1.15	False	"[-0.041666666666666664, -0.041666666666666664, -0.041666666666666664, -0.041666666666666664, -0.041666666666666664, -0.041666666666666664, -0.041666666666666664, -0.041666666666666664, -0.041666666666666664, -0.041666666666666664, -0.041666666666666664, -0.041666666666666664, -0.041666666666666664, -0.041666666666666664, -0.041666666666666664, -0.041666666666666664, -0.041666666666666664, -0.041666666666666664, -0.041666666666666664, -0.041666666666666664, -0.041666666666666664, -0.041666666666666664, -0.041666666666666664, -0.041666666666666664]"	"[-0.38981481481481484, -0.38981481481481484, -0.38981481481481484, -0.38981481481481484, -0.38981481481481484, -0.38981481481481484, -0.38981481481481484, -0.38981481481481484, -0.38981481481481484, -0.38981481481481484, -0.38981481481481484, -0.38981481481481484, -0.38981481481481484, -0.38981481481481484, -0.38981481481481484, -0.38981481481481484, -0.38981481481481484, -0.38981481481481484, -0.38981481481481484, -0.38981481481481484, -0.38981481481481484, -0.38981481481481484, -0.38981481481481484, -0.38981481481481484]"	"[1, 1, 1, 1, 1, 1, 1, 1, 1, 1, 1, 1, 1, 1, 1, 1, 1, 1, 1, 1, 1, 1, 1, 0]"	"[0, 0, 0, 0, 0, 0, 0, 0, 0, 0, 0, 0, 0, 0, 0, 0, 0, 0, 0, 0, 0, 0, 0, 0]"	"[0, 0, 0, 0, 0, 0, 0, 0, 0, 0, 0, 0, 0, 0, 0, 0, 0, 0, 0, 0, 0, 0, 0, 1]"	"[0.3256132999958936, 0.5919766000006348, 1.0170444999967003, 1.4838499000034062, 1.9588723000051687, 2.3172539999941364, 2.7589498000015737, 3.1837924999999814, 3.608851800003322, 4.017218299995875, 4.442217400006484, 4.859023600001819, 5.259059100004379, 5.60061890000361, 6.059176700000535, 6.750905299995793, 7.159219900000608, 7.592422899993835, 7.992447600001469, 8.359252800000831, 9.159207799995784, 9.492719899993972, 9.892853400000604, 10.192590499995276]"	24	"[0.3237597999977879, 0.5901102999923751, 1.0151818000013009, 1.4819868999911705, 1.9570077999960631, 2.315396599995438, 2.7570842999994056, 3.1819259999901988, 3.6069928999932017, 4.01535739999963, 4.440352099991287, 4.857162000000244, 5.2571981999935815, 5.598754999999073, 6.057317799990415, 6.749042899988126, 7.157361599995056, 7.590560999989975, 7.990584499988472, 8.357394599996042, 9.157340199992177, 9.490853800001787, 9.890986300000804, 10.190662299995893]"	"[0.33998289999726694, 0.6996785999945132, 1.0982946000003722, 1.5899952999898233, 2.065026199998101, 2.4651076000009198, 2.8817540999880293, 3.323572099994635, 3.7234739999985322, 4.131917299993802, 4.581877699994948, 5.031960799999069, 5.431931799990707, 5.7652863999974215, 6.215325299999677, 6.882015099996352, 7.29872510000132, 7.723863399995025, 8.098878899996635, 8.490463099995395, 9.257204099994851, 9.623995399990235, 10.040683899991564, 10.190666599999531]"	523.3302721999935	523.3360562999878	524.8280305999942	524.8445212999941								14	03	2024-02-07_15h33.25.932	BART_exp	2023.2.3	119.97485326084676	2024-02-07 15h33.40.201653 +0100	
balloon.png	1	0	21	21	0	524.8445212999941													524.8282117999915	524.8445212999941	524.8445212999941	524.8445212999941	524.8445212999941	524.8445212999941	-0.0007888999971328303	-0.0007888999971328303	-0.0007888999971328303	524.8445212999941	526.1215316000016	2	0.05	True	"[-0.041666666666666664, -0.041666666666666664]"	"[-0.38981481481481484, -0.38981481481481484]"	"[1, 1]"	"[0, 0]"	"[0, 0]"	"[0.7839878000086173, 1.1253519000019878]"	2	"[0.7772908000042662, 1.1186538000038126]"	"[0.8519519000110449, 1.2768803000071784]"	526.1221294999996	526.1279393000004	527.6198891999957	527.6363482999877								14	03	2024-02-07_15h33.25.932	BART_exp	2023.2.3	119.97485326084676	2024-02-07 15h33.40.201653 +0100	
balloon.png	10	0	22	22	2	527.6363482999877													527.6200681999908	527.6363482999877	527.6363482999877	527.6363482999877	527.6363482999877	527.6363482999877	-0.0007587000000057742	-0.0007587000000057742	-0.0007587000000057742	527.6363482999877	531.4802720000007	11	0.50	True	"[-0.041666666666666664, -0.041666666666666664, -0.041666666666666664, -0.041666666666666664, -0.041666666666666664, -0.041666666666666664, -0.041666666666666664, -0.041666666666666664, -0.041666666666666664, -0.041666666666666664, -0.041666666666666664]"	"[-0.38981481481481484, -0.38981481481481484, -0.38981481481481484, -0.38981481481481484, -0.38981481481481484, -0.38981481481481484, -0.38981481481481484, -0.38981481481481484, -0.38981481481481484, -0.38981481481481484, -0.38981481481481484]"	"[1, 1, 1, 1, 1, 1, 1, 1, 1, 1, 1]"	"[0, 0, 0, 0, 0, 0, 0, 0, 0, 0, 0]"	"[0, 0, 0, 0, 0, 0, 0, 0, 0, 0, 0]"	"[0.3003050999977859, 0.6171971000003396, 0.8421815000037896, 1.0671939000021666, 1.2673482999962289, 1.7004259999957867, 2.1421097999991616, 2.5171084000030532, 2.908876000001328, 3.3338612000079593, 3.7422062999976333]"	11	"[0.2947889000060968, 0.6116876000014599, 0.8366734000010183, 1.0616790000058245, 1.2618321000045398, 1.6949086000095122, 2.1365931000036653, 2.5115962000127183, 2.903360200012685, 3.328347600006964, 3.736692200007383]"	"[0.4029774000082398, 0.7196773000032408, 0.9363713000057032, 1.1446925000054762, 1.369691400002921, 1.7865861000027508, 2.2198179000115488, 2.611463300010655, 3.0031495000002906, 3.4198840000026394, 3.8448712000099476]"	531.481157199989	531.4866444999934	532.9786117999902	532.9867319999903								14	03	2024-02-07_15h33.25.932	BART_exp	2023.2.3	119.97485326084676	2024-02-07 15h33.40.201653 +0100	
balloon.png	88	0	23	23	20	532.9867319999903													532.9787936999928	532.9867319999903	532.9867319999903	532.9867319999903	532.9867319999903	532.9867319999903	0.005638300004648045			532.9867319999903	542.9724283999967	23	1.15	False	"[-0.041666666666666664, -0.041666666666666664, -0.041666666666666664, -0.041666666666666664, -0.041666666666666664, -0.041666666666666664, -0.041666666666666664, -0.041666666666666664, -0.041666666666666664, -0.041666666666666664, -0.041666666666666664, -0.041666666666666664, -0.041666666666666664, -0.041666666666666664, -0.041666666666666664, -0.041666666666666664, -0.041666666666666664, -0.041666666666666664, -0.041666666666666664, -0.041666666666666664, -0.041666666666666664, -0.041666666666666664, -0.041666666666666664, -0.041666666666666664]"	"[-0.38981481481481484, -0.38981481481481484, -0.38981481481481484, -0.38981481481481484, -0.38981481481481484, -0.38981481481481484, -0.38981481481481484, -0.38981481481481484, -0.38981481481481484, -0.38981481481481484, -0.38981481481481484, -0.38981481481481484, -0.38981481481481484, -0.38981481481481484, -0.38981481481481484, -0.38981481481481484, -0.38981481481481484, -0.38981481481481484, -0.38981481481481484, -0.38981481481481484, -0.38981481481481484, -0.38981481481481484, -0.38981481481481484, -0.38981481481481484]"	"[1, 1, 1, 1, 1, 1, 1, 1, 1, 1, 1, 1, 1, 1, 1, 1, 1, 1, 1, 1, 1, 1, 1, 0]"	"[0, 0, 0, 0, 0, 0, 0, 0, 0, 0, 0, 0, 0, 0, 0, 0, 0, 0, 0, 0, 0, 0, 0, 0]"	"[0, 0, 0, 0, 0, 0, 0, 0, 0, 0, 0, 0, 0, 0, 0, 0, 0, 0, 0, 0, 0, 0, 0, 1]"	"[0.2254726999963168, 0.4587407000071835, 0.9169722000078764, 1.608830700002727, 2.092199899998377, 2.8422646000108216, 3.4256469999963883, 3.7671917999978177, 4.175604400006705, 4.575537199998507, 4.942239199997857, 5.333975300003658, 5.767451899999287, 6.133983799998532, 6.500676000010571, 6.867386900004931, 7.292706100008218, 7.650942799999029, 7.975999400005094, 8.36752990000241, 8.917521299998043, 9.259392200008733, 9.634394000007887, 9.992712599996594]"	24	"[0.2233972999965772, 0.45666339999297634, 0.9148991999973077, 1.6067515000031563, 2.0901207999995677, 2.840185699998983, 3.42356949999521, 3.7651179999957094, 4.173529599996982, 4.573461499996483, 4.940159000005224, 5.331903900005273, 5.76537599999574, 6.131907300004968, 6.498600999999326, 6.865308199994615, 7.290629399998579, 7.648869900003774, 7.973926399994525, 8.36545450000267, 8.915445999999065, 9.257314999995288, 9.63231590000214, 9.99057310000353]"	"[0.33969389999401756, 0.589706800004933, 1.023112900002161, 1.6899170999968192, 2.1981508000026224, 2.9148674000025494, 3.581633599998895, 3.8899343999946723, 4.28163840000343, 4.66499429999385, 5.048352800004068, 5.448370400001295, 5.881808599995566, 6.256847700002254, 6.623535099992296, 7.015184000003501, 7.431878200004576, 7.781873800005997, 8.123549700001604, 8.515296900004614, 9.01534339999489, 9.365305900006206, 9.757006999992882, 9.990577200005646]"	542.9734407999931	542.9790654999961	544.4710971999884	544.4875082999934								14	03	2024-02-07_15h33.25.932	BART_exp	2023.2.3	119.97485326084676	2024-02-07 15h33.40.201653 +0100	
balloon.png	62	0	24	24	14	544.4875082999934													544.4712793999934	544.4875082999934	544.4875082999934	544.4875082999934	544.4875082999934	544.4875082999934	-0.0008597999985795468	-0.0008597999985795468	-0.0008597999985795468	544.4875082999934	556.2150507999904	22	1.10	False	"[-0.041666666666666664, -0.041666666666666664, -0.041666666666666664, -0.041666666666666664, -0.041666666666666664, -0.041666666666666664, -0.041666666666666664, -0.041666666666666664, -0.041666666666666664, -0.041666666666666664, -0.041666666666666664, -0.041666666666666664, -0.041666666666666664, -0.041666666666666664, -0.041666666666666664, -0.041666666666666664, -0.041666666666666664, -0.041666666666666664, -0.041666666666666664, -0.041666666666666664, -0.041666666666666664, -0.041666666666666664, -0.041666666666666664]"	"[-0.38981481481481484, -0.38981481481481484, -0.38981481481481484, -0.38981481481481484, -0.38981481481481484, -0.38981481481481484, -0.38981481481481484, -0.38981481481481484, -0.38981481481481484, -0.38981481481481484, -0.38981481481481484, -0.38981481481481484, -0.38981481481481484, -0.38981481481481484, -0.38981481481481484, -0.38981481481481484, -0.38981481481481484, -0.38981481481481484, -0.38981481481481484, -0.38981481481481484, -0.38981481481481484, -0.38981481481481484, -0.38981481481481484]"	"[1, 1, 1, 1, 1, 1, 1, 1, 1, 1, 1, 1, 1, 1, 1, 1, 1, 1, 1, 1, 1, 1, 0]"	"[0, 0, 0, 0, 0, 0, 0, 0, 0, 0, 0, 0, 0, 0, 0, 0, 0, 0, 0, 0, 0, 0, 0]"	"[0, 0, 0, 0, 0, 0, 0, 0, 0, 0, 0, 0, 0, 0, 0, 0, 0, 0, 0, 0, 0, 0, 1]"	"[1.0169515000015963, 1.4755270000023302, 1.9505421000067145, 2.4503710999997566, 3.0087810999975773, 3.5172614000039175, 3.8924098999996204, 4.267212200007634, 4.675633300008485, 5.225612199996249, 6.033940699999221, 6.550820899996324, 7.075824300001841, 7.709249799998361, 8.11767370000598, 8.642534700004035, 9.067620700006955, 9.484395699997549, 10.159401400000206, 10.575945300006424, 10.909453700005542, 11.384321300007286, 11.742846000008285]"	23	"[1.0127579999971204, 1.4713275999965845, 1.9463523000013083, 2.446172399999341, 3.004587300005369, 3.5130650000064634, 3.888214999999036, 4.263014700001804, 4.671442399994703, 5.221418500004802, 6.029755499999737, 6.546621200002846, 7.071625500000664, 7.7050556000031065, 8.11347690000548, 8.63833760000125, 9.063419900005101, 9.48019600000407, 10.155201900008251, 10.571750100003555, 10.905256099998951, 11.380125299998326, 11.738582300007693]"	"[1.1375866000016686, 1.571041300005163, 2.062642400007462, 2.5794318999978714, 3.1544877999986056, 3.604436399997212, 4.00446440000087, 4.3462101000041, 4.837896800003364, 5.387891499995021, 6.171295499996631, 6.662955399995553, 7.24656590000086, 7.85473780000757, 8.25474380000378, 8.796476300005452, 9.229878900005133, 9.646555200000876, 10.21320260000357, 10.696684800001094, 11.0466177000053, 11.505004599996028, 11.738586499996018]"	556.2161625000008	556.2216981999954	557.7136360000004	557.7300936999964								14	03	2024-02-07_15h33.25.932	BART_exp	2023.2.3	119.97485326084676	2024-02-07 15h33.40.201653 +0100	
balloon.png	14	0	25	25	3	557.7300936999964													557.713806899992	557.7300936999964	557.7300936999964	557.7300936999964	557.7300936999964	557.7300936999964	0.013997299989569001	0.013997299989569001	0.013997299989569001	557.7300936999964	567.9910887000005	15	0.70	True	"[-0.041666666666666664, -0.041666666666666664, -0.041666666666666664, -0.041666666666666664, -0.041666666666666664, -0.041666666666666664, -0.041666666666666664, -0.041666666666666664, -0.041666666666666664, -0.041666666666666664, -0.041666666666666664, -0.041666666666666664, -0.041666666666666664, -0.041666666666666664, -0.041666666666666664]"	"[-0.38981481481481484, -0.38981481481481484, -0.38981481481481484, -0.38981481481481484, -0.38981481481481484, -0.38981481481481484, -0.38981481481481484, -0.38981481481481484, -0.38981481481481484, -0.38981481481481484, -0.38981481481481484, -0.38981481481481484, -0.38981481481481484, -0.38981481481481484, -0.38981481481481484]"	"[1, 1, 1, 1, 1, 1, 1, 1, 1, 1, 1, 1, 1, 1, 1]"	"[0, 0, 0, 0, 0, 0, 0, 0, 0, 0, 0, 0, 0, 0, 0]"	"[0, 0, 0, 0, 0, 0, 0, 0, 0, 0, 0, 0, 0, 0, 0]"	"[0.7254940999991959, 1.492196299994248, 2.508965700006229, 3.5506849999947008, 3.867366200007382, 4.333951399996295, 4.917294300001231, 5.459140399994794, 6.292384300002595, 6.792540700000245, 7.300954300008016, 7.8593133999966085, 8.468834200000856, 8.942743699997663, 10.13432019999891]"	15	"[0.7233968000073219, 1.4901001999969594, 2.50687480000488, 3.548595700005535, 3.8652680999948643, 4.331857199998922, 4.915195399997174, 5.457042199996067, 6.2902954000019236, 6.790443100006087, 7.29885770000692, 7.857215299998643, 8.466902400003164, 8.94064420000359, 10.132221199994092]"	"[0.8564464000082808, 1.656521500000963, 2.664891499996884, 3.7066648000036366, 4.006626200003666, 4.489991499998723, 5.090050300001167, 5.606774200001382, 6.448569200001657, 6.965164299996104, 7.4653548000060255, 8.023598800005857, 8.590294499997981, 9.057041399995796, 10.265404499994474]"	567.9918669999897	567.9974521999975	569.4894082999963	569.5058819999977								14	03	2024-02-07_15h33.25.932	BART_exp	2023.2.3	119.97485326084676	2024-02-07 15h33.40.201653 +0100	
balloon.png	92	0	26	26	21	569.5058819999977													569.4895867000014	569.5058819999977	569.5058819999977	569.5058819999977	569.5058819999977	569.5058819999977	-0.0009452999947825447	-0.0009452999947825447	-0.0009452999947825447	569.5058819999977	577.9165151999914	17	0.85	False	"[-0.041666666666666664, -0.041666666666666664, -0.041666666666666664, -0.041666666666666664, -0.041666666666666664, -0.041666666666666664, -0.041666666666666664, -0.041666666666666664, -0.041666666666666664, -0.041666666666666664, -0.041666666666666664, -0.041666666666666664, -0.041666666666666664, -0.041666666666666664, -0.041666666666666664, -0.041666666666666664, -0.041666666666666664, -0.041666666666666664]"	"[-0.38981481481481484, -0.38981481481481484, -0.38981481481481484, -0.38981481481481484, -0.38981481481481484, -0.38981481481481484, -0.38981481481481484, -0.38981481481481484, -0.38981481481481484, -0.38981481481481484, -0.38981481481481484, -0.38981481481481484, -0.38981481481481484, -0.38981481481481484, -0.38981481481481484, -0.38981481481481484, -0.38981481481481484, -0.38981481481481484]"	"[1, 1, 1, 1, 1, 1, 1, 1, 1, 1, 1, 1, 1, 1, 1, 1, 1, 0]"	"[0, 0, 0, 0, 0, 0, 0, 0, 0, 0, 0, 0, 0, 0, 0, 0, 0, 0]"	"[0, 0, 0, 0, 0, 0, 0, 0, 0, 0, 0, 0, 0, 0, 0, 0, 0, 1]"	"[0.31714410000131465, 0.658946499999729, 1.4088444999943022, 1.775434299997869, 2.225561600003857, 3.0088346999982605, 3.400535699998727, 4.034140300005674, 4.500783299998147, 4.925800600001821, 5.384020199999213, 6.034171000006609, 6.409169100006693, 6.79314360000717, 7.275955399993109, 7.634285899999668, 7.960612199996831, 8.426011599993217]"	18	"[0.31160989998898003, 0.653405399993062, 1.40329699999711, 1.7698868000006769, 2.2200165999965975, 3.0032961999968393, 3.3949884999892674, 4.028607200001716, 4.495245799989789, 4.9202570999914315, 5.378475999998045, 6.028622899990296, 6.403622899990296, 6.78759719998925, 7.2704100999981165, 7.628743099994608, 7.955236199995852, 8.420402099989587]"	"[0.4114195000001928, 0.803007800001069, 1.5280292999959784, 1.878061199997319, 2.336470599999302, 3.1948312999884365, 3.561517099995399, 4.203217999995104, 4.644902000000002, 5.069947799987858, 5.519963699989603, 6.195008999988204, 6.545030099994619, 6.945056399999885, 7.386821399995824, 7.803466500001377, 8.086853200002224, 8.420406599994749]"	577.9173597999907	577.9231334999931	579.4151165999938	579.4315665999893								14	03	2024-02-07_15h33.25.932	BART_exp	2023.2.3	119.97485326084676	2024-02-07 15h33.40.201653 +0100	
balloon.png	97	0	27	27	22	579.4315665999893													579.4153181000001	579.4315665999893	579.4315665999893	579.4315665999893	579.4315665999893	579.4315665999893	-0.0007290999928954989	-0.0007290999928954989	-0.0007290999928954989	579.4315665999893	588.4839368999965	22	1.10	False	"[-0.041666666666666664, -0.041666666666666664, -0.041666666666666664, -0.041666666666666664, -0.041666666666666664, -0.041666666666666664, -0.041666666666666664, -0.041666666666666664, -0.041666666666666664, -0.041666666666666664, -0.041666666666666664, -0.041666666666666664, -0.041666666666666664, -0.041666666666666664, -0.041666666666666664, -0.041666666666666664, -0.041666666666666664, -0.041666666666666664, -0.041666666666666664, -0.041666666666666664, -0.041666666666666664, -0.041666666666666664, -0.041666666666666664]"	"[-0.38981481481481484, -0.38981481481481484, -0.38981481481481484, -0.38981481481481484, -0.38981481481481484, -0.38981481481481484, -0.38981481481481484, -0.38981481481481484, -0.38981481481481484, -0.38981481481481484, -0.38981481481481484, -0.38981481481481484, -0.38981481481481484, -0.38981481481481484, -0.38981481481481484, -0.38981481481481484, -0.38981481481481484, -0.38981481481481484, -0.38981481481481484, -0.38981481481481484, -0.38981481481481484, -0.38981481481481484, -0.38981481481481484]"	"[1, 1, 1, 1, 1, 1, 1, 1, 1, 1, 1, 1, 1, 1, 1, 1, 1, 1, 1, 1, 1, 1, 0]"	"[0, 0, 0, 0, 0, 0, 0, 0, 0, 0, 0, 0, 0, 0, 0, 0, 0, 0, 0, 0, 0, 0, 0]"	"[0, 0, 0, 0, 0, 0, 0, 0, 0, 0, 0, 0, 0, 0, 0, 0, 0, 0, 0, 0, 0, 0, 1]"	"[0.6752660000056494, 1.0087690000073053, 1.4003740000043763, 1.7671722000086447, 2.142278900006204, 2.533892300009029, 2.8839359000121476, 3.1672468000033405, 3.592136400009622, 4.01714150000771, 4.342381900001783, 4.792301200010115, 5.217231400005403, 5.484070000005886, 5.925802300000214, 6.225646800012328, 6.634005200001411, 6.917560800007777, 7.334205200008, 8.000811100006104, 8.352133700012928, 8.800830700012739, 9.067665300011868]"	23	"[0.665069599999697, 0.9985691000038059, 1.3901746000046842, 1.7569741000042995, 2.1320838000101503, 2.5236977000022307, 2.8737431000045035, 3.15704600000754, 3.5819422000058694, 4.006945300003281, 4.332181999998284, 4.782099899995956, 5.207032599995728, 5.473870800007717, 5.915613500008476, 6.215448999995715, 6.623804500006372, 6.907363300008001, 7.324006900002132, 7.990612900000997, 8.34210670000175, 8.790631199997733, 9.05740479999804]"	"[0.7732808000000659, 1.123263000001316, 1.5317154000076698, 1.889994500001194, 2.265170400001807, 2.6567273999971803, 3.0318506000039633, 3.290163700003177, 3.715260099997977, 4.173455600001034, 4.481924899999285, 4.931905300007202, 5.3402358000021195, 5.6320184000069275, 6.040328600007342, 6.306973900005687, 6.731983600009698, 7.015409900006489, 7.440629600008833, 8.073778000005404, 8.448837500007357, 8.923802600009367, 9.057409100001678]"	588.4849107999908	588.4905302999978	589.9824992999929	589.9990058999974								14	03	2024-02-07_15h33.25.932	BART_exp	2023.2.3	119.97485326084676	2024-02-07 15h33.40.201653 +0100	
balloon.png	57	0	28	28	13	589.9990058999974													589.9826752999943	589.9990058999974	589.9990058999974	589.9990058999974	589.9990058999974	589.9990058999974	-0.0009393999935127795	-0.0009393999935127795	-0.0009393999935127795	589.9990058999974	604.776572399991	33	1.65	False	"[-0.041666666666666664, -0.041666666666666664, -0.041666666666666664, -0.041666666666666664, -0.041666666666666664, -0.041666666666666664, -0.041666666666666664, -0.041666666666666664, -0.041666666666666664, -0.041666666666666664, -0.041666666666666664, -0.041666666666666664, -0.041666666666666664, -0.041666666666666664, -0.041666666666666664, -0.041666666666666664, -0.041666666666666664, -0.041666666666666664, -0.041666666666666664, -0.041666666666666664, -0.041666666666666664, -0.041666666666666664, -0.041666666666666664, -0.041666666666666664, -0.041666666666666664, -0.041666666666666664, -0.041666666666666664, -0.041666666666666664, -0.041666666666666664, -0.041666666666666664, -0.041666666666666664, -0.041666666666666664, -0.041666666666666664, -0.041666666666666664]"	"[-0.38981481481481484, -0.38981481481481484, -0.38981481481481484, -0.38981481481481484, -0.38981481481481484, -0.38981481481481484, -0.38981481481481484, -0.38981481481481484, -0.38981481481481484, -0.38981481481481484, -0.38981481481481484, -0.38981481481481484, -0.38981481481481484, -0.38981481481481484, -0.38981481481481484, -0.38981481481481484, -0.38981481481481484, -0.38981481481481484, -0.38981481481481484, -0.38981481481481484, -0.38981481481481484, -0.38981481481481484, -0.38981481481481484, -0.38981481481481484, -0.38981481481481484, -0.38981481481481484, -0.38981481481481484, -0.38981481481481484, -0.38981481481481484, -0.38981481481481484, -0.38981481481481484, -0.38981481481481484, -0.38981481481481484, -0.38981481481481484]"	"[1, 1, 1, 1, 1, 1, 1, 1, 1, 1, 1, 1, 1, 1, 1, 1, 1, 1, 1, 1, 1, 1, 1, 1, 1, 1, 1, 1, 1, 1, 1, 1, 1, 0]"	"[0, 0, 0, 0, 0, 0, 0, 0, 0, 0, 0, 0, 0, 0, 0, 0, 0, 0, 0, 0, 0, 0, 0, 0, 0, 0, 0, 0, 0, 0, 0, 0, 0, 0]"	"[0, 0, 0, 0, 0, 0, 0, 0, 0, 0, 0, 0, 0, 0, 0, 0, 0, 0, 0, 0, 0, 0, 0, 0, 0, 0, 0, 0, 0, 0, 0, 0, 0, 1]"	"[0.8919818000140367, 1.3004619000130333, 1.6423150000046007, 1.983896600009757, 2.3505885000049602, 2.667100400009076, 3.1923003000119934, 3.542329800009611, 3.8924525000038557, 4.250754100008635, 4.5757530000119, 4.892525800009025, 5.292436900010216, 5.625682300000335, 6.0925189000117825, 6.376086200005375, 6.750928700013901, 7.067414500008454, 7.467550900008064, 7.884133200001088, 8.392665000006673, 8.850860400008969, 9.301060800004052, 9.609260900004301, 9.951098800011096, 10.359490700007882, 10.684497700000065, 11.02601840000716, 11.36787300001015, 11.751265800005058, 13.176332300005015, 13.601182800004608, 14.493070800002897, 14.792969900008757]"	34	"[0.8895450999989407, 1.2980264999932842, 1.639877699999488, 1.98145900000236, 2.3481552000012016, 2.664664999989327, 3.189864200001466, 3.539888899991638, 3.8900229999999283, 4.248317699995823, 4.573317199989106, 4.8900970999966376, 5.289997300002142, 5.6232445999921765, 6.0900909999909345, 6.37365179999324, 6.748504499992123, 7.064975000001141, 7.465117599989753, 7.8816974999936065, 8.390227500000037, 8.848421399990912, 9.29862659999344, 9.606828699994367, 9.948664700001245, 10.357054799998878, 10.68206769999233, 11.023581599991303, 11.365441399990232, 11.748827000003075, 13.173897300002864, 13.598749299999326, 14.490636699993047, 14.790468199993484]"	"[1.0477429000020493, 1.4644648999965284, 1.7478507999912836, 2.1145534999959636, 2.4728790999943158, 2.789689899989753, 3.29790389999107, 3.681271099994774, 4.0146364999964135, 4.389823899997282, 4.697986699989997, 5.031354099992313, 5.439710699996795, 5.781419599996298, 6.206418699992355, 6.47312989999773, 6.8815178999939235, 7.206535999997868, 7.62320849999378, 8.031561999989208, 8.589925099993707, 9.014961099994252, 9.439984299999196, 9.765047499997308, 10.098392400002922, 10.49848729999212, 10.848638800001936, 11.173431899995194, 11.5152306999953, 11.881828300000052, 13.323617599991849, 13.765329699992435, 14.657025099993916, 14.7904722999956]"	604.7782398999989	604.791639499992	606.2834470999951									14	03	2024-02-07_15h33.25.932	BART_exp	2023.2.3	119.97485326084676	2024-02-07 15h33.40.201653 +0100	
balloon.png	118	0	29	29	27	606.3084190999944													606.2836161999876	606.3084190999944	606.3084190999944	606.3084190999944	606.3084190999944	606.3084190999944	0.006708300003083423	0.006708300003083423	0.006708300003083423	606.3084190999944	616.2106361999904	22	1.10	False	"[-0.041666666666666664, -0.041666666666666664, -0.041666666666666664, -0.041666666666666664, -0.041666666666666664, -0.041666666666666664, -0.041666666666666664, -0.041666666666666664, -0.041666666666666664, -0.041666666666666664, -0.041666666666666664, -0.041666666666666664, -0.041666666666666664, -0.041666666666666664, -0.041666666666666664, -0.041666666666666664, -0.041666666666666664, -0.041666666666666664, -0.041666666666666664, -0.041666666666666664, -0.041666666666666664, -0.041666666666666664, -0.041666666666666664]"	"[-0.38981481481481484, -0.38981481481481484, -0.38981481481481484, -0.38981481481481484, -0.38981481481481484, -0.38981481481481484, -0.38981481481481484, -0.38981481481481484, -0.38981481481481484, -0.38981481481481484, -0.38981481481481484, -0.38981481481481484, -0.38981481481481484, -0.38981481481481484, -0.38981481481481484, -0.38981481481481484, -0.38981481481481484, -0.38981481481481484, -0.38981481481481484, -0.38981481481481484, -0.38981481481481484, -0.38981481481481484, -0.38981481481481484]"	"[1, 1, 1, 1, 1, 1, 1, 1, 1, 1, 1, 1, 1, 1, 1, 1, 1, 1, 1, 1, 1, 1, 0]"	"[0, 0, 0, 0, 0, 0, 0, 0, 0, 0, 0, 0, 0, 0, 0, 0, 0, 0, 0, 0, 0, 0, 0]"	"[0, 0, 0, 0, 0, 0, 0, 0, 0, 0, 0, 0, 0, 0, 0, 0, 0, 0, 0, 0, 0, 0, 1]"	"[0.7421948999981396, 1.2922443999996176, 1.6674115999921924, 1.9422831999982009, 2.3423471999994945, 2.642314400000032, 3.009154299987131, 3.334094899997581, 3.717384299990954, 4.259276599987061, 4.492457699991064, 4.734164399997098, 5.2176706999889575, 5.709195399991586, 6.142698799987556, 6.826182699995115, 7.292632299999241, 7.717658800000208, 8.1343535999913, 8.551163999989512, 9.30111859999306, 9.542871599987848, 9.92613939999137]"	23	"[0.7303484000003664, 1.2803902000014205, 1.6555634000105783, 1.930438299998059, 2.3304961000103503, 2.630467100010719, 2.9973008000088157, 3.3222404999978608, 3.7055342000094242, 4.247428200003924, 4.48061320000852, 4.722310900004231, 5.205820600007428, 5.6973447000054875, 6.130851599999005, 6.814338900003349, 7.280783399997745, 7.705805000005057, 8.122502300000633, 8.539315800007898, 9.289271800007555, 9.53102310000395, 9.914225800006534]"	"[0.8385451000067405, 1.380270499998005, 1.7554271000117296, 2.055269500007853, 2.472007800010033, 2.763691700005438, 3.138709300008486, 3.4638323000108358, 3.8638028999994276, 4.347106300003361, 4.597116700009792, 4.830481299999519, 5.363986600001226, 5.855536500006565, 6.288927200002945, 6.938938000006601, 7.355656200001249, 7.7973346000071615, 8.255695700005163, 8.697388800006593, 9.405805600006715, 9.672471500001848, 9.914230000009411]"	616.2116214999987	616.2174235999992	617.7094046999991	617.7175195000018								14	03	2024-02-07_15h33.25.932	BART_exp	2023.2.3	119.97485326084676	2024-02-07 15h33.40.201653 +0100	
																																														617.7094399999914	617.7175195000018	617.7175195000018	623.9684447999898	space	6.2449380999896675	None	14	03	2024-02-07_15h33.25.932	BART_exp	2023.2.3	119.97485326084676	2024-02-07 15h33.40.201653 +0100	
