"diceImage"	"d_number"	"dice_loop.thisRepN"	"dice_loop.thisTrialN"	"dice_loop.thisN"	"dice_loop.thisIndex"	"thisRow.t"	"notes"	"Start.started"	"text_start.started"	"continue_start.started"	"mouse_start.started"	"Start.stopped"	"mouse_start.x"	"mouse_start.y"	"mouse_start.leftButton"	"mouse_start.midButton"	"mouse_start.rightButton"	"mouse_start.time"	"trial.started"	"box_dice.started"	"text_dice_header.started"	"text_gain.started"	"value_gain.started"	"text_bank.started"	"value_bank.started"	"img_dice_1.started"	"img_dice_2.started"	"img_dice_3.started"	"img_dice_4.started"	"img_dice_5.started"	"img_dice_6.started"	"img_dice_1_2.started"	"img_dice_3_4.started"	"img_dice_5_6.started"	"img_dice_1_2_3.started"	"img_dice_4_5_6.started"	"img_dice_1_2_3_4.started"	"img_dice_2_3_4_5.started"	"img_dice_3_4_5_6.started"	"text_value_header.started"	"text_value_1000.started"	"text_value_500.started"	"text_value_200.started"	"text_value_100.started"	"mouse_task.started"	"img_dice_throw_trials.started"	"img_dice_throw_trials.stopped"	"trial.stopped"	"mouse_task.x"	"mouse_task.y"	"mouse_task.leftButton"	"mouse_task.midButton"	"mouse_task.rightButton"	"mouse_task.time"	"choice"	"gain"	"End.started"	"text_end.started"	"key_end.started"	"End.stopped"	"key_end.keys"	"key_end.rt"	"key_end.duration"	"participant"	"session"	"date"	"expName"	"psychopyVersion"	"frameRate"	"expStart"	"...72"
NA	NA	NA	NA	NA	NA	NA	NA	0.00806220003869384	0.0221501999767497	0.0221501999767497	0.00895099993795156	0.949339899932966	"[0.6283333333333333]"	"[-0.37]"	"[1]"	"[0]"	"[0]"	"[0.9353814999340102]"	NA	NA	NA	NA	NA	NA	NA	NA	NA	NA	NA	NA	NA	NA	NA	NA	NA	NA	NA	NA	NA	NA	NA	NA	NA	NA	NA	NA	NA	NA	NA	NA	NA	NA	NA	NA	NA	NA	NA	NA	NA	NA	NA	NA	NA	"01"	"01"	"2023-12-13_13h39.09.972"	"GDT_exp"	"2023.2.2"	"None"	"2023-12-13 13h39.29.297531 +0100"	NA
"dice_6.png"	6	0	0	0	5	1.11142790003214	NA	NA	NA	NA	NA	NA	NA	NA	NA	NA	NA	NA	0.960983099997975	1.11142790003214	1.11142790003214	1.11142790003214	1.11142790003214	1.11142790003214	1.11142790003214	1.11142790003214	1.11142790003214	1.11142790003214	1.11142790003214	1.11142790003214	1.11142790003214	1.11142790003214	1.11142790003214	1.11142790003214	1.11142790003214	1.11142790003214	1.11142790003214	1.11142790003214	1.11142790003214	1.11142790003214	1.11142790003214	1.11142790003214	1.11142790003214	1.11142790003214	0.0339487000601366	2.85212789999787	4.44500089995563	4.39985439996235	"[0.09583333333333334, 0.13833333333333334, -0.03, -0.03]"	"[-0.33166666666666667, -0.2991666666666667, -0.24833333333333332, -0.24833333333333332]"	"[1, 0, 1, 1]"	"[0, 0, 0, 0]"	"[0, 1, 0, 0]"	"[1.3758480999385938, 1.7614532000152394, 2.829317900002934, 3.0195690999971703]"	3	100	NA	NA	NA	NA	NA	NA	NA	"01"	"01"	"2023-12-13_13h39.09.972"	"GDT_exp"	"2023.2.2"	"None"	"2023-12-13 13h39.29.297531 +0100"	NA
"dice_2.png"	2	0	1	1	1	4.44500089995563	NA	NA	NA	NA	NA	NA	NA	NA	NA	NA	NA	NA	4.4029797000112	4.44500089995563	4.44500089995563	4.44500089995563	4.44500089995563	4.44500089995563	4.44500089995563	4.44500089995563	4.44500089995563	4.44500089995563	4.44500089995563	4.44500089995563	4.44500089995563	4.44500089995563	4.44500089995563	4.44500089995563	4.44500089995563	4.44500089995563	4.44500089995563	4.44500089995563	4.44500089995563	4.44500089995563	4.44500089995563	4.44500089995563	4.44500089995563	4.44500089995563	0.00826619996223598	5.11615959997289	6.70670720003545	6.65760479995515	"[-0.03, -0.005833333333333334]"	"[-0.24833333333333332, -0.25666666666666665]"	"[1, 0]"	"[0, 0]"	"[0, 1]"	"[0.34969389997422695, 0.6065134999807924]"	3	-200	NA	NA	NA	NA	NA	NA	NA	"01"	"01"	"2023-12-13_13h39.09.972"	"GDT_exp"	"2023.2.2"	"None"	"2023-12-13 13h39.29.297531 +0100"	NA
"dice_1.png"	1	0	2	2	0	6.70670720003545	NA	NA	NA	NA	NA	NA	NA	NA	NA	NA	NA	NA	6.6584418999264	6.70670720003545	6.70670720003545	6.70670720003545	6.70670720003545	6.70670720003545	6.70670720003545	6.70670720003545	6.70670720003545	6.70670720003545	6.70670720003545	6.70670720003545	6.70670720003545	6.70670720003545	6.70670720003545	6.70670720003545	6.70670720003545	6.70670720003545	6.70670720003545	6.70670720003545	6.70670720003545	6.70670720003545	6.70670720003545	6.70670720003545	6.70670720003545	6.70670720003545	0.0145343999611214	7.352131200023	8.93100380001124	8.88555380003527	"[-0.22083333333333333, -0.11333333333333333]"	"[-0.34833333333333333, -0.37166666666666665]"	"[1, 0]"	"[0, 0]"	"[0, 1]"	"[0.3158666000235826, 0.589554600068368]"	4	-100	NA	NA	NA	NA	NA	NA	NA	"01"	"01"	"2023-12-13_13h39.09.972"	"GDT_exp"	"2023.2.2"	"None"	"2023-12-13 13h39.29.297531 +0100"	NA
"dice_3.png"	3	0	3	3	2	8.93100380001124	NA	NA	NA	NA	NA	NA	NA	NA	NA	NA	NA	NA	8.88635409995914	8.93100380001124	8.93100380001124	8.93100380001124	8.93100380001124	8.93100380001124	8.93100380001124	8.93100380001124	8.93100380001124	8.93100380001124	8.93100380001124	8.93100380001124	8.93100380001124	8.93100380001124	8.93100380001124	8.93100380001124	8.93100380001124	8.93100380001124	8.93100380001124	8.93100380001124	8.93100380001124	8.93100380001124	8.93100380001124	8.93100380001124	8.93100380001124	8.93100380001124	0.0119197000749409	9.47521850001067	11.0374132000143	10.9955847000238	"[0.0475, 0.0475]"	"[-0.355, -0.355]"	"[1, 0]"	"[0, 0]"	"[0, 1]"	"[0.3367855000542477, 0.48214229999575764]"	4	100	NA	NA	NA	NA	NA	NA	NA	"01"	"01"	"2023-12-13_13h39.09.972"	"GDT_exp"	"2023.2.2"	"None"	"2023-12-13 13h39.29.297531 +0100"	NA
"dice_4.png"	4	0	4	4	3	11.0374132000143	NA	NA	NA	NA	NA	NA	NA	NA	NA	NA	NA	NA	10.9964406000217	11.0374132000143	11.0374132000143	11.0374132000143	11.0374132000143	11.0374132000143	11.0374132000143	11.0374132000143	11.0374132000143	11.0374132000143	11.0374132000143	11.0374132000143	11.0374132000143	11.0374132000143	11.0374132000143	11.0374132000143	11.0374132000143	11.0374132000143	11.0374132000143	11.0374132000143	11.0374132000143	11.0374132000143	11.0374132000143	11.0374132000143	11.0374132000143	11.0374132000143	0.00844980007968843	11.7468016999774	13.3204436999513	13.2796526999446	"[-0.18833333333333332, -0.16416666666666666]"	"[-0.35, -0.4175]"	"[1, 0]"	"[0, 0]"	"[0, 1]"	"[0.34194359998218715, 0.6492184000089765]"	4	100	NA	NA	NA	NA	NA	NA	NA	"01"	"01"	"2023-12-13_13h39.09.972"	"GDT_exp"	"2023.2.2"	"None"	"2023-12-13 13h39.29.297531 +0100"	NA
"dice_5.png"	5	0	5	5	4	13.3204436999513	NA	NA	NA	NA	NA	NA	NA	NA	NA	NA	NA	NA	13.2804824999766	13.3204436999513	13.3204436999513	13.3204436999513	13.3204436999513	13.3204436999513	13.3204436999513	13.3204436999513	13.3204436999513	13.3204436999513	13.3204436999513	13.3204436999513	13.3204436999513	13.3204436999513	13.3204436999513	13.3204436999513	13.3204436999513	13.3204436999513	13.3204436999513	13.3204436999513	13.3204436999513	13.3204436999513	13.3204436999513	13.3204436999513	13.3204436999513	13.3204436999513	0.00710489996708929	13.8050081999972	15.3729757999536	15.33289900003	"[-0.1975, -0.17333333333333334]"	"[-0.3458333333333333, -0.43416666666666665]"	"[1, 0]"	"[0, 0]"	"[0, 1]"	"[0.1427170999813825, 0.4227401999523863]"	4	100	NA	NA	NA	NA	NA	NA	NA	"01"	"01"	"2023-12-13_13h39.09.972"	"GDT_exp"	"2023.2.2"	"None"	"2023-12-13 13h39.29.297531 +0100"	NA
"dice_3.png"	3	1	0	6	2	15.3729757999536	NA	NA	NA	NA	NA	NA	NA	NA	NA	NA	NA	NA	15.3337181999814	15.3729757999536	15.3729757999536	15.3729757999536	15.3729757999536	15.3729757999536	15.3729757999536	15.3729757999536	15.3729757999536	15.3729757999536	15.3729757999536	15.3729757999536	15.3729757999536	15.3729757999536	15.3729757999536	15.3729757999536	15.3729757999536	15.3729757999536	15.3729757999536	15.3729757999536	15.3729757999536	15.3729757999536	15.3729757999536	15.3729757999536	15.3729757999536	15.3729757999536	0.00699050002731382	16.091987599968	17.6778238000115	17.6270090999315	"[0.065, 0.08583333333333333]"	"[-0.35333333333333333, -0.42833333333333334]"	"[1, 0]"	"[0, 0]"	"[0, 1]"	"[0.3394721000222489, 0.6405516000231728]"	4	100	NA	NA	NA	NA	NA	NA	NA	"01"	"01"	"2023-12-13_13h39.09.972"	"GDT_exp"	"2023.2.2"	"None"	"2023-12-13 13h39.29.297531 +0100"	NA
"dice_6.png"	6	1	1	7	5	17.6778238000115	NA	NA	NA	NA	NA	NA	NA	NA	NA	NA	NA	NA	17.6281978000188	17.6778238000115	17.6778238000115	17.6778238000115	17.6778238000115	17.6778238000115	17.6778238000115	17.6778238000115	17.6778238000115	17.6778238000115	17.6778238000115	17.6778238000115	17.6778238000115	17.6778238000115	17.6778238000115	17.6778238000115	17.6778238000115	17.6778238000115	17.6778238000115	17.6778238000115	17.6778238000115	17.6778238000115	17.6778238000115	17.6778238000115	17.6778238000115	17.6778238000115	0.0143763000378385	18.3932286000345	19.9324278000277	19.899730999954	"[-0.19833333333333333, -0.1475]"	"[-0.3575, -0.44416666666666665]"	"[1, 0]"	"[0, 0]"	"[0, 1]"	"[0.33777929993811995, 0.6566409999504685]"	4	-100	NA	NA	NA	NA	NA	NA	NA	"01"	"01"	"2023-12-13_13h39.09.972"	"GDT_exp"	"2023.2.2"	"None"	"2023-12-13 13h39.29.297531 +0100"	NA
"dice_4.png"	4	1	2	8	3	19.9324278000277	NA	NA	NA	NA	NA	NA	NA	NA	NA	NA	NA	NA	19.9003826000262	19.9324278000277	19.9324278000277	19.9324278000277	19.9324278000277	19.9324278000277	19.9324278000277	19.9324278000277	19.9324278000277	19.9324278000277	19.9324278000277	19.9324278000277	19.9324278000277	19.9324278000277	19.9324278000277	19.9324278000277	19.9324278000277	19.9324278000277	19.9324278000277	19.9324278000277	19.9324278000277	19.9324278000277	19.9324278000277	19.9324278000277	19.9324278000277	19.9324278000277	0.00559670000802725	20.6608742999379	22.2066245999886	22.1734927999787	"[-0.2683333333333333, -0.20666666666666667]"	"[-0.355, -0.42916666666666664]"	"[1, 0]"	"[0, 0]"	"[0, 1]"	"[0.3689140999922529, 0.673240500036627]"	4	100	NA	NA	NA	NA	NA	NA	NA	"01"	"01"	"2023-12-13_13h39.09.972"	"GDT_exp"	"2023.2.2"	"None"	"2023-12-13 13h39.29.297531 +0100"	NA
"dice_1.png"	1	1	3	9	0	22.2066245999886	NA	NA	NA	NA	NA	NA	NA	NA	NA	NA	NA	NA	22.1741932999576	22.2066245999886	22.2066245999886	22.2066245999886	22.2066245999886	22.2066245999886	22.2066245999886	22.2066245999886	22.2066245999886	22.2066245999886	22.2066245999886	22.2066245999886	22.2066245999886	22.2066245999886	22.2066245999886	22.2066245999886	22.2066245999886	22.2066245999886	22.2066245999886	22.2066245999886	22.2066245999886	22.2066245999886	22.2066245999886	22.2066245999886	22.2066245999886	22.2066245999886	0.00582239998038858	22.723594799987	24.266876699985	24.2322939999867	"[-0.07583333333333334, -0.060833333333333336]"	"[-0.26166666666666666, -0.305]"	"[1, 0]"	"[0, 0]"	"[0, 1]"	"[0.2379854000173509, 0.4664450000273064]"	3	-200	NA	NA	NA	NA	NA	NA	NA	"01"	"01"	"2023-12-13_13h39.09.972"	"GDT_exp"	"2023.2.2"	"None"	"2023-12-13 13h39.29.297531 +0100"	NA
"dice_5.png"	5	1	4	10	4	24.266876699985	NA	NA	NA	NA	NA	NA	NA	NA	NA	NA	NA	NA	24.2329833999975	24.266876699985	24.266876699985	24.266876699985	24.266876699985	24.266876699985	24.266876699985	24.266876699985	24.266876699985	24.266876699985	24.266876699985	24.266876699985	24.266876699985	24.266876699985	24.266876699985	24.266876699985	24.266876699985	24.266876699985	24.266876699985	24.266876699985	24.266876699985	24.266876699985	24.266876699985	24.266876699985	24.266876699985	24.266876699985	0.00589839997701346	24.8151149000041	26.3888083000202	26.3418749999255	"[0.05583333333333333, 0.08833333333333333]"	"[-0.1575, -0.22166666666666668]"	"[1, 0]"	"[0, 0]"	"[0, 1]"	"[0.2247565999859944, 0.49414800002705306]"	2	500	NA	NA	NA	NA	NA	NA	NA	"01"	"01"	"2023-12-13_13h39.09.972"	"GDT_exp"	"2023.2.2"	"None"	"2023-12-13 13h39.29.297531 +0100"	NA
"dice_2.png"	2	1	5	11	1	26.3888083000202	NA	NA	NA	NA	NA	NA	NA	NA	NA	NA	NA	NA	26.342564099934	26.3888083000202	26.3888083000202	26.3888083000202	26.3888083000202	26.3888083000202	26.3888083000202	26.3888083000202	26.3888083000202	26.3888083000202	26.3888083000202	26.3888083000202	26.3888083000202	26.3888083000202	26.3888083000202	26.3888083000202	26.3888083000202	26.3888083000202	26.3888083000202	26.3888083000202	26.3888083000202	26.3888083000202	26.3888083000202	26.3888083000202	26.3888083000202	26.3888083000202	0.0173436000477523	27.1244256999344	28.7029073999729	28.6627640000079	"[-0.06666666666666667, -0.06416666666666666]"	"[-0.25, -0.29833333333333334]"	"[1, 0]"	"[0, 0]"	"[0, 1]"	"[0.3432558999629691, 0.6661044999491423]"	3	-200	NA	NA	NA	NA	NA	NA	NA	"01"	"01"	"2023-12-13_13h39.09.972"	"GDT_exp"	"2023.2.2"	"None"	"2023-12-13 13h39.29.297531 +0100"	NA
"dice_6.png"	6	2	0	12	5	28.7029073999729	NA	NA	NA	NA	NA	NA	NA	NA	NA	NA	NA	NA	28.6634676000103	28.7029073999729	28.7029073999729	28.7029073999729	28.7029073999729	28.7029073999729	28.7029073999729	28.7029073999729	28.7029073999729	28.7029073999729	28.7029073999729	28.7029073999729	28.7029073999729	28.7029073999729	28.7029073999729	28.7029073999729	28.7029073999729	28.7029073999729	28.7029073999729	28.7029073999729	28.7029073999729	28.7029073999729	28.7029073999729	28.7029073999729	28.7029073999729	28.7029073999729	0.0111936000175774	29.519359500031	31.0949354999466	31.0593259999296	"[0.15916666666666668, 0.26166666666666666]"	"[-0.0525, -0.22583333333333333]"	"[1, 0]"	"[0, 0]"	"[0, 1]"	"[0.4405942000448704, 0.754104100051336]"	1	1000	NA	NA	NA	NA	NA	NA	NA	"01"	"01"	"2023-12-13_13h39.09.972"	"GDT_exp"	"2023.2.2"	"None"	"2023-12-13 13h39.29.297531 +0100"	NA
"dice_5.png"	5	2	1	13	4	31.0949354999466	NA	NA	NA	NA	NA	NA	NA	NA	NA	NA	NA	NA	31.060058800038	31.0949354999466	31.0949354999466	31.0949354999466	31.0949354999466	31.0949354999466	31.0949354999466	31.0949354999466	31.0949354999466	31.0949354999466	31.0949354999466	31.0949354999466	31.0949354999466	31.0949354999466	31.0949354999466	31.0949354999466	31.0949354999466	31.0949354999466	31.0949354999466	31.0949354999466	31.0949354999466	31.0949354999466	31.0949354999466	31.0949354999466	31.0949354999466	31.0949354999466	0.00621499994304031	31.7148162999656	33.2560211999808	33.2187089000363	"[0.09916666666666667, 0.12083333333333333]"	"[-0.1525, -0.21166666666666667]"	"[1, 0]"	"[0, 0]"	"[0, 1]"	"[0.2531678999075666, 0.5536294999765232]"	2	500	NA	NA	NA	NA	NA	NA	NA	"01"	"01"	"2023-12-13_13h39.09.972"	"GDT_exp"	"2023.2.2"	"None"	"2023-12-13 13h39.29.297531 +0100"	NA
"dice_2.png"	2	2	2	14	1	33.2560211999808	NA	NA	NA	NA	NA	NA	NA	NA	NA	NA	NA	NA	33.2194666999858	33.2560211999808	33.2560211999808	33.2560211999808	33.2560211999808	33.2560211999808	33.2560211999808	33.2560211999808	33.2560211999808	33.2560211999808	33.2560211999808	33.2560211999808	33.2560211999808	33.2560211999808	33.2560211999808	33.2560211999808	33.2560211999808	33.2560211999808	33.2560211999808	33.2560211999808	33.2560211999808	33.2560211999808	33.2560211999808	33.2560211999808	33.2560211999808	33.2560211999808	0.0064771999605	33.980390499928	35.5352341999533	35.4990489999764	"[0.11416666666666667, 0.12416666666666666]"	"[-0.14583333333333334, -0.20666666666666667]"	"[1, 0]"	"[0, 0]"	"[0, 1]"	"[0.3575548999942839, 0.6620321999071166]"	2	-500	NA	NA	NA	NA	NA	NA	NA	"01"	"01"	"2023-12-13_13h39.09.972"	"GDT_exp"	"2023.2.2"	"None"	"2023-12-13 13h39.29.297531 +0100"	NA
"dice_4.png"	4	2	3	15	3	35.5352341999533	NA	NA	NA	NA	NA	NA	NA	NA	NA	NA	NA	NA	35.4998254999518	35.5352341999533	35.5352341999533	35.5352341999533	35.5352341999533	35.5352341999533	35.5352341999533	35.5352341999533	35.5352341999533	35.5352341999533	35.5352341999533	35.5352341999533	35.5352341999533	35.5352341999533	35.5352341999533	35.5352341999533	35.5352341999533	35.5352341999533	35.5352341999533	35.5352341999533	35.5352341999533	35.5352341999533	35.5352341999533	35.5352341999533	35.5352341999533	35.5352341999533	0.0068811000091955	36.1745307999663	37.7633122999687	37.7215182000073	"[-0.04416666666666667, 0.08]"	"[-0.24416666666666667, -0.26916666666666667]"	"[1, 0]"	"[0, 0]"	"[0, 1]"	"[0.28388560004532337, 0.5833539000013843]"	3	200	NA	NA	NA	NA	NA	NA	NA	"01"	"01"	"2023-12-13_13h39.09.972"	"GDT_exp"	"2023.2.2"	"None"	"2023-12-13 13h39.29.297531 +0100"	NA
"dice_1.png"	1	2	4	16	0	37.7633122999687	NA	NA	NA	NA	NA	NA	NA	NA	NA	NA	NA	NA	37.7223661999451	37.7633122999687	37.7633122999687	37.7633122999687	37.7633122999687	37.7633122999687	37.7633122999687	37.7633122999687	37.7633122999687	37.7633122999687	37.7633122999687	37.7633122999687	37.7633122999687	37.7633122999687	37.7633122999687	37.7633122999687	37.7633122999687	37.7633122999687	37.7633122999687	37.7633122999687	37.7633122999687	37.7633122999687	37.7633122999687	37.7633122999687	37.7633122999687	37.7633122999687	0.00753339997027069	38.9816067999927	40.5627244999632	40.5177890999475	"[-0.15916666666666668, -0.08]"	"[-0.03166666666666667, -0.13583333333333333]"	"[1, 0]"	"[0, 0]"	"[0, 1]"	"[0.8482818000484258, 1.1469596000388265]"	1	-1000	NA	NA	NA	NA	NA	NA	NA	"01"	"01"	"2023-12-13_13h39.09.972"	"GDT_exp"	"2023.2.2"	"None"	"2023-12-13 13h39.29.297531 +0100"	NA
"dice_3.png"	3	2	5	17	2	40.5627244999632	NA	NA	NA	NA	NA	NA	NA	NA	NA	NA	NA	NA	40.5186853000196	40.5627244999632	40.5627244999632	40.5627244999632	40.5627244999632	40.5627244999632	40.5627244999632	40.5627244999632	40.5627244999632	40.5627244999632	40.5627244999632	40.5627244999632	40.5627244999632	40.5627244999632	40.5627244999632	40.5627244999632	40.5627244999632	40.5627244999632	40.5627244999632	40.5627244999632	40.5627244999632	40.5627244999632	40.5627244999632	40.5627244999632	40.5627244999632	40.5627244999632	0.00764800002798438	41.41786149994	42.9268660999369	42.9211296000285	"[-0.44333333333333336, -0.405]"	"[-0.041666666666666664, -0.11416666666666667]"	"[1, 0]"	"[0, 0]"	"[0, 1]"	"[0.46242279990110546, 0.786456499947235]"	1	-1000	NA	NA	NA	NA	NA	NA	NA	"01"	"01"	"2023-12-13_13h39.09.972"	"GDT_exp"	"2023.2.2"	"None"	"2023-12-13 13h39.29.297531 +0100"	NA
NA	NA	NA	NA	NA	NA	NA	NA	NA	NA	NA	NA	NA	NA	NA	NA	NA	NA	NA	NA	NA	NA	NA	NA	NA	NA	NA	NA	NA	NA	NA	NA	NA	NA	NA	NA	NA	NA	NA	NA	NA	NA	NA	NA	NA	NA	NA	NA	NA	NA	NA	NA	NA	NA	NA	NA	NA	42.9218599000014	42.9268660999369	42.9268660999369	45.6769953999901	"space"	2.74899439990986	"None"	"01"	"01"	"2023-12-13_13h39.09.972"	"GDT_exp"	"2023.2.2"	"None"	"2023-12-13 13h39.29.297531 +0100"	NA
