image	max_pumps	pump_loop.thisRepN	pump_loop.thisTrialN	pump_loop.thisN	pump_loop.thisIndex	thisRow.t	notes	Start.started	text_start.started	continue_start.started	mouse_start.started	Start.stopped	mouse_start.x	mouse_start.y	mouse_start.leftButton	mouse_start.midButton	mouse_start.rightButton	mouse_start.time	trials.started	stim_balloon.started	stim_balloon_burst.started	stim_balloon_burst.stopped	text_ballon_value.started	text_bank.started	mouse.started	sound_bang.started	sound_bang.stopped	button_balloon.started	trials.stopped	n_pumps	earnings	popped	mouse.x	mouse.y	mouse.leftButton	mouse.midButton	mouse.rightButton	mouse.time	button_balloon.numClicks	button_balloon.timesOn	button_balloon.timesOff	Feedback.started	text_feedback.started	Feedback.stopped	text_feedback.stopped	End.started	text_end.started	key_end.started	End.stopped	key_end.keys	key_end.rt	key_end.duration	participant	session	date	expName	psychopyVersion	frameRate	expStart	
								0.036443799999688054	0.04750879999846802	0.04750879999846802	0.03676379999888013	257.36628439999913	[0.7916666666666666]	[-0.39444444444444443]	[1]	[0]	[0]	[257.32891720000043]																																			18	03	2024-02-08_15h23.01.113	BART_exp	2023.2.3	119.96967166476657	2024-02-08 15h23.16.584040 +0100	
balloon.png	49	0	0	0	11	257.44064269999944													257.37376159999985	257.44064269999944	257.44064269999944	257.44064269999944	257.44064269999944	257.44064269999944	0.009198499999911292	0.009198499999911292	0.009198499999911292	257.44064269999944	266.651301599999	30	1.50	False	"[0.037037037037037035, 0.037037037037037035, 0.037037037037037035, 0.037037037037037035, 0.037037037037037035, 0.037037037037037035, 0.037037037037037035, 0.037037037037037035, 0.037037037037037035, 0.037037037037037035, 0.037037037037037035, 0.037037037037037035, 0.037037037037037035, 0.037037037037037035, 0.037037037037037035, 0.037037037037037035, 0.037037037037037035, 0.037037037037037035, 0.037037037037037035, 0.037037037037037035, 0.037037037037037035, 0.037037037037037035, 0.037037037037037035, 0.037037037037037035, 0.037037037037037035, 0.037037037037037035, 0.037037037037037035, 0.037037037037037035, 0.037037037037037035, 0.037037037037037035, 0.08981481481481482]"	"[-0.38055555555555554, -0.38055555555555554, -0.38055555555555554, -0.38055555555555554, -0.38055555555555554, -0.38055555555555554, -0.38055555555555554, -0.38055555555555554, -0.38055555555555554, -0.38055555555555554, -0.38055555555555554, -0.38055555555555554, -0.38055555555555554, -0.38055555555555554, -0.38055555555555554, -0.38055555555555554, -0.38055555555555554, -0.38055555555555554, -0.38055555555555554, -0.38055555555555554, -0.38055555555555554, -0.38055555555555554, -0.38055555555555554, -0.38055555555555554, -0.38055555555555554, -0.38055555555555554, -0.38055555555555554, -0.38055555555555554, -0.38055555555555554, -0.38055555555555554, -0.20925925925925926]"	"[1, 1, 1, 1, 1, 1, 1, 1, 1, 1, 1, 1, 1, 1, 1, 1, 1, 1, 1, 1, 1, 1, 1, 1, 1, 1, 1, 1, 1, 1, 0]"	"[0, 0, 0, 0, 0, 0, 0, 0, 0, 0, 0, 0, 0, 0, 0, 0, 0, 0, 0, 0, 0, 0, 0, 0, 0, 0, 0, 0, 0, 0, 0]"	"[0, 0, 0, 0, 0, 0, 0, 0, 0, 0, 0, 0, 0, 0, 0, 0, 0, 0, 0, 0, 0, 0, 0, 0, 0, 0, 0, 0, 0, 0, 1]"	"[2.0509994000021834, 2.242657800001325, 2.450999000000593, 2.634326000003057, 2.842677000000549, 3.359579100000701, 3.551476000000548, 3.7345620000014605, 3.9430253000027733, 4.517954900002223, 4.692970200001582, 4.867946300000767, 5.059476100002939, 5.251286100003199, 5.459643300000607, 5.659818100000848, 5.868080600001122, 6.093099100002291, 6.301422800002911, 6.493084000001545, 6.684764100002212, 6.876424000001862, 7.07646410000234, 7.284907600002043, 7.493326600000728, 7.684855600000446, 7.876512500002718, 8.093234900003154, 8.309938300000795, 8.609759300001315, 9.276604400001816]"	30	"[1.99729379999917, 2.1889719999999215, 2.3972924999980023, 2.5806251999965752, 2.788975199997367, 3.305872899996757, 3.4977760999972816, 3.6808577999981935, 3.88931969999976, 4.464249199998449, 4.6392697999981465, 4.814238699997077, 5.005767899998318, 5.197580499996548, 5.405942099998356, 5.606114499998512, 5.81438199999684, 6.03939790000004, 6.247722499996598, 6.439383799999632, 6.631056499998522, 6.822720499996649, 7.022756899998058, 7.231202299997676, 7.439622699999745, 7.63115199999811, 7.822810399997252, 8.039529499998025, 8.256233499996597, 8.556055399996694]"	"[2.0971596999988833, 2.280486599996948, 2.4721343999990495, 2.6555386, 2.9471808999987843, 3.3889045999967493, 3.5972196999973676, 3.7723273999981757, 3.9972722999991674, 4.547282999999879, 4.747376599996642, 4.922301199996582, 5.1139718999984325, 5.305672299997241, 5.5056731999975455, 5.722358099999838, 5.905720899998414, 6.147454499998275, 6.35573409999779, 6.555763499996829, 6.747412499997154, 6.947510899997724, 7.139138499998808, 7.339133800000127, 7.522546099997271, 7.739329499996529, 7.930843799997092, 8.147537599998032, 8.372548699997424, 8.664331999996648]"	266.6529440999984	266.6663133999973	268.15811570000005									18	03	2024-02-08_15h23.01.113	BART_exp	2023.2.3	119.96967166476657	2024-02-08 15h23.16.584040 +0100	
balloon.png	18	0	1	1	4	268.1747250999979													268.1583131999978	268.1747250999979	268.1747250999979	268.1747250999979	268.1747250999979	268.1747250999979	0.006731599998602178	0.006731599998602178	0.006731599998602178	268.1747250999979	272.4102998999988	19	0.90	True	"[0.040740740740740744, 0.040740740740740744, 0.040740740740740744, 0.040740740740740744, 0.040740740740740744, 0.040740740740740744, 0.040740740740740744, 0.040740740740740744, 0.040740740740740744, 0.040740740740740744, 0.040740740740740744, 0.040740740740740744, 0.040740740740740744, 0.040740740740740744, 0.040740740740740744, 0.040740740740740744, 0.040740740740740744, 0.040740740740740744, 0.040740740740740744]"	"[-0.3962962962962963, -0.3962962962962963, -0.3962962962962963, -0.3962962962962963, -0.3962962962962963, -0.3962962962962963, -0.3962962962962963, -0.3962962962962963, -0.3962962962962963, -0.3962962962962963, -0.3962962962962963, -0.3962962962962963, -0.3962962962962963, -0.3962962962962963, -0.3962962962962963, -0.3962962962962963, -0.3962962962962963, -0.3962962962962963, -0.3962962962962963]"	"[1, 1, 1, 1, 1, 1, 1, 1, 1, 1, 1, 1, 1, 1, 1, 1, 1, 1, 1]"	"[0, 0, 0, 0, 0, 0, 0, 0, 0, 0, 0, 0, 0, 0, 0, 0, 0, 0, 0]"	"[0, 0, 0, 0, 0, 0, 0, 0, 0, 0, 0, 0, 0, 0, 0, 0, 0, 0, 0]"	"[0.5006632000004174, 0.6672275000018999, 0.8506067000016628, 1.0434089000009408, 1.2254519000016444, 1.4171258999995189, 1.6005294999995385, 1.8007007999985944, 1.9755213999997068, 2.167357300000731, 2.3672126999990724, 2.559048099999927, 2.742445799998677, 2.9423973000011756, 3.150626300001022, 3.350770699998975, 3.5674523999987287, 3.792318499999965, 4.075826000000234]"	19	"[0.49188970000250265, 0.6584496000032232, 0.8418326999999408, 1.034815000002709, 1.2166709000011906, 1.408343099999911, 1.591753200002131, 1.791921000000002, 1.9667442999998457, 2.158578700000362, 2.3584284000025946, 2.55026700000235, 2.733667800002877, 2.933615500001906, 3.141845900001499, 3.3419896000013978, 3.5586790000015753, 3.783542300003319, 4.067050600002403]"	"[0.5914840000004915, 0.7915032000018982, 0.9581650000000081, 1.1415145999999368, 1.3165339000006497, 1.5167516000001342, 1.70826500000112, 1.9082503999998153, 2.0833008000008704, 2.2916433999998844, 2.474935900001583, 2.691627200001676, 2.841723400000774, 3.058379200003401, 3.2666591000015615, 3.4750207000033697, 3.708405800000037, 3.9333833000018785, 4.233410200002254]"	272.4112284999974	272.4250084999985	273.91681649999737									18	03	2024-02-08_15h23.01.113	BART_exp	2023.2.3	119.96967166476657	2024-02-08 15h23.16.584040 +0100	
balloon.png	53	0	2	2	12	273.9334783999984													273.9169914999984	273.9334783999984	273.9334783999984	273.9334783999984	273.9334783999984	273.9334783999984	0.007046499998978106	0.007046499998978106	0.007046499998978106	273.9334783999984	276.76852569999755	10	0.50	False	"[0.040740740740740744, 0.040740740740740744, 0.040740740740740744, 0.040740740740740744, 0.040740740740740744, 0.040740740740740744, 0.040740740740740744, 0.040740740740740744, 0.040740740740740744, 0.040740740740740744, 0.012962962962962963]"	"[-0.3962962962962963, -0.3962962962962963, -0.3962962962962963, -0.3962962962962963, -0.3962962962962963, -0.3962962962962963, -0.3962962962962963, -0.3962962962962963, -0.3962962962962963, -0.3962962962962963, -0.20833333333333334]"	"[1, 1, 1, 1, 1, 1, 1, 1, 1, 1, 0]"	"[0, 0, 0, 0, 0, 0, 0, 0, 0, 0, 0]"	"[0, 0, 0, 0, 0, 0, 0, 0, 0, 0, 1]"	"[0.21718279999913648, 0.4173064000024169, 0.6505458999999973, 0.8339551999997639, 1.0172287999994296, 1.2510174000017287, 1.467227200002526, 1.7007039000018267, 1.925757799999701, 2.159091100002115, 2.8506493999993836]"	10	"[0.2069788000007975, 0.40711740000188, 0.6403479000000516, 0.8237456999995629, 1.0070159000024432, 1.2409833999990951, 1.4570194000007177, 1.6904959000021336, 1.9155492999998387, 2.1488804000000528]"	"[0.3317854000015359, 0.5318960000004154, 0.7401331000000937, 0.9484783000007155, 1.1403419000016584, 1.3569210999994539, 1.5903023999999277, 1.8318962000012107, 2.0486081000017293, 2.282007199999498]"	276.7692442999978	276.77531579999777	278.26728659999935	278.2838054999993								18	03	2024-02-08_15h23.01.113	BART_exp	2023.2.3	119.96967166476657	2024-02-08 15h23.16.584040 +0100	
balloon.png	75	0	3	3	17	278.2838054999993													278.2674568000002	278.2838054999993	278.2838054999993	278.2838054999993	278.2838054999993	278.2838054999993	-0.0005759000014222693	-0.0005759000014222693	-0.0005759000014222693	278.2838054999993	283.76073469999756	20	1.00	False	"[0.020370370370370372, 0.020370370370370372, 0.020370370370370372, 0.020370370370370372, 0.020370370370370372, 0.020370370370370372, 0.020370370370370372, 0.020370370370370372, 0.020370370370370372, 0.020370370370370372, 0.020370370370370372, 0.020370370370370372, 0.020370370370370372, 0.020370370370370372, 0.020370370370370372, 0.020370370370370372, 0.020370370370370372, 0.020370370370370372, 0.020370370370370372, 0.020370370370370372, 0.01574074074074074]"	"[-0.3824074074074074, -0.3824074074074074, -0.3824074074074074, -0.3824074074074074, -0.3824074074074074, -0.3824074074074074, -0.3824074074074074, -0.3824074074074074, -0.3824074074074074, -0.3824074074074074, -0.3824074074074074, -0.3824074074074074, -0.3824074074074074, -0.3824074074074074, -0.3824074074074074, -0.3824074074074074, -0.3824074074074074, -0.3824074074074074, -0.3824074074074074, -0.3824074074074074, -0.20277777777777778]"	"[1, 1, 1, 1, 1, 1, 1, 1, 1, 1, 1, 1, 1, 1, 1, 1, 1, 1, 1, 1, 0]"	"[0, 0, 0, 0, 0, 0, 0, 0, 0, 0, 0, 0, 0, 0, 0, 0, 0, 0, 0, 0, 0]"	"[0, 0, 0, 0, 0, 0, 0, 0, 0, 0, 0, 0, 0, 0, 0, 0, 0, 0, 0, 0, 1]"	"[0.3253067000005103, 0.5003739000021596, 0.6670005000014498, 0.8836736000012024, 1.0837098000010883, 1.3004142999998294, 1.5003993999998784, 1.6753907999991497, 1.8754583000009006, 2.1254334000004746, 2.317152499999793, 2.517141000000265, 2.7171396000012464, 2.9422921000004862, 3.1423207000007096, 3.333848099999159, 3.517223200000444, 3.925550200001453, 4.159087200001522, 4.559149200002139, 5.492365300000529]"	20	"[0.31514700000116136, 0.49020220000238623, 0.656836199999816, 0.8735051000003295, 1.073542100002669, 1.2902436000003945, 1.490228599999682, 1.6652203000012378, 1.865293400001974, 2.1152638000021398, 2.306984700000612, 2.5069719000020996, 2.7069695000027423, 2.932122900001559, 3.1321511000023747, 3.323675900002854, 3.5070539000007557, 3.9153807000002416, 4.1489209000028495, 4.5489885000024515]"	"[0.39002760000221315, 0.581708300000173, 0.7817107000009855, 0.9816936000024725, 1.2150374000011652, 1.39839540000321, 1.5817812000022968, 1.7817508000007365, 2.015106900002138, 2.223468000000139, 2.4486019000032684, 2.6318454000029305, 2.8152356000027794, 3.04018730000098, 3.2485164000027, 3.4405146000026434, 3.8069405000023835, 4.040271000001667, 4.265270500000042, 4.815309300000081]"	283.7616672000004	283.7674709999992	285.25953129999834	285.2759131999992								18	03	2024-02-08_15h23.01.113	BART_exp	2023.2.3	119.96967166476657	2024-02-08 15h23.16.584040 +0100	
balloon.png	62	0	4	4	14	285.2759131999992													285.2597148999994	285.2759131999992	285.2759131999992	285.2759131999992	285.2759131999992	285.2759131999992	-0.0006949999988137279	-0.0006949999988137279	-0.0006949999988137279	285.2759131999992	291.44486549999783	20	1.00	False	"[0.023148148148148147, 0.023148148148148147, 0.014814814814814815, 0.014814814814814815, 0.014814814814814815, 0.014814814814814815, 0.014814814814814815, 0.014814814814814815, 0.014814814814814815, 0.014814814814814815, 0.014814814814814815, 0.014814814814814815, 0.014814814814814815, 0.014814814814814815, 0.014814814814814815, 0.014814814814814815, 0.014814814814814815, 0.014814814814814815, 0.014814814814814815, 0.014814814814814815, 0.018518518518518517]"	"[-0.3768518518518518, -0.3768518518518518, -0.38425925925925924, -0.38425925925925924, -0.38425925925925924, -0.38425925925925924, -0.38425925925925924, -0.38425925925925924, -0.38425925925925924, -0.38425925925925924, -0.38425925925925924, -0.38425925925925924, -0.38425925925925924, -0.38425925925925924, -0.38425925925925924, -0.38425925925925924, -0.38425925925925924, -0.38425925925925924, -0.38425925925925924, -0.38425925925925924, -0.26944444444444443]"	"[1, 1, 1, 1, 1, 1, 1, 1, 1, 1, 1, 1, 1, 1, 1, 1, 1, 1, 1, 1, 0]"	"[0, 0, 0, 0, 0, 0, 0, 0, 0, 0, 0, 0, 0, 0, 0, 0, 0, 0, 0, 0, 0]"	"[0, 0, 0, 0, 0, 0, 0, 0, 0, 0, 0, 0, 0, 0, 0, 0, 0, 0, 0, 0, 1]"	"[0.6170675000030315, 0.9420748000011372, 1.89200830000118, 2.091978600001312, 2.2669927999995707, 2.442031800001132, 2.6255074000000604, 2.8088615000015125, 2.992205400001694, 3.167236299999786, 3.359015800000634, 3.5255294000016875, 3.7087573999997403, 3.8837646000029054, 4.083785400001943, 4.250509700003022, 4.450595500002237, 4.6505455000005895, 4.875547400002688, 5.250540600001841, 6.184124800001882]"	20	"[0.6091806000003999, 0.9341812999991816, 1.8841176999994786, 2.0840843000005407, 2.2591013999990537, 2.434138599997823, 2.61761519999709, 2.8009711999984575, 2.984319199997117, 3.159342299997661, 3.351123699998425, 3.517632799997955, 3.700866600000154, 3.8758667999973113, 4.075890000000072, 4.242614200000389, 4.442702299998928, 4.642655899999227, 4.8676644999977725, 5.242650500000309]"	"[0.759019499997521, 1.0588772999981302, 1.9673427999987325, 2.1506227999998373, 2.3256178999981785, 2.52568489999976, 2.725666199999978, 2.9090009999999893, 3.092330600000423, 3.2673477999996976, 3.450729699998192, 3.625735599998734, 3.800727999998344, 3.9674104999976407, 4.167464399997698, 4.350839599999745, 4.550862799998868, 4.750897099998838, 4.975831499999913, 5.350831100000505]"	291.4457833999986	291.4513883999971	292.9433352999986	292.95145330000014								18	03	2024-02-08_15h23.01.113	BART_exp	2023.2.3	119.96967166476657	2024-02-08 15h23.16.584040 +0100	
balloon.png	118	0	5	5	27	292.95145330000014													292.943514999999	292.95145330000014	292.95145330000014	292.95145330000014	292.95145330000014	292.95145330000014	0.005746999999246327	0.005746999999246327	0.005746999999246327	292.95145330000014	300.14514059999783	30	1.50	False	"[0.020370370370370372, 0.020370370370370372, 0.020370370370370372, 0.020370370370370372, 0.020370370370370372, 0.020370370370370372, 0.020370370370370372, 0.020370370370370372, 0.020370370370370372, 0.020370370370370372, 0.020370370370370372, 0.020370370370370372, 0.020370370370370372, 0.020370370370370372, 0.020370370370370372, 0.020370370370370372, 0.020370370370370372, 0.020370370370370372, 0.020370370370370372, 0.020370370370370372, 0.020370370370370372, 0.020370370370370372, 0.020370370370370372, 0.020370370370370372, 0.020370370370370372, 0.020370370370370372, 0.020370370370370372, 0.020370370370370372, 0.020370370370370372, 0.020370370370370372, 0.022222222222222223]"	"[-0.3851851851851852, -0.3851851851851852, -0.3851851851851852, -0.3851851851851852, -0.3851851851851852, -0.3851851851851852, -0.3851851851851852, -0.3851851851851852, -0.3851851851851852, -0.3851851851851852, -0.3851851851851852, -0.3851851851851852, -0.3851851851851852, -0.3851851851851852, -0.3851851851851852, -0.3851851851851852, -0.3851851851851852, -0.3851851851851852, -0.3851851851851852, -0.3851851851851852, -0.3851851851851852, -0.3851851851851852, -0.3851851851851852, -0.3851851851851852, -0.3851851851851852, -0.3851851851851852, -0.3851851851851852, -0.3851851851851852, -0.3851851851851852, -0.3851851851851852, -0.2518518518518518]"	"[1, 1, 1, 1, 1, 1, 1, 1, 1, 1, 1, 1, 1, 1, 1, 1, 1, 1, 1, 1, 1, 1, 1, 1, 1, 1, 1, 1, 1, 1, 0]"	"[0, 0, 0, 0, 0, 0, 0, 0, 0, 0, 0, 0, 0, 0, 0, 0, 0, 0, 0, 0, 0, 0, 0, 0, 0, 0, 0, 0, 0, 0, 0]"	"[0, 0, 0, 0, 0, 0, 0, 0, 0, 0, 0, 0, 0, 0, 0, 0, 0, 0, 0, 0, 0, 0, 0, 0, 0, 0, 0, 0, 0, 0, 1]"	"[0.2421552999985579, 0.4086300000017218, 0.5836722999993071, 0.775402800001757, 0.9586490000001504, 1.125537500000064, 1.317242000000988, 1.4922493000012764, 1.667222000000038, 1.850554500000726, 2.0755743000008806, 2.2589499999994587, 2.4506508000013127, 2.650614800000767, 2.833964500001457, 3.0267855999991298, 3.2088900999988255, 3.3845551000013074, 3.5838427000016964, 3.76722399999926, 3.9505491999989317, 4.559017499999754, 4.742467100000795, 4.942270600000484, 5.142462200001319, 5.358960900000966, 5.567299599999387, 5.975692100000742, 6.267728099999658, 6.709260200001154, 7.200743599998532]"	30	"[0.2402609000018856, 0.4067295999993803, 0.5817697999991651, 0.7735051000017847, 0.9567462999984855, 1.1236405999989074, 1.3153423000003386, 1.4903510000003735, 1.665325699999812, 1.8486593999987235, 2.0736804000007396, 2.2570574000019406, 2.4487532999992254, 2.648720000001049, 2.832087599999795, 3.0250551999997697, 3.2069933000020683, 3.3826552999998967, 3.5819470999995247, 3.7653236000005563, 3.948649900001328, 4.557120800000121, 4.7407196999993175, 4.9403707000019494, 5.140562799999316, 5.357058500001585, 5.565397200000007, 5.973797900001955, 6.265826499999093, 6.70735810000042]"	"[0.3316524000001664, 0.5065785000006144, 0.6816552999989653, 0.8649249000009149, 1.0482840000004217, 1.2316312000002654, 1.3985599000006914, 1.5983650000016496, 1.7817025000003923, 1.956675900000846, 2.173379700001533, 2.356738200000109, 2.556744000001345, 2.748430899999221, 2.9151913999994576, 3.1067511000001105, 3.2984609000013734, 3.4986033999994106, 3.6901754999998957, 3.8901420000001963, 4.056874699999753, 4.665195099998527, 4.8485609000017575, 5.040212100000645, 5.256945900000574, 5.465263300000515, 5.681957000000693, 6.082017000000633, 6.390327199998865, 6.823690500001248]"	300.1463313999993	300.1519552999998	301.64394170000014	301.6604434999972								18	03	2024-02-08_15h23.01.113	BART_exp	2023.2.3	119.96967166476657	2024-02-08 15h23.16.584040 +0100	
balloon.png	27	0	6	6	6	301.6604434999972													301.6441159999995	301.6604434999972	301.6604434999972	301.6604434999972	301.6604434999972	301.6604434999972	-0.0009519999985059258	-0.0009519999985059258	-0.0009519999985059258	301.6604434999972	306.82089449999694	20	1.00	False	"[0.032407407407407406, 0.032407407407407406, 0.032407407407407406, 0.032407407407407406, 0.032407407407407406, 0.032407407407407406, 0.032407407407407406, 0.032407407407407406, 0.032407407407407406, 0.032407407407407406, 0.032407407407407406, 0.032407407407407406, 0.032407407407407406, 0.032407407407407406, 0.032407407407407406, 0.032407407407407406, 0.032407407407407406, 0.032407407407407406, 0.032407407407407406, 0.032407407407407406, 0.027777777777777776]"	"[-0.37037037037037035, -0.37037037037037035, -0.37037037037037035, -0.37037037037037035, -0.37037037037037035, -0.37037037037037035, -0.37037037037037035, -0.37037037037037035, -0.37037037037037035, -0.37037037037037035, -0.37037037037037035, -0.37037037037037035, -0.37037037037037035, -0.37037037037037035, -0.37037037037037035, -0.37037037037037035, -0.37037037037037035, -0.37037037037037035, -0.37037037037037035, -0.37037037037037035, -0.2574074074074074]"	"[1, 1, 1, 1, 1, 1, 1, 1, 1, 1, 1, 1, 1, 1, 1, 1, 1, 1, 1, 1, 0]"	"[0, 0, 0, 0, 0, 0, 0, 0, 0, 0, 0, 0, 0, 0, 0, 0, 0, 0, 0, 0, 0]"	"[0, 0, 0, 0, 0, 0, 0, 0, 0, 0, 0, 0, 0, 0, 0, 0, 0, 0, 0, 0, 1]"	"[0.4254799999980605, 0.6004503999974986, 0.7671633999998448, 0.950480499999685, 1.1256192999971972, 1.3170594999974128, 1.500393799997255, 1.717520299996977, 1.9337125999991258, 2.117252699998062, 2.3423052999969514, 2.5506687999986752, 2.7339130000000296, 2.933999999997468, 3.1339580999992904, 3.3673285999975633, 3.5673322999973607, 3.800695899997663, 4.042353499997262, 4.334113400000206, 5.175848299997597]"	20	"[0.42256019999695127, 0.597529200000281, 0.764244799996959, 0.9475695999972231, 1.1227011999981187, 1.3141352999991796, 1.4974740999969072, 1.714622799998324, 1.9307874999976775, 2.1143325999983063, 2.3393809999979567, 2.547752299997228, 2.7309911999982432, 2.931078499997966, 3.131039099996997, 3.3644101999998384, 3.5644078999976045, 3.7977733999978227, 4.0394442999968305, 4.33118999999715]"	"[0.5138748999997915, 0.7056077999986883, 0.880583399997704, 1.0555733000001055, 1.2305973999973503, 1.4222618999992847, 1.6056332999978622, 1.8556564999998955, 2.0473462999980256, 2.2474673999968218, 2.464030499999353, 2.647396699998353, 2.8557150999986334, 3.0473788999988756, 3.2474117999990995, 3.4808532999995805, 3.6890874999990046, 3.9057821999995213, 4.14751449999676, 4.44751339999857]"	306.8219136999978	306.8275122999985	308.3194036999994	308.3275274999978								18	03	2024-02-08_15h23.01.113	BART_exp	2023.2.3	119.96967166476657	2024-02-08 15h23.16.584040 +0100	
balloon.png	5	0	7	7	1	308.3275274999978													308.31958459999805	308.3275274999978	308.3275274999978	308.3275274999978	308.3275274999978	308.3275274999978	0.005674399999406887	0.005674399999406887	0.005674399999406887	308.3275274999978	309.7461329999969	6	0.25	True	"[0.027777777777777776, 0.027777777777777776, 0.027777777777777776, 0.027777777777777776, 0.027777777777777776, 0.027777777777777776]"	"[-0.4083333333333333, -0.4083333333333333, -0.4083333333333333, -0.4083333333333333, -0.4083333333333333, -0.4083333333333333]"	"[1, 1, 1, 1, 1, 1]"	"[0, 0, 0, 0, 0, 0]"	"[0, 0, 0, 0, 0, 0]"	"[0.38362190000043483, 0.5752829999983078, 0.7503280999990238, 0.9338011999971059, 1.1088227000000188, 1.283871999999974]"	6	"[0.38177689999793074, 0.5734445999987656, 0.7484805999993114, 0.9319550999971398, 1.1069797999989532, 1.282026799999585]"	"[0.4733215999985987, 0.6566395999980159, 0.8399865999999747, 1.015156699999352, 1.2150024999973539, 1.4150531999985105]"	309.74674519999826	309.75265579999905	311.24464669999725	311.26106249999793								18	03	2024-02-08_15h23.01.113	BART_exp	2023.2.3	119.96967166476657	2024-02-08 15h23.16.584040 +0100	
balloon.png	79	0	8	8	18	311.26106249999793													311.24482219999845	311.26106249999793	311.26106249999793	311.26106249999793	311.26106249999793	311.26106249999793	-0.0005447000003186986	-0.0005447000003186986	-0.0005447000003186986	311.26106249999793	316.57169109999813	20	1.00	False	"[0.019444444444444445, 0.019444444444444445, 0.019444444444444445, 0.019444444444444445, 0.019444444444444445, 0.019444444444444445, 0.019444444444444445, 0.019444444444444445, 0.019444444444444445, 0.019444444444444445, 0.019444444444444445, 0.019444444444444445, 0.019444444444444445, 0.019444444444444445, 0.019444444444444445, 0.019444444444444445, 0.019444444444444445, 0.019444444444444445, 0.019444444444444445, 0.019444444444444445, 0.05648148148148148]"	"[-0.41388888888888886, -0.41388888888888886, -0.41388888888888886, -0.41388888888888886, -0.41388888888888886, -0.41388888888888886, -0.41388888888888886, -0.41388888888888886, -0.41388888888888886, -0.41388888888888886, -0.41388888888888886, -0.41388888888888886, -0.41388888888888886, -0.41388888888888886, -0.41388888888888886, -0.41388888888888886, -0.41388888888888886, -0.41388888888888886, -0.41388888888888886, -0.41388888888888886, -0.16203703703703703]"	"[1, 1, 1, 1, 1, 1, 1, 1, 1, 1, 1, 1, 1, 1, 1, 1, 1, 1, 1, 1, 0]"	"[0, 0, 0, 0, 0, 0, 0, 0, 0, 0, 0, 0, 0, 0, 0, 0, 0, 0, 0, 0, 0]"	"[0, 0, 0, 0, 0, 0, 0, 0, 0, 0, 0, 0, 0, 0, 0, 0, 0, 0, 0, 0, 1]"	"[0.3838541000004625, 0.5754914999997709, 0.7838450000017474, 0.9837910999995074, 1.1839928000008513, 1.3755199000006542, 1.5754945000007865, 1.7671799000017927, 1.9588655000006838, 2.4172341999983473, 2.700577300001896, 2.883770500000537, 3.0838481999999203, 3.267171100000269, 3.4338203000006615, 3.583987400001206, 3.7756879000007757, 3.967349300000933, 4.258999900001072, 4.700574099999358, 5.325968100001774]"	20	"[0.3816210000004503, 0.5732472000017879, 0.7816008000008878, 0.9815493000023707, 1.1817513999994844, 1.3732761000028404, 1.573255600000266, 1.7649345999998332, 1.956621000001178, 2.4149992000020575, 2.6983375000017986, 2.8815302000002703, 3.0816018000004988, 3.264925999999832, 3.4315776000003098, 3.5817461000006006, 3.773457600000256, 3.9651106000019354, 4.2567568000013125, 4.698333399999683]"	"[0.4645593999994162, 0.6646815999993123, 0.8979161999995995, 1.0895975999992515, 1.2812532000025385, 1.4812901000004786, 1.6812793999997666, 1.8646518999994441, 2.0646344000015233, 2.514690399999381, 2.806504300002416, 2.9897321999997075, 3.1813987999994424, 3.389730300001247, 3.531415900000866, 3.6897917999995116, 3.889877699999488, 4.056467900001735, 4.348153099999763, 4.789907800000947]"	316.572609699997	316.5781143999993	318.0700861999976	318.07821820000026								18	03	2024-02-08_15h23.01.113	BART_exp	2023.2.3	119.96967166476657	2024-02-08 15h23.16.584040 +0100	
balloon.png	110	0	9	9	25	318.07821820000026													318.07026079999923	318.07821820000026	318.07821820000026	318.07821820000026	318.07821820000026	318.07821820000026	0.005668000001605833	0.005668000001605833	0.005668000001605833	318.07821820000026	323.1553267999989	20	1.00	False	"[0.032407407407407406, 0.032407407407407406, 0.032407407407407406, 0.032407407407407406, 0.032407407407407406, 0.032407407407407406, 0.032407407407407406, 0.032407407407407406, 0.032407407407407406, 0.032407407407407406, 0.032407407407407406, 0.032407407407407406, 0.032407407407407406, 0.032407407407407406, 0.032407407407407406, 0.032407407407407406, 0.032407407407407406, 0.032407407407407406, 0.032407407407407406, 0.032407407407407406, 0.025]"	"[-0.3787037037037037, -0.3787037037037037, -0.3787037037037037, -0.3787037037037037, -0.3787037037037037, -0.3787037037037037, -0.3787037037037037, -0.3787037037037037, -0.3787037037037037, -0.3787037037037037, -0.3787037037037037, -0.3787037037037037, -0.3787037037037037, -0.3787037037037037, -0.3787037037037037, -0.3787037037037037, -0.3787037037037037, -0.3787037037037037, -0.3787037037037037, -0.3787037037037037, -0.1962962962962963]"	"[1, 1, 1, 1, 1, 1, 1, 1, 1, 1, 1, 1, 1, 1, 1, 1, 1, 1, 1, 1, 0]"	"[0, 0, 0, 0, 0, 0, 0, 0, 0, 0, 0, 0, 0, 0, 0, 0, 0, 0, 0, 0, 0]"	"[0, 0, 0, 0, 0, 0, 0, 0, 0, 0, 0, 0, 0, 0, 0, 0, 0, 0, 0, 0, 1]"	"[0.2671699999991688, 0.4503676999993331, 0.6419633000004978, 0.8253285999999207, 1.0086650999983249, 1.2170111000014003, 1.3837303000000247, 1.5838637999986531, 1.8337390000015148, 2.033748599998944, 2.2170654000001377, 2.4504898999985016, 2.6504367999987153, 2.8421292999992147, 3.042163599999185, 3.258936599999288, 3.4756420999983675, 3.717358999998396, 3.9590322000003653, 4.383933500001149, 5.084135400000378]"	20	"[0.26534539999920526, 0.4485187999998743, 0.6401138000001083, 0.8234749000002921, 1.006817299999966, 1.2151623999998264, 1.3818772000013269, 1.5820192999999563, 1.831887700001971, 2.0319017000001622, 2.215215399999579, 2.448648300000059, 2.648580699999002, 2.8402788000021246, 3.040308700001333, 3.2570832000019436, 3.473789300001954, 3.7155067999992752, 3.957183599999553, 4.3820845000009285]"	"[0.37328229999911855, 0.5568792000012763, 0.7316504000009445, 0.9316633000016736, 1.1150065000001632, 1.3150811000014073, 1.506776099999115, 1.7067175000011048, 1.9317584999989776, 2.1401102000018, 2.3484510999987833, 2.5484716999999364, 2.756778099999792, 2.9484578000010515, 3.173508399999264, 3.4068277000005764, 3.6068329000008816, 3.83187910000197, 4.065219899999647, 4.456942799999524]"	323.15622710000025	323.16190859999915	324.65386659999785	324.67034449999846								18	03	2024-02-08_15h23.01.113	BART_exp	2023.2.3	119.96967166476657	2024-02-08 15h23.16.584040 +0100	
balloon.png	97	0	10	10	22	324.67034449999846													324.65404019999914	324.67034449999846	324.67034449999846	324.67034449999846	324.67034449999846	324.67034449999846	-0.0009420999995199963	-0.0009420999995199963	-0.0009420999995199963	324.67034449999846	327.6388120999982	10	0.50	False	"[0.026851851851851852, 0.026851851851851852, 0.026851851851851852, 0.026851851851851852, 0.026851851851851852, 0.026851851851851852, 0.026851851851851852, 0.026851851851851852, 0.026851851851851852, 0.026851851851851852, 0.03611111111111111]"	"[-0.37777777777777777, -0.37777777777777777, -0.37777777777777777, -0.37777777777777777, -0.37777777777777777, -0.37777777777777777, -0.37777777777777777, -0.37777777777777777, -0.37777777777777777, -0.37777777777777777, -0.13703703703703704]"	"[1, 1, 1, 1, 1, 1, 1, 1, 1, 1, 0]"	"[0, 0, 0, 0, 0, 0, 0, 0, 0, 0, 0]"	"[0, 0, 0, 0, 0, 0, 0, 0, 0, 0, 1]"	"[0.43385050000142655, 0.6086824000012712, 0.8003983000016888, 0.9672371000015119, 1.133881100002327, 1.3089208000019426, 1.49234240000078, 1.6837508000025991, 1.8839474000014889, 2.1589821000015945, 2.98389170000155]"	10	"[0.4303068000008352, 0.6051324000000022, 0.7968536000007589, 0.9636895000003278, 1.1303368999979284, 1.3053729999992356, 1.4887925000002724, 1.6802052999992156, 1.8803977999996278, 2.155439199999819]"	"[0.5049875000004249, 0.6967643999996653, 0.8800408999995852, 1.0550354000006337, 1.238484099998459, 1.421962500000518, 1.5883845999996993, 1.7717663000003085, 1.9884617999996408, 2.2551039999998466]"	327.6395886999999	327.6455814999972	329.13759779999964	329.1540408000001								18	03	2024-02-08_15h23.01.113	BART_exp	2023.2.3	119.96967166476657	2024-02-08 15h23.16.584040 +0100	
balloon.png	57	0	11	11	13	329.1540408000001													329.13778009999805	329.1540408000001	329.1540408000001	329.1540408000001	329.1540408000001	329.1540408000001	-0.00044720000005327165	-0.00044720000005327165	-0.00044720000005327165	329.1540408000001	334.56444360000023	20	1.00	False	"[0.012037037037037037, 0.012037037037037037, 0.012037037037037037, 0.012037037037037037, 0.012037037037037037, 0.012037037037037037, 0.012037037037037037, 0.012037037037037037, 0.012037037037037037, 0.012037037037037037, 0.012037037037037037, 0.012037037037037037, 0.012037037037037037, 0.012037037037037037, 0.012037037037037037, 0.012037037037037037, 0.012037037037037037, 0.012037037037037037, 0.012037037037037037, 0.012037037037037037, 0.040740740740740744]"	"[-0.39351851851851855, -0.39351851851851855, -0.39351851851851855, -0.39351851851851855, -0.39351851851851855, -0.39351851851851855, -0.39351851851851855, -0.39351851851851855, -0.39351851851851855, -0.39351851851851855, -0.39351851851851855, -0.39351851851851855, -0.39351851851851855, -0.39351851851851855, -0.39351851851851855, -0.39351851851851855, -0.39351851851851855, -0.39351851851851855, -0.39351851851851855, -0.39351851851851855, -0.13240740740740742]"	"[1, 1, 1, 1, 1, 1, 1, 1, 1, 1, 1, 1, 1, 1, 1, 1, 1, 1, 1, 1, 0]"	"[0, 0, 0, 0, 0, 0, 0, 0, 0, 0, 0, 0, 0, 0, 0, 0, 0, 0, 0, 0, 0]"	"[0, 0, 0, 0, 0, 0, 0, 0, 0, 0, 0, 0, 0, 0, 0, 0, 0, 0, 0, 0, 1]"	"[0.6670729999968898, 0.8420681999996305, 1.0255575999981374, 1.2171856999993906, 1.392171799998323, 1.6087818999985757, 1.8004482999967877, 1.9837838999992528, 2.1753248999993957, 2.3838031999985105, 2.5838245999984792, 2.7671758999968006, 2.958744099996693, 3.1504143999991356, 3.3588131999968027, 3.5587614999967627, 3.73378589999993, 3.9421219999967434, 4.234132199999294, 4.642368400000123, 5.425720799998089]"	20	"[0.6573026000005484, 0.832291399998212, 1.0157773999999336, 1.207407300000341, 1.3823984999980894, 1.5989994000010483, 1.7906669999974838, 1.9740075999980036, 2.165542299997469, 2.374019999999291, 2.5740428999997675, 2.757398199999443, 2.9489642000007734, 3.1406338999986474, 3.3490290000008827, 3.5489785999998276, 3.724001499998849, 3.9323444000001473, 4.224358899999061, 4.6325897999995505]"	"[0.7569612999977835, 0.9319938999979058, 1.0987448999985645, 1.3153228999981366, 1.4986712999998417, 1.7070247999981802, 1.8987192999993567, 2.090385299998161, 2.2737478999988525, 2.4835824000001594, 2.6821143999986816, 2.8655094999994617, 3.065465799998492, 3.2489199999981793, 3.4405407999984163, 3.6322417999981553, 3.8155441999988398, 4.007201199998235, 4.323894999997719, 4.723983500000031]"	334.5655010999981	334.57104459999755	336.0630745999988	336.0795178999979								18	03	2024-02-08_15h23.01.113	BART_exp	2023.2.3	119.96967166476657	2024-02-08 15h23.16.584040 +0100	
balloon.png	123	0	12	12	28	336.0795178999979													336.0632552999996	336.0795178999979	336.0795178999979	336.0795178999979	336.0795178999979	336.0795178999979	-0.0009803000029933173	-0.0009803000029933173	-0.0009803000029933173	336.0795178999979	343.4565307999983	30	1.50	False	"[0.01574074074074074, 0.01574074074074074, 0.014814814814814815, 0.014814814814814815, 0.014814814814814815, 0.014814814814814815, 0.014814814814814815, 0.013888888888888888, 0.013888888888888888, 0.013888888888888888, 0.013888888888888888, 0.013888888888888888, 0.013888888888888888, 0.013888888888888888, 0.013888888888888888, 0.013888888888888888, 0.013888888888888888, 0.013888888888888888, 0.013888888888888888, 0.013888888888888888, 0.013888888888888888, 0.013888888888888888, 0.013888888888888888, 0.013888888888888888, 0.013888888888888888, 0.013888888888888888, 0.013888888888888888, 0.013888888888888888, 0.013888888888888888, 0.013888888888888888, 0.011111111111111112]"	"[-0.38055555555555554, -0.38055555555555554, -0.3814814814814815, -0.3814814814814815, -0.3814814814814815, -0.3814814814814815, -0.3814814814814815, -0.3814814814814815, -0.3814814814814815, -0.3814814814814815, -0.3814814814814815, -0.3814814814814815, -0.3814814814814815, -0.3814814814814815, -0.3814814814814815, -0.3814814814814815, -0.3814814814814815, -0.3814814814814815, -0.3814814814814815, -0.3814814814814815, -0.3814814814814815, -0.3814814814814815, -0.3814814814814815, -0.3814814814814815, -0.3814814814814815, -0.3814814814814815, -0.3814814814814815, -0.3814814814814815, -0.3814814814814815, -0.3814814814814815, -0.25462962962962965]"	"[1, 1, 1, 1, 1, 1, 1, 1, 1, 1, 1, 1, 1, 1, 1, 1, 1, 1, 1, 1, 1, 1, 1, 1, 1, 1, 1, 1, 1, 1, 0]"	"[0, 0, 0, 0, 0, 0, 0, 0, 0, 0, 0, 0, 0, 0, 0, 0, 0, 0, 0, 0, 0, 0, 0, 0, 0, 0, 0, 0, 0, 0, 0]"	"[0, 0, 0, 0, 0, 0, 0, 0, 0, 0, 0, 0, 0, 0, 0, 0, 0, 0, 0, 0, 0, 0, 0, 0, 0, 0, 0, 0, 0, 0, 1]"	"[0.29225940000105766, 0.4587166999990586, 0.650606200000766, 0.8503907999984222, 1.042069300001458, 1.2503520999998727, 1.4839863999986846, 1.6671740999991016, 1.858668500000931, 2.0336881000002904, 2.2253587000013795, 2.417046399998071, 2.6087305000000924, 2.8171167000000423, 3.025457200001256, 3.242227999999159, 3.4589143000011973, 3.683940499999153, 3.909050499998557, 4.142314000000624, 4.350536800000555, 4.558866299998044, 4.767224999999598, 4.983898200000112, 5.192250699998112, 5.409042899998894, 5.834109100000205, 6.15070360000027, 6.3840366000004, 6.792430900000909, 7.392372099999193]"	29	"[0.28785680000146385, 0.4543074000030174, 0.6461926000010862, 0.8459761000012804, 1.0376545000035549, 1.4795855000011215, 1.6627662000028067, 1.8459579000009398, 2.029275900000357, 2.220947800000431, 2.412635800003045, 2.604320500002359, 2.8127070000009553, 3.0210479000015766, 3.2378182000029483, 3.4545042000027024, 3.679530800000066, 3.904638600000908, 4.13790230000086, 4.346122900002229, 4.55447550000099, 4.762816700000258, 4.979485800002294, 5.187838900001225, 5.404633200003445, 5.82969950000188, 6.146289500000421, 6.379625900000974, 6.7880165000024135]"	"[0.3540623000008054, 0.5540994000002684, 0.7373775000014575, 0.9207084000008763, 1.3624169000031543, 1.5874885000012, 1.7708281000013812, 1.9457941000000574, 2.1374954000020807, 2.3041453000005276, 2.51249850000022, 2.7125062000013713, 2.920880000001489, 3.1458768000011332, 3.3708903000006103, 3.5792971000009857, 3.804277200000797, 4.020966700001736, 4.2459357000007, 4.462637200002064, 4.662639300000592, 4.871091300003172, 5.0876583000026585, 5.296037000000069, 5.512708700000076, 5.929469600003358, 6.254422200003319, 6.496178900000814, 6.887814800000342]"	343.457714199998	343.4633741999969	344.95529669999814	344.980112199999								18	03	2024-02-08_15h23.01.113	BART_exp	2023.2.3	119.96967166476657	2024-02-08 15h23.16.584040 +0100	
balloon.png	10	0	13	13	2	344.980112199999													344.9554742	344.980112199999	344.980112199999	344.980112199999	344.980112199999	344.980112199999	-0.0005578000018431339	-0.0005578000018431339	-0.0005578000018431339	344.980112199999	347.2738204999987	11	0.50	True	"[0.011111111111111112, 0.011111111111111112, 0.011111111111111112, 0.011111111111111112, 0.011111111111111112, 0.011111111111111112, 0.011111111111111112, 0.011111111111111112, 0.011111111111111112, 0.011111111111111112, 0.011111111111111112]"	"[-0.38333333333333336, -0.38333333333333336, -0.38333333333333336, -0.38333333333333336, -0.38333333333333336, -0.38333333333333336, -0.38333333333333336, -0.38333333333333336, -0.38333333333333336, -0.38333333333333336, -0.38333333333333336]"	"[1, 1, 1, 1, 1, 1, 1, 1, 1, 1, 1]"	"[0, 0, 0, 0, 0, 0, 0, 0, 0, 0, 0]"	"[0, 0, 0, 0, 0, 0, 0, 0, 0, 0, 0]"	"[0.3003145000002405, 0.46699400000215974, 0.6669963000022108, 0.8505077000008896, 1.0338976999992155, 1.2422737000015331, 1.4421225000005506, 1.6339009000002989, 1.817356399998971, 2.008975600001577, 2.1922745000010764]"	11	"[0.2886959999996179, 0.455374799999845, 0.6553741999996419, 0.8388868000001821, 1.022279000000708, 1.2306595999980345, 1.4305045999972208, 1.6222797999980685, 1.805741099997249, 1.9973589000001084, 2.1806543999991845]"	"[0.3635381999993115, 0.565130399998452, 0.7553412999986904, 0.9385746999978437, 1.1302571999985958, 1.3303166000005149, 1.5302885999990394, 1.7136422000003222, 1.913644899999781, 2.1136710999999195, 2.2970179000003554]"	347.2745438999991	347.28028169999743	348.7722912999998	348.7887159999991								18	03	2024-02-08_15h23.01.113	BART_exp	2023.2.3	119.96967166476657	2024-02-08 15h23.16.584040 +0100	
balloon.png	101	0	14	14	23	348.7887159999991													348.77247290000014	348.7887159999991	348.7887159999991	348.7887159999991	348.7887159999991	348.7887159999991	-0.0006681999984721188	-0.0006681999984721188	-0.0006681999984721188	348.7887159999991	356.4074566999989	30	1.50	False	"[0.004629629629629629, 0.004629629629629629, 0.004629629629629629, 0.004629629629629629, 0.004629629629629629, 0.004629629629629629, 0.004629629629629629, 0.004629629629629629, 0.004629629629629629, 0.004629629629629629, 0.004629629629629629, 0.004629629629629629, 0.004629629629629629, 0.004629629629629629, 0.004629629629629629, 0.004629629629629629, 0.004629629629629629, 0.004629629629629629, 0.004629629629629629, 0.004629629629629629, 0.004629629629629629, 0.004629629629629629, 0.004629629629629629, 0.004629629629629629, 0.004629629629629629, 0.004629629629629629, 0.004629629629629629, 0.004629629629629629, 0.004629629629629629, 0.004629629629629629, 0.07037037037037037]"	"[-0.39444444444444443, -0.39444444444444443, -0.39444444444444443, -0.39444444444444443, -0.39444444444444443, -0.39444444444444443, -0.39444444444444443, -0.39444444444444443, -0.39444444444444443, -0.39444444444444443, -0.39444444444444443, -0.39444444444444443, -0.39444444444444443, -0.39444444444444443, -0.39444444444444443, -0.39444444444444443, -0.39444444444444443, -0.39444444444444443, -0.39444444444444443, -0.39444444444444443, -0.39444444444444443, -0.39444444444444443, -0.39444444444444443, -0.39444444444444443, -0.39444444444444443, -0.39444444444444443, -0.39444444444444443, -0.39444444444444443, -0.39444444444444443, -0.39444444444444443, -0.1787037037037037]"	"[1, 1, 1, 1, 1, 1, 1, 1, 1, 1, 1, 1, 1, 1, 1, 1, 1, 1, 1, 1, 1, 1, 1, 1, 1, 1, 1, 1, 1, 1, 0]"	"[0, 0, 0, 0, 0, 0, 0, 0, 0, 0, 0, 0, 0, 0, 0, 0, 0, 0, 0, 0, 0, 0, 0, 0, 0, 0, 0, 0, 0, 0, 0]"	"[0, 0, 0, 0, 0, 0, 0, 0, 0, 0, 0, 0, 0, 0, 0, 0, 0, 0, 0, 0, 0, 0, 0, 0, 0, 0, 0, 0, 0, 0, 1]"	"[0.308583499998349, 0.45859740000014426, 0.6420417999979691, 0.8419313999984297, 1.0254409999979543, 1.2088316999979725, 1.4004849000011745, 1.5838074999992386, 1.800494200000685, 2.0005103000003146, 2.2420711999984633, 2.4421598999979324, 2.625940099998843, 2.8255767000009655, 3.0256020999986504, 3.225450900001306, 3.4838534999980766, 3.6755081999981485, 3.883898299998691, 4.108858899999177, 4.333993100000953, 4.850590400001238, 5.033931900001335, 5.225738500001171, 5.409085799998138, 5.592427399998996, 5.809105799999088, 6.025633299999754, 6.3675101000008, 6.9006990999987465, 7.634062699999049]"	30	"[0.30387079999854905, 0.45389159999831463, 0.637331499998254, 0.8372146000001521, 1.0207311999984086, 1.2041160999979184, 1.395773599997483, 1.5790958999969007, 1.7957790999971621, 1.9957976999976381, 2.237354899996717, 2.437446899999486, 2.6212301999985357, 2.8208653000001505, 3.0209021999980905, 3.2207354999991367, 3.479142599997431, 3.670791599997756, 3.879187099999399, 4.104155999997602, 4.329276699998445, 4.845872799996869, 5.029215099999419, 5.2210289999966335, 5.404371799999353, 5.587711899999704, 5.80438989999675, 6.020926299999701, 6.362795499997446, 6.895983399997931]"	"[0.36203549999845563, 0.5620503999998618, 0.7454334999965795, 0.9370795999966504, 1.1204876999981934, 1.3037991999990481, 1.5121252999997523, 1.695453299998917, 1.9037949999983539, 2.112224199998309, 2.3288500999988173, 2.5455574999978126, 2.753946499997255, 2.9538924999978917, 3.145637199999328, 3.3539443999979994, 3.5872580999966885, 3.7957478999996965, 4.00396279999768, 4.228973899997072, 4.4456446999975014, 4.937361699998291, 5.1290344999979425, 5.3207321999980195, 5.512412299998687, 5.720730599998205, 5.93745829999898, 6.162606699999742, 6.487466599999607, 6.9958563999971375]"	356.4085393999994	356.41424299999926	357.9062438999972	357.93103319999864								18	03	2024-02-08_15h23.01.113	BART_exp	2023.2.3	119.96967166476657	2024-02-08 15h23.16.584040 +0100	
balloon.png	66	0	15	15	15	357.93103319999864													357.9064163999974	357.93103319999864	357.93103319999864	357.93103319999864	357.93103319999864	357.93103319999864	-0.0008797999980743043	-0.0008797999980743043	-0.0008797999980743043	357.93103319999864	363.3415193000001	20	1.00	False	"[0.019444444444444445, 0.019444444444444445, 0.019444444444444445, 0.019444444444444445, 0.019444444444444445, 0.019444444444444445, 0.019444444444444445, 0.019444444444444445, 0.019444444444444445, 0.019444444444444445, 0.019444444444444445, 0.019444444444444445, 0.019444444444444445, 0.019444444444444445, 0.019444444444444445, 0.019444444444444445, 0.019444444444444445, 0.019444444444444445, 0.019444444444444445, 0.019444444444444445, 0.001851851851851852]"	"[-0.3824074074074074, -0.3824074074074074, -0.3824074074074074, -0.3824074074074074, -0.3824074074074074, -0.3824074074074074, -0.3824074074074074, -0.3824074074074074, -0.3824074074074074, -0.3824074074074074, -0.3824074074074074, -0.3824074074074074, -0.3824074074074074, -0.3824074074074074, -0.3824074074074074, -0.3824074074074074, -0.3824074074074074, -0.3824074074074074, -0.3824074074074074, -0.3824074074074074, -0.225]"	"[1, 1, 1, 1, 1, 1, 1, 1, 1, 1, 1, 1, 1, 1, 1, 1, 1, 1, 1, 1, 0]"	"[0, 0, 0, 0, 0, 0, 0, 0, 0, 0, 0, 0, 0, 0, 0, 0, 0, 0, 0, 0, 0]"	"[0, 0, 0, 0, 0, 0, 0, 0, 0, 0, 0, 0, 0, 0, 0, 0, 0, 0, 0, 0, 1]"	"[0.31695720000061556, 0.4836920000016107, 0.6754633999989892, 0.8505053000008047, 1.033825300000899, 1.208906299998489, 1.4171878999986802, 1.6172451999991608, 1.800758199999109, 2.000632899998891, 2.292096199998923, 2.883805500001472, 3.058994700000767, 3.250643899998977, 3.434045400001196, 3.625706300001184, 3.8354632000009588, 4.034032700001262, 4.6175488000008045, 4.8509449000011955, 5.434195500001806]"	20	"[0.30598689999897033, 0.472719599998527, 0.6644950000008976, 0.8395472000011068, 1.0228518000003533, 1.1979329999994661, 1.4062202999994042, 1.606273000001238, 1.7897864000005939, 1.9896645000007993, 2.281123900000239, 2.8728421999985585, 3.0480252999986988, 3.2396745000005467, 3.4230741999999736, 3.614738299998862, 3.824664700001449, 4.023058200000378, 4.606582899999921, 4.839982299999974]"	"[0.3810100999980932, 0.572586099999171, 0.7642138000010164, 0.9560090000013588, 1.1392296999983955, 1.3142244000009669, 1.5145002999997814, 1.7142940999983693, 1.8976436000011745, 2.0976306999982626, 2.3476754000002984, 2.9477526000009675, 3.1393858999981603, 3.33938549999948, 3.531169099998806, 3.722740099998191, 3.9310956000008446, 4.131110999998782, 4.722888000000239, 4.947991299999558]"	363.3426765999975	363.34808899999916	364.84006489999956	364.8565318000001								18	03	2024-02-08_15h23.01.113	BART_exp	2023.2.3	119.96967166476657	2024-02-08 15h23.16.584040 +0100	
balloon.png	40	0	16	16	9	364.8565318000001													364.84023949999755	364.8565318000001	364.8565318000001	364.8565318000001	364.8565318000001	364.8565318000001	0.013918799999373732	0.013918799999373732	0.013918799999373732	364.8565318000001	369.7585779999972	20	1.00	False	"[0.012037037037037037, 0.012037037037037037, 0.012037037037037037, 0.012037037037037037, 0.012037037037037037, 0.012037037037037037, 0.012037037037037037, 0.012037037037037037, 0.012037037037037037, 0.012037037037037037, 0.012037037037037037, 0.012037037037037037, 0.012037037037037037, 0.012037037037037037, 0.012037037037037037, 0.012037037037037037, 0.012037037037037037, 0.012037037037037037, 0.012037037037037037, 0.012037037037037037, 0.01574074074074074]"	"[-0.3888888888888889, -0.3888888888888889, -0.3888888888888889, -0.3888888888888889, -0.3888888888888889, -0.3888888888888889, -0.3888888888888889, -0.3888888888888889, -0.3888888888888889, -0.3888888888888889, -0.3888888888888889, -0.3888888888888889, -0.3888888888888889, -0.3888888888888889, -0.3888888888888889, -0.3888888888888889, -0.3888888888888889, -0.3888888888888889, -0.3888888888888889, -0.3888888888888889, -0.22777777777777777]"	"[1, 1, 1, 1, 1, 1, 1, 1, 1, 1, 1, 1, 1, 1, 1, 1, 1, 1, 1, 1, 0]"	"[0, 0, 0, 0, 0, 0, 0, 0, 0, 0, 0, 0, 0, 0, 0, 0, 0, 0, 0, 0, 0]"	"[0, 0, 0, 0, 0, 0, 0, 0, 0, 0, 0, 0, 0, 0, 0, 0, 0, 0, 0, 0, 1]"	"[0.23377120000077412, 0.408628499997576, 0.6086518999982218, 0.8254333000004408, 1.0170030999979645, 1.2170774999976857, 1.4087791999991168, 1.6003911000007065, 1.8005546999993385, 1.9921025000003283, 2.1920825999986846, 2.3754200999974273, 2.5671201000004658, 2.7838824999998906, 2.9504677999975684, 3.1421674999983225, 3.3588404999973136, 3.7090339999995194, 3.933904099998472, 4.28407629999856, 4.91743839999981]"	20	"[0.23190080000131275, 0.40675220000048284, 0.6067760000005364, 0.8235610000010638, 1.0151288000015484, 1.2152026000003389, 1.4069039999994857, 1.5985159999981988, 1.7986797999983537, 1.9902290999998513, 2.1902130999988003, 2.3735434000009263, 2.5652454999981273, 2.782006999997975, 2.9485935000011523, 3.1402933999997913, 3.3569696999984444, 3.707161199999973, 3.9320330999980797, 4.28220599999986]"	"[0.34000770000056946, 0.5316474999999627, 0.7149422000002232, 0.9316378000003169, 1.1149922000004153, 1.2733699999989767, 1.506727600000886, 1.698386699998082, 1.8983785999989777, 2.098399499998777, 2.290123800001311, 2.490277299999434, 2.6734156999991683, 2.873496199998044, 3.0567860000010114, 3.240178299998661, 3.4401456999985385, 3.8068683999990753, 4.065193999998883, 4.423555400000623]"	369.75959539999894	369.7651838999991	371.2572220999973	371.2736688999976								18	03	2024-02-08_15h23.01.113	BART_exp	2023.2.3	119.96967166476657	2024-02-08 15h23.16.584040 +0100	
balloon.png	1	0	17	17	0	371.2736688999976													371.25739279999834	371.2736688999976	371.2736688999976	371.2736688999976	371.2736688999976	371.2736688999976	-0.0009420999995199963	-0.0009420999995199963	-0.0009420999995199963	371.2736688999976	372.15895180000007	2	0.05	True	"[0.018518518518518517, 0.018518518518518517]"	"[-0.39351851851851855, -0.39351851851851855]"	"[1, 1]"	"[0, 0]"	"[0, 0]"	"[0.6338278000002902, 0.8004012999990664]"	2	"[0.6239131000002089, 0.7904868000005081]"	"[0.7235413000016706, 0.8819020000009914]"	372.15952919999836	372.16538539999965	373.657355299998	373.6737945999994								18	03	2024-02-08_15h23.01.113	BART_exp	2023.2.3	119.96967166476657	2024-02-08 15h23.16.584040 +0100	
balloon.png	105	0	18	18	24	373.6737945999994													373.65752679999787	373.6737945999994	373.6737945999994	373.6737945999994	373.6737945999994	373.6737945999994	-0.000718100000085542	-0.000718100000085542	-0.000718100000085542	373.6737945999994	381.05224259999886	30	1.50	False	"[0.018518518518518517, 0.018518518518518517, 0.018518518518518517, 0.018518518518518517, 0.018518518518518517, 0.018518518518518517, 0.018518518518518517, 0.018518518518518517, 0.018518518518518517, 0.018518518518518517, 0.018518518518518517, 0.018518518518518517, 0.018518518518518517, 0.018518518518518517, 0.018518518518518517, 0.018518518518518517, 0.018518518518518517, 0.018518518518518517, 0.018518518518518517, 0.018518518518518517, 0.018518518518518517, 0.018518518518518517, 0.018518518518518517, 0.018518518518518517, 0.018518518518518517, 0.018518518518518517, 0.018518518518518517, 0.018518518518518517, 0.018518518518518517, 0.018518518518518517, 0.023148148148148147]"	"[-0.38981481481481484, -0.38981481481481484, -0.38981481481481484, -0.38981481481481484, -0.38981481481481484, -0.38981481481481484, -0.38981481481481484, -0.38981481481481484, -0.38981481481481484, -0.38981481481481484, -0.38981481481481484, -0.38981481481481484, -0.38981481481481484, -0.38981481481481484, -0.38981481481481484, -0.38981481481481484, -0.38981481481481484, -0.38981481481481484, -0.38981481481481484, -0.38981481481481484, -0.38981481481481484, -0.38981481481481484, -0.38981481481481484, -0.38981481481481484, -0.38981481481481484, -0.38981481481481484, -0.38981481481481484, -0.38981481481481484, -0.38981481481481484, -0.38981481481481484, -0.2574074074074074]"	"[1, 1, 1, 1, 1, 1, 1, 1, 1, 1, 1, 1, 1, 1, 1, 1, 1, 1, 1, 1, 1, 1, 1, 1, 1, 1, 1, 1, 1, 1, 0]"	"[0, 0, 0, 0, 0, 0, 0, 0, 0, 0, 0, 0, 0, 0, 0, 0, 0, 0, 0, 0, 0, 0, 0, 0, 0, 0, 0, 0, 0, 0, 0]"	"[0, 0, 0, 0, 0, 0, 0, 0, 0, 0, 0, 0, 0, 0, 0, 0, 0, 0, 0, 0, 0, 0, 0, 0, 0, 0, 0, 0, 0, 0, 1]"	"[0.4171998999991047, 0.6254776999994647, 0.8171478000003844, 1.0171138000005158, 1.2172816999991483, 1.4088312999992922, 1.6005526000008103, 1.808966299999156, 2.0089192999985244, 2.2005959000016446, 2.4005427999982203, 2.583775600000081, 2.7671703999985766, 2.9505972000006295, 3.1255251000002318, 3.342348199999833, 3.533826599999884, 3.725521899999876, 3.94220679999853, 4.167217700000037, 4.375689100001182, 4.917332799999713, 5.08415800000148, 5.292388099998789, 5.475815000001603, 5.683989299999666, 5.875852900000609, 6.100689200000488, 6.4592437999999675, 6.884206800001266, 7.393601299998409]"	30	"[0.40709370000331546, 0.6153744000002916, 0.8070366000029026, 1.007000200002949, 1.2071762000014132, 1.3987226000026567, 1.5904394000026514, 1.798859500002436, 1.99881550000282, 2.190483900001709, 2.390433300002769, 2.573661100002937, 2.7570550000018557, 2.9404884000032325, 3.115411500002665, 3.332248000002437, 3.5237151000001177, 3.7154132000032405, 3.932099700003164, 4.157109100000525, 4.3655824000015855, 4.907219500000792, 5.074051999999938, 5.282276300000376, 5.465705700000399, 5.673885000000155, 5.865743600003043, 6.090574800000468, 6.449138900003163, 6.874097800002346]"	"[0.556704800001171, 0.7317183000013756, 0.9233830000011949, 1.1235909000024549, 1.323557500003517, 1.5234631000021182, 1.706835900000442, 1.906836000001931, 2.1068029000016395, 2.2901475000035134, 2.473505900001328, 2.6735107000022253, 2.8652031000019633, 3.0403293000017584, 3.231936100000894, 3.4403506000016932, 3.632036300001346, 3.8320006000030844, 4.0319401000015205, 4.256949700000405, 4.473651600001176, 4.998718300001201, 5.182131100002152, 5.390371400000731, 5.565397500002291, 5.7740064000026905, 5.973782500001107, 6.198873400000593, 6.582172000002174, 6.98226490000161]"	381.0533641000002	381.05763659999866	382.54971309999746	382.5661130999979								18	03	2024-02-08_15h23.01.113	BART_exp	2023.2.3	119.96967166476657	2024-02-08 15h23.16.584040 +0100	
balloon.png	92	0	19	19	21	382.5661130999979													382.54989339999884	382.5661130999979	382.5661130999979	382.5661130999979	382.5661130999979	382.5661130999979	0.012821399999666028	0.012821399999666028	0.012821399999666028	382.5661130999979	387.9513604999993	20	1.00	False	"[0.023148148148148147, 0.023148148148148147, 0.023148148148148147, 0.023148148148148147, 0.023148148148148147, 0.023148148148148147, 0.023148148148148147, 0.023148148148148147, 0.023148148148148147, 0.023148148148148147, 0.023148148148148147, 0.023148148148148147, 0.023148148148148147, 0.023148148148148147, 0.023148148148148147, 0.023148148148148147, 0.023148148148148147, 0.023148148148148147, 0.023148148148148147, 0.023148148148148147, 0.019444444444444445]"	"[-0.3675925925925926, -0.3675925925925926, -0.3675925925925926, -0.3675925925925926, -0.3675925925925926, -0.3675925925925926, -0.3675925925925926, -0.3675925925925926, -0.3675925925925926, -0.3675925925925926, -0.3675925925925926, -0.3675925925925926, -0.3675925925925926, -0.3675925925925926, -0.3675925925925926, -0.3675925925925926, -0.3675925925925926, -0.3675925925925926, -0.3675925925925926, -0.3675925925925926, -0.18425925925925926]"	"[1, 1, 1, 1, 1, 1, 1, 1, 1, 1, 1, 1, 1, 1, 1, 1, 1, 1, 1, 1, 0]"	"[0, 0, 0, 0, 0, 0, 0, 0, 0, 0, 0, 0, 0, 0, 0, 0, 0, 0, 0, 0, 0]"	"[0, 0, 0, 0, 0, 0, 0, 0, 0, 0, 0, 0, 0, 0, 0, 0, 0, 0, 0, 0, 1]"	"[0.32540270000026794, 0.5087697000017215, 0.7170858999998018, 0.9005606999999145, 1.1004367999994429, 1.3004049000010127, 1.4837299999999232, 1.7171275000000605, 2.000333899999532, 2.2753419000000576, 2.492006399999809, 2.7421864999996615, 2.958878099998401, 3.167260099999112, 3.367238200000429, 3.6087913000010303, 3.867248300000938, 4.075464599998668, 4.32576070000141, 4.833833100001357, 5.400558199999068]"	20	"[0.3232508000000962, 0.5066197999985889, 0.7149357999987842, 0.8984186999987287, 1.0982836000002862, 1.2982475999997405, 1.481574500001443, 1.7149730999990425, 1.9981813000013062, 2.2731824000002234, 2.4898528000012448, 2.7400339000014355, 2.956734299998061, 3.165104200001224, 3.3650807999983954, 3.6066342999984045, 3.8651076999994984, 4.073308099999849, 4.323608499998954, 4.831674699998985]"	"[0.43955429999914486, 0.6312471999990521, 0.8229547000009916, 1.0146254999999655, 1.2229962999990676, 1.4147130999990623, 1.589649500001542, 1.8646852999991097, 2.114702800001396, 2.381367499998305, 2.5980874999986554, 2.881495099998574, 3.0731750000013562, 3.2814478000000236, 3.523220899998705, 3.7647953999985475, 3.973129499998322, 4.173266599998897, 4.465060899998207, 4.948231099999248]"	387.95242329999746	387.95812769999975	389.45017489999736	389.4666330999971								18	03	2024-02-08_15h23.01.113	BART_exp	2023.2.3	119.96967166476657	2024-02-08 15h23.16.584040 +0100	
balloon.png	23	0	20	20	5	389.4666330999971													389.45035599999756	389.4666330999971	389.4666330999971	389.4666330999971	389.4666330999971	389.4666330999971	-0.0007163999980548397	-0.0007163999980548397	-0.0007163999980548397	389.4666330999971	392.3268285999984	10	0.50	False	"[0.03518518518518519, 0.03518518518518519, 0.03518518518518519, 0.03518518518518519, 0.03518518518518519, 0.03518518518518519, 0.03518518518518519, 0.03518518518518519, 0.03518518518518519, 0.03518518518518519, 0.03333333333333333]"	"[-0.39814814814814814, -0.39814814814814814, -0.39814814814814814, -0.39814814814814814, -0.39814814814814814, -0.39814814814814814, -0.39814814814814814, -0.39814814814814814, -0.39814814814814814, -0.39814814814814814, -0.25833333333333336]"	"[1, 1, 1, 1, 1, 1, 1, 1, 1, 1, 0]"	"[0, 0, 0, 0, 0, 0, 0, 0, 0, 0, 0]"	"[0, 0, 0, 0, 0, 0, 0, 0, 0, 0, 1]"	"[0.37535510000088834, 0.5753643000025477, 0.7671208000028855, 0.95858059999955, 1.1419540000024426, 1.3169952999996895, 1.5086437999998452, 1.692019000001892, 1.9003575000024284, 2.13374400000248, 2.875544300000911]"	10	"[0.3682291000004625, 0.5682364999993297, 0.7599936000005982, 0.9514524000005622, 1.1348279000012553, 1.3098609000007855, 1.5015113000008569, 1.6848893999995198, 1.8932257999986177, 2.1266185999993468]"	"[0.47630759999810834, 0.6929902999982005, 0.8763164000010875, 1.051308300000528, 1.2180321000014374, 1.4015752999985125, 1.593024300000252, 1.7930463999982749, 1.9930715000009513, 2.2347835000000487]"	392.3276103999997	392.33346769999844	393.8254073999997	393.85021389999747								18	03	2024-02-08_15h23.01.113	BART_exp	2023.2.3	119.96967166476657	2024-02-08 15h23.16.584040 +0100	
balloon.png	127	0	21	21	29	393.85021389999747													393.82558269999936	393.85021389999747	393.85021389999747	393.85021389999747	393.85021389999747	393.85021389999747	-0.000769000002037501	-0.000769000002037501	-0.000769000002037501	393.85021389999747	401.42758409999806	30	1.50	False	"[0.03611111111111111, 0.03611111111111111, 0.03611111111111111, 0.03611111111111111, 0.03611111111111111, 0.03611111111111111, 0.03611111111111111, 0.03611111111111111, 0.03611111111111111, 0.03611111111111111, 0.03611111111111111, 0.03611111111111111, 0.03611111111111111, 0.03611111111111111, 0.03611111111111111, 0.03611111111111111, 0.03611111111111111, 0.03611111111111111, 0.03611111111111111, 0.03611111111111111, 0.03611111111111111, 0.03611111111111111, 0.03611111111111111, 0.03611111111111111, 0.03611111111111111, 0.03611111111111111, 0.03611111111111111, 0.03611111111111111, 0.03611111111111111, 0.03611111111111111, 0.025]"	"[-0.38981481481481484, -0.38981481481481484, -0.38981481481481484, -0.38981481481481484, -0.38981481481481484, -0.38981481481481484, -0.38981481481481484, -0.38981481481481484, -0.38981481481481484, -0.38981481481481484, -0.38981481481481484, -0.38981481481481484, -0.38981481481481484, -0.38981481481481484, -0.38981481481481484, -0.38981481481481484, -0.38981481481481484, -0.38981481481481484, -0.38981481481481484, -0.38981481481481484, -0.38981481481481484, -0.38981481481481484, -0.38981481481481484, -0.38981481481481484, -0.38981481481481484, -0.38981481481481484, -0.38981481481481484, -0.38981481481481484, -0.38981481481481484, -0.38981481481481484, -0.23148148148148148]"	"[1, 1, 1, 1, 1, 1, 1, 1, 1, 1, 1, 1, 1, 1, 1, 1, 1, 1, 1, 1, 1, 1, 1, 1, 1, 1, 1, 1, 1, 1, 0]"	"[0, 0, 0, 0, 0, 0, 0, 0, 0, 0, 0, 0, 0, 0, 0, 0, 0, 0, 0, 0, 0, 0, 0, 0, 0, 0, 0, 0, 0, 0, 0]"	"[0, 0, 0, 0, 0, 0, 0, 0, 0, 0, 0, 0, 0, 0, 0, 0, 0, 0, 0, 0, 0, 0, 0, 0, 0, 0, 0, 0, 0, 0, 1]"	"[0.25891970000157016, 0.44220320000022184, 0.6254996999996365, 0.808926400000928, 1.0088279000010516, 1.2088550000007672, 1.4172460000008869, 1.6339068000015686, 1.834011200000532, 2.01729830000113, 2.209140800001478, 2.4089937999997346, 2.5922747000004165, 2.7839486000011675, 2.975489899999957, 3.167169100001047, 3.3840995999998995, 3.625764500000514, 3.8674262999993516, 4.109189400001924, 4.342393999999331, 4.733971300000121, 4.950644000000466, 5.150678400001198, 5.44250269999975, 5.717455599999084, 5.925750900001731, 6.300738300000376, 6.634262999999919, 7.07595450000008, 7.6011159000008774]"	30	"[0.24684120000165422, 0.43012670000098296, 0.6134197999999742, 0.7968443000027037, 0.9967496000026586, 1.1967722000008507, 1.4051644999999553, 1.621831700002076, 1.8219363000025623, 2.0052151000018057, 2.19706270000097, 2.39691760000278, 2.58019670000067, 2.7718681000005745, 2.963407900002494, 3.1550854000015534, 3.37202470000193, 3.6136858999998367, 3.8553456000008737, 4.097109100002854, 4.330312000001868, 4.7218909000002895, 4.938561400002072, 5.138602200000605, 5.4304197000019485, 5.705375000001368, 5.913670900001307, 6.288658200002828, 6.622181900002033, 7.063878300003125]"	"[0.3382973000007041, 0.5298320000001695, 0.7298080000000482, 0.9131479000025138, 1.1131383000029018, 1.3131743000012648, 1.4964969000029669, 1.7299097000031907, 1.921567800000048, 2.113236799999868, 2.3132573000002594, 2.5132556999997178, 2.6967056000030425, 2.8716500000009546, 3.071609400001762, 3.2730202000020654, 3.4883222000025853, 3.7468074999997043, 3.9716914000018733, 4.205018200002087, 4.44672470000296, 4.830118300000322, 5.046765000002779, 5.263478500000929, 5.538448700001027, 5.805183600001328, 6.030245500001911, 6.396867500003282, 6.738705300002039, 7.146895699999732]"	401.4287289999993	401.4340924999997	402.92606469999737	402.9341839999979								18	03	2024-02-08_15h23.01.113	BART_exp	2023.2.3	119.96967166476657	2024-02-08 15h23.16.584040 +0100	
balloon.png	44	0	22	22	10	402.9341839999979													402.92624859999705	402.9341839999979	402.9341839999979	402.9341839999979	402.9341839999979	402.9341839999979	0.005514499996934319	0.005514499996934319	0.005514499996934319	402.9341839999979	408.4863202999986	20	1.00	False	"[0.03333333333333333, 0.03333333333333333, 0.03333333333333333, 0.03333333333333333, 0.03333333333333333, 0.03333333333333333, 0.03333333333333333, 0.03333333333333333, 0.03333333333333333, 0.03333333333333333, 0.03333333333333333, 0.03333333333333333, 0.03333333333333333, 0.03333333333333333, 0.03333333333333333, 0.03333333333333333, 0.03333333333333333, 0.03333333333333333, 0.03333333333333333, 0.03333333333333333, 0.027777777777777776]"	"[-0.38425925925925924, -0.38425925925925924, -0.38425925925925924, -0.38425925925925924, -0.38425925925925924, -0.38425925925925924, -0.38425925925925924, -0.38425925925925924, -0.38425925925925924, -0.38425925925925924, -0.38425925925925924, -0.38425925925925924, -0.38425925925925924, -0.38425925925925924, -0.38425925925925924, -0.38425925925925924, -0.38425925925925924, -0.38425925925925924, -0.38425925925925924, -0.38425925925925924, -0.24722222222222223]"	"[1, 1, 1, 1, 1, 1, 1, 1, 1, 1, 1, 1, 1, 1, 1, 1, 1, 1, 1, 1, 0]"	"[0, 0, 0, 0, 0, 0, 0, 0, 0, 0, 0, 0, 0, 0, 0, 0, 0, 0, 0, 0, 0]"	"[0, 0, 0, 0, 0, 0, 0, 0, 0, 0, 0, 0, 0, 0, 0, 0, 0, 0, 0, 0, 1]"	"[0.8921756999989157, 1.0671787999999651, 1.2503556000010576, 1.4420754999991914, 1.6253978999993706, 1.8087340999991284, 2.017128600000433, 2.217372899998736, 2.400670800001535, 2.6088940000008733, 2.7839777000008326, 3.017189700000017, 3.2172948000006727, 3.458881599999586, 3.6590500000020256, 3.8589233000020613, 4.067568700000265, 4.2756125000014435, 4.492431900001975, 4.858956899999612, 5.559156999999686]"	19	"[0.8903457999986131, 1.0653485000002547, 1.2485195000008389, 1.4402454999981273, 1.623567999999068, 1.8068964999984019, 2.0152978999976767, 2.215548799998942, 2.398840099998779, 2.6070604999986244, 2.782151600000361, 3.0153680999974313, 3.215461299998424, 3.4570457999980135, 3.6572156000001996, 3.857099599998037, 4.065736199998355, 4.265489499997784, 4.490600499997527]"	"[0.9650703000006615, 1.181747799997538, 1.3567173999981605, 1.5484565999977349, 1.7332131000002846, 1.9068215000006603, 2.1151881999976467, 2.3152747999993153, 2.498572599997715, 2.6985021000000415, 2.906887999997707, 3.1235228999976243, 3.3237525999975333, 3.5568937999996706, 3.765225699997245, 3.9652819000002637, 4.18210739999995, 4.39031519999844, 4.965345999997226]"	408.48847000000023	408.50123659999736	409.99305339999773									18	03	2024-02-08_15h23.01.113	BART_exp	2023.2.3	119.96967166476657	2024-02-08 15h23.16.584040 +0100	
balloon.png	36	0	23	23	8	410.00968289999946													409.9932297999985	410.00968289999946	410.00968289999946	410.00968289999946	410.00968289999946	410.00968289999946	0.00602680000156397	0.00602680000156397	0.00602680000156397	410.00968289999946	417.6119962999983	30	1.50	False	"[0.01574074074074074, 0.01574074074074074, 0.01574074074074074, 0.01574074074074074, 0.01574074074074074, 0.01574074074074074, 0.01574074074074074, 0.01574074074074074, 0.01574074074074074, 0.01574074074074074, 0.01574074074074074, 0.01574074074074074, 0.01574074074074074, 0.01574074074074074, 0.01574074074074074, 0.01574074074074074, 0.01574074074074074, 0.01574074074074074, 0.01574074074074074, 0.01574074074074074, 0.01574074074074074, 0.01574074074074074, 0.01574074074074074, 0.01574074074074074, 0.01574074074074074, 0.01574074074074074, 0.01574074074074074, 0.01574074074074074, 0.01574074074074074, 0.01574074074074074, 0.012962962962962963]"	"[-0.3638888888888889, -0.3638888888888889, -0.3638888888888889, -0.3638888888888889, -0.3638888888888889, -0.3638888888888889, -0.3638888888888889, -0.3638888888888889, -0.3638888888888889, -0.3638888888888889, -0.3638888888888889, -0.3638888888888889, -0.3638888888888889, -0.3638888888888889, -0.3638888888888889, -0.3638888888888889, -0.3638888888888889, -0.3638888888888889, -0.3638888888888889, -0.3638888888888889, -0.3638888888888889, -0.3638888888888889, -0.3638888888888889, -0.3638888888888889, -0.3638888888888889, -0.3638888888888889, -0.3638888888888889, -0.3638888888888889, -0.3638888888888889, -0.3638888888888889, -0.1824074074074074]"	"[1, 1, 1, 1, 1, 1, 1, 1, 1, 1, 1, 1, 1, 1, 1, 1, 1, 1, 1, 1, 1, 1, 1, 1, 1, 1, 1, 1, 1, 1, 0]"	"[0, 0, 0, 0, 0, 0, 0, 0, 0, 0, 0, 0, 0, 0, 0, 0, 0, 0, 0, 0, 0, 0, 0, 0, 0, 0, 0, 0, 0, 0, 0]"	"[0, 0, 0, 0, 0, 0, 0, 0, 0, 0, 0, 0, 0, 0, 0, 0, 0, 0, 0, 0, 0, 0, 0, 0, 0, 0, 0, 0, 0, 0, 1]"	"[0.5421994999996969, 0.7256010999990394, 0.9172397000002093, 1.1172170999998343, 1.3090677000000142, 1.5005934000000707, 1.684076899997308, 1.884018599997944, 2.0757648999970115, 2.2591107999978703, 2.4341437999974005, 2.6508204999990994, 2.884079399998882, 3.0925384999973176, 3.3257306999985303, 3.5424351999972714, 3.7341017999970063, 3.950750699998025, 4.159134899997298, 4.359207099998457, 4.559125799998583, 5.025979499998357, 5.201214099997742, 5.4176674999980605, 5.642886999998154, 5.851045299998077, 6.059391899998445, 6.267744099997799, 6.626096500000131, 7.076056599998992, 7.617880399997375]"	30	"[0.537978700001986, 0.7213856000016676, 0.9130207000016526, 1.112999500001024, 1.3048476000003575, 1.4963774000025296, 1.6798525000012887, 1.8797945000005711, 2.071542900001077, 2.2548862000003282, 2.429926800003159, 2.646603299999697, 2.879858200001763, 3.0883177000032447, 3.3215110000019195, 3.5382177000028605, 3.7298826000005647, 3.946532300000399, 4.154912800000602, 4.354984300000069, 4.554901400002564, 5.021764799999801, 5.196994800000539, 5.41344670000035, 5.638671600001544, 5.846823800002312, 6.055176200003189, 6.263525300000765, 6.621879199999967, 7.071840200002043]"	"[0.6211363000002166, 0.829513800003042, 1.012850700000854, 1.1878606999998738, 1.3961905000032857, 1.5878831000009086, 1.7880297000010614, 1.9713799000019208, 2.1713151000003563, 2.3630060000032245, 2.5546966000001703, 2.762958200000867, 2.9796413000003668, 3.196317400001135, 3.4213557000002766, 3.629700800000137, 3.8380272000031255, 4.054704900001525, 4.254762700002175, 4.438075800000661, 4.663144900001498, 5.121466100001271, 5.329886800001987, 5.5548852000029, 5.754917700000078, 5.9548427000008815, 6.154961500000354, 6.371559600000182, 6.738221999999951, 7.1717572000015934]"	417.6130860999983	417.6185525000001	419.110514699998	419.11871789999714								18	03	2024-02-08_15h23.01.113	BART_exp	2023.2.3	119.96967166476657	2024-02-08 15h23.16.584040 +0100	
balloon.png	31	0	24	24	7	419.11871789999714													419.11068469999736	419.11871789999714	419.11871789999714	419.11871789999714	419.11871789999714	419.11871789999714	0.005693499999324558	0.005693499999324558	0.005693499999324558	419.11871789999714	424.6791430999983	20	1.00	False	"[0.011111111111111112, 0.011111111111111112, 0.011111111111111112, 0.011111111111111112, 0.011111111111111112, 0.011111111111111112, 0.011111111111111112, 0.011111111111111112, 0.011111111111111112, 0.011111111111111112, 0.011111111111111112, 0.011111111111111112, 0.011111111111111112, 0.011111111111111112, 0.011111111111111112, 0.011111111111111112, 0.011111111111111112, 0.011111111111111112, 0.011111111111111112, 0.011111111111111112, 0.011111111111111112]"	"[-0.38333333333333336, -0.38333333333333336, -0.38333333333333336, -0.38333333333333336, -0.38333333333333336, -0.38333333333333336, -0.38333333333333336, -0.38333333333333336, -0.38333333333333336, -0.38333333333333336, -0.38333333333333336, -0.38333333333333336, -0.38333333333333336, -0.38333333333333336, -0.38333333333333336, -0.38333333333333336, -0.38333333333333336, -0.38333333333333336, -0.38333333333333336, -0.38333333333333336, -0.18981481481481483]"	"[1, 1, 1, 1, 1, 1, 1, 1, 1, 1, 1, 1, 1, 1, 1, 1, 1, 1, 1, 1, 0]"	"[0, 0, 0, 0, 0, 0, 0, 0, 0, 0, 0, 0, 0, 0, 0, 0, 0, 0, 0, 0, 0]"	"[0, 0, 0, 0, 0, 0, 0, 0, 0, 0, 0, 0, 0, 0, 0, 0, 0, 0, 0, 0, 1]"	"[0.525536799999827, 0.7338815000002796, 0.9505596000017249, 1.1589449999992212, 1.3422449999998207, 1.5256121000020357, 1.7172740999994858, 1.942308800000319, 2.1339822000009008, 2.417157899999438, 2.633842300001561, 2.8421866000026057, 3.042330399999628, 3.242427000001044, 3.442363699999987, 3.667383500000142, 3.892569100000401, 4.125756900000852, 4.459195300001738, 4.884190799999487, 5.567513900001359]"	20	"[0.5236779999977443, 0.7320242999994662, 0.9486988999997266, 1.1570885999972234, 1.3403880999976536, 1.5237594999998691, 1.7154133999974874, 1.9404531000000134, 2.1321309999984805, 2.4152997999990475, 2.6319857999988017, 2.8403344999969704, 3.04047289999653, 3.240567499997269, 3.4405105999976513, 3.6655264999972133, 3.89071359999798, 4.123899099999107, 4.457337899999402, 4.882332099998166]"	"[0.6400082000000111, 0.8401391999977932, 1.0316923999998835, 1.240125899999839, 1.4567618999972183, 1.63179129999844, 1.8234705999966536, 2.006812399999035, 2.2069265999998606, 2.5151931999971566, 2.715210599999409, 2.9485081999991962, 3.148543299997982, 3.35686579999674, 3.573658199999045, 3.790398399996775, 3.9986983999988297, 4.248596599998564, 4.573611199997686, 4.998669999997219]"	424.6800626999975	424.68573919999835	426.1777828999984	426.19419579999885								18	03	2024-02-08_15h23.01.113	BART_exp	2023.2.3	119.96967166476657	2024-02-08 15h23.16.584040 +0100	
balloon.png	114	0	25	25	26	426.19419579999885													426.1779647999974	426.19419579999885	426.19419579999885	426.19419579999885	426.19419579999885	426.19419579999885	-0.0008030000026337802	-0.0008030000026337802	-0.0008030000026337802	426.19419579999885	431.546075299997	20	1.00	False	"[0.021296296296296296, 0.021296296296296296, 0.021296296296296296, 0.021296296296296296, 0.021296296296296296, 0.021296296296296296, 0.021296296296296296, 0.021296296296296296, 0.021296296296296296, 0.021296296296296296, 0.021296296296296296, 0.021296296296296296, 0.021296296296296296, 0.021296296296296296, 0.021296296296296296, 0.021296296296296296, 0.021296296296296296, 0.021296296296296296, 0.021296296296296296, 0.021296296296296296, 0.026851851851851852]"	"[-0.3824074074074074, -0.3824074074074074, -0.3824074074074074, -0.3824074074074074, -0.3824074074074074, -0.3824074074074074, -0.3824074074074074, -0.3824074074074074, -0.3824074074074074, -0.3824074074074074, -0.3824074074074074, -0.3824074074074074, -0.3824074074074074, -0.3824074074074074, -0.3824074074074074, -0.3824074074074074, -0.3824074074074074, -0.3824074074074074, -0.3824074074074074, -0.3824074074074074, -0.19537037037037036]"	"[1, 1, 1, 1, 1, 1, 1, 1, 1, 1, 1, 1, 1, 1, 1, 1, 1, 1, 1, 1, 0]"	"[0, 0, 0, 0, 0, 0, 0, 0, 0, 0, 0, 0, 0, 0, 0, 0, 0, 0, 0, 0, 0]"	"[0, 0, 0, 0, 0, 0, 0, 0, 0, 0, 0, 0, 0, 0, 0, 0, 0, 0, 0, 0, 1]"	"[0.383744899998419, 0.5501820999998017, 0.7585636000003433, 0.9602847999994992, 1.1585549999981595, 1.3585678999988886, 1.5752734999987297, 1.7753068999991228, 1.966990299999452, 2.425483899998653, 2.6255170999975235, 2.867180900000676, 3.067173899999034, 3.275579999997717, 3.4755614999994577, 3.683746099999553, 3.8756014999999024, 4.075440199998411, 4.483988500000123, 4.808975299998565, 5.367162799997459]"	20	"[0.37430119999771705, 0.5407341999998607, 0.7491205999976955, 0.9510024999981397, 1.1491079999977956, 1.3491174999981013, 1.56583049999972, 1.765859699997236, 1.9575436999984959, 2.416035700000066, 2.616069299998344, 2.8577337999995507, 3.05772799999977, 3.2661458000002312, 3.466116499999771, 3.6743016000000353, 3.866158099997847, 4.065996199999063, 4.474545599998237, 4.7995259999988775]"	"[0.4655734999978449, 0.657255800000712, 0.857277699997212, 1.0572809999976016, 1.257331000000704, 1.4573543999977119, 1.6573666000003868, 1.8573778999998467, 2.0740661999989243, 2.5073764999979176, 2.7157836999977008, 2.949090199999773, 3.165773000000627, 3.382437399999617, 3.5741065999973216, 3.765828600000532, 3.965853399997286, 4.1658504999977595, 4.557510299997375, 4.907535300000745]"	431.54701289999866	431.55285979999826	433.04487869999866	433.0613287999986								18	03	2024-02-08_15h23.01.113	BART_exp	2023.2.3	119.96967166476657	2024-02-08 15h23.16.584040 +0100	
balloon.png	84	0	26	26	19	433.0613287999986													433.0450512999996	433.0613287999986	433.0613287999986	433.0613287999986	433.0613287999986	433.0613287999986	-0.0007144999981392175	-0.0007144999981392175	-0.0007144999981392175	433.0613287999986	438.8466155999995	20	1.00	False	"[0.020370370370370372, 0.020370370370370372, 0.020370370370370372, 0.020370370370370372, 0.020370370370370372, 0.020370370370370372, 0.020370370370370372, 0.020370370370370372, 0.020370370370370372, 0.020370370370370372, 0.020370370370370372, 0.020370370370370372, 0.020370370370370372, 0.020370370370370372, 0.020370370370370372, 0.020370370370370372, 0.020370370370370372, 0.020370370370370372, 0.020370370370370372, 0.020370370370370372, 0.011111111111111112]"	"[-0.3824074074074074, -0.3824074074074074, -0.3824074074074074, -0.3824074074074074, -0.3824074074074074, -0.3824074074074074, -0.3824074074074074, -0.3824074074074074, -0.3824074074074074, -0.3824074074074074, -0.3824074074074074, -0.3824074074074074, -0.3824074074074074, -0.3824074074074074, -0.3824074074074074, -0.3824074074074074, -0.3824074074074074, -0.3824074074074074, -0.3824074074074074, -0.3824074074074074, -0.1712962962962963]"	"[1, 1, 1, 1, 1, 1, 1, 1, 1, 1, 1, 1, 1, 1, 1, 1, 1, 1, 1, 1, 0]"	"[0, 0, 0, 0, 0, 0, 0, 0, 0, 0, 0, 0, 0, 0, 0, 0, 0, 0, 0, 0, 0]"	"[0, 0, 0, 0, 0, 0, 0, 0, 0, 0, 0, 0, 0, 0, 0, 0, 0, 0, 0, 0, 1]"	"[0.7922178000007989, 0.9922874000003503, 1.2005081000024802, 1.4172017000018968, 1.6420937000002596, 1.8172739000001457, 2.033754600000975, 2.225417900001048, 2.417110500002309, 2.600628800002596, 2.817129000002751, 3.033843600002001, 3.242151100002957, 3.4338348000019323, 3.642209300000104, 3.8422456000007514, 4.067253700002766, 4.250571900000068, 4.683923800002958, 4.959276900000987, 5.800681500000792]"	20	"[0.7897047000005841, 0.9897912999986147, 1.1979930999987118, 1.4146959999998217, 1.6395818000019062, 1.814763700000185, 2.0312436999993224, 2.2229021999992256, 2.4145993999991333, 2.598116699999082, 2.81461119999949, 3.0313371000011102, 3.2396318999999494, 3.431326199999603, 3.639703400000144, 3.8397349000006216, 4.064740599998913, 4.248061599999346, 4.681411199999275, 4.956766999999672]"	"[0.8476827000013145, 1.0895531999995, 1.281008699999802, 1.4810398000008718, 1.7394233000013628, 1.922722999999678, 2.0977499000000535, 2.297748299999512, 2.4894358000019565, 2.6811202999997477, 2.92281340000045, 3.139479100002063, 3.3229331000002276, 3.53950519999853, 3.747930900000938, 3.947886900001322, 4.173081600001751, 4.381257699998969, 4.806322200001887, 5.0896192000000156]"	438.8475179999987	438.8533951999998	440.34536879999723	440.3701555999978								18	03	2024-02-08_15h23.01.113	BART_exp	2023.2.3	119.96967166476657	2024-02-08 15h23.16.584040 +0100	
balloon.png	88	0	27	27	20	440.3701555999978													440.34553759999835	440.3701555999978	440.3701555999978	440.3701555999978	440.3701555999978	440.3701555999978	-0.0007324999969569035	-0.0007324999969569035	-0.0007324999969569035	440.3701555999978	445.9222876999993	20	1.00	False	"[0.014814814814814815, 0.014814814814814815, 0.014814814814814815, 0.014814814814814815, 0.014814814814814815, 0.014814814814814815, 0.014814814814814815, 0.014814814814814815, 0.014814814814814815, 0.014814814814814815, 0.014814814814814815, 0.014814814814814815, 0.014814814814814815, 0.014814814814814815, 0.014814814814814815, 0.014814814814814815, 0.014814814814814815, 0.014814814814814815, 0.014814814814814815, 0.014814814814814815, 0.014814814814814815]"	"[-0.3814814814814815, -0.3814814814814815, -0.3814814814814815, -0.3814814814814815, -0.3814814814814815, -0.3814814814814815, -0.3814814814814815, -0.3814814814814815, -0.3814814814814815, -0.3814814814814815, -0.3814814814814815, -0.3814814814814815, -0.3814814814814815, -0.3814814814814815, -0.3814814814814815, -0.3814814814814815, -0.3814814814814815, -0.3814814814814815, -0.3814814814814815, -0.3814814814814815, -0.1675925925925926]"	"[1, 1, 1, 1, 1, 1, 1, 1, 1, 1, 1, 1, 1, 1, 1, 1, 1, 1, 1, 1, 0]"	"[0, 0, 0, 0, 0, 0, 0, 0, 0, 0, 0, 0, 0, 0, 0, 0, 0, 0, 0, 0, 0]"	"[0, 0, 0, 0, 0, 0, 0, 0, 0, 0, 0, 0, 0, 0, 0, 0, 0, 0, 0, 0, 1]"	"[0.7170217999992019, 0.8922752999969816, 1.0920901999998023, 1.30883779999931, 1.5254255999971065, 1.7337597999976424, 1.9254246999989846, 2.11711429999923, 2.3089483000003383, 2.5005065000004834, 2.6923117999976967, 2.859007899998687, 3.042379999998957, 3.2509408999976586, 3.4590568999992684, 3.6674845999987156, 3.9257349999970756, 4.267433799999708, 4.525655399997049, 4.925645299997996, 5.575862699999561]"	20	"[0.705407199999172, 0.8806700999994064, 1.0804822999998578, 1.2972243999975035, 1.513810199998261, 1.7221403999974427, 1.9138089999978547, 2.1054958999993687, 2.297333799997432, 2.4888859999991837, 2.680698799998936, 2.8473935999973037, 3.030764299997827, 3.2393259999989823, 3.447444800000085, 3.6558717000007164, 3.9141180999977223, 4.255815199998324, 4.514040199999727, 4.914027899998473]"	"[0.7802598999987822, 0.9886310000001686, 1.188611800000217, 1.3970592000005126, 1.6053183999974863, 1.7969840000005206, 1.9970178000003216, 2.172035899999173, 2.397030799998902, 2.563715399999637, 2.755446799998026, 2.947093799997674, 3.1387353999998595, 3.355492200000299, 3.547101299998758, 3.74718539999958, 3.9971413999992365, 4.363840099998924, 4.630512499999895, 5.013922899997851]"	445.92320819999804	445.9288811999977	447.4208381999997	447.43731370000023								18	03	2024-02-08_15h23.01.113	BART_exp	2023.2.3	119.96967166476657	2024-02-08 15h23.16.584040 +0100	
balloon.png	14	0	28	28	3	447.43731370000023													447.4210091999994	447.43731370000023	447.43731370000023	447.43731370000023	447.43731370000023	447.43731370000023	-0.0009803000029933173	-0.0009803000029933173	-0.0009803000029933173	447.43731370000023	451.00627499999973	15	0.70	True	"[-0.009259259259259259, -0.009259259259259259, -0.009259259259259259, -0.009259259259259259, -0.009259259259259259, -0.009259259259259259, -0.009259259259259259, -0.009259259259259259, -0.009259259259259259, -0.009259259259259259, -0.009259259259259259, -0.009259259259259259, -0.009259259259259259, -0.009259259259259259, -0.009259259259259259]"	"[-0.3768518518518518, -0.3768518518518518, -0.3768518518518518, -0.3768518518518518, -0.3768518518518518, -0.3787037037037037, -0.3787037037037037, -0.3787037037037037, -0.3787037037037037, -0.3787037037037037, -0.3787037037037037, -0.3787037037037037, -0.3787037037037037, -0.3787037037037037, -0.3787037037037037]"	"[1, 1, 1, 1, 1, 1, 1, 1, 1, 1, 1, 1, 1, 1, 1]"	"[0, 0, 0, 0, 0, 0, 0, 0, 0, 0, 0, 0, 0, 0, 0]"	"[0, 0, 0, 0, 0, 0, 0, 0, 0, 0, 0, 0, 0, 0, 0]"	"[0.8837440000024799, 1.0587353000009898, 1.2504329000003054, 1.4421135000011418, 1.625480200000311, 1.801289099999849, 1.9839633000010508, 2.15895620000083, 2.3257213000033516, 2.5004935000033583, 2.70051070000045, 2.8839140000018233, 3.0755631000029098, 3.2839764000018477, 3.47565300000133]"	15	"[0.8774273000017274, 1.052415199999814, 1.244110499999806, 1.4357952999998815, 1.619161400001758, 1.7951245000003837, 1.977645000002667, 2.152636700000585, 2.319568999999319, 2.4941732000006596, 2.694187299999612, 2.8775963000007323, 3.069241000001057, 3.2776594999995723, 3.469342800002778]"	"[0.9439143000017793, 1.1606171000021277, 1.352304700001696, 1.5439770000011777, 1.7272933999993256, 1.8940681999993103, 2.0773618999992323, 2.2440330000026734, 2.4106831999997667, 2.602397099999507, 2.8024493000011717, 2.9523915000027046, 3.1774145000017597, 3.369082700002764, 3.5691800999993575]"	451.00708569999915	451.0126128999982	452.50455019999936	452.52102209999794								18	03	2024-02-08_15h23.01.113	BART_exp	2023.2.3	119.96967166476657	2024-02-08 15h23.16.584040 +0100	
balloon.png	71	0	29	29	16	452.52102209999794													452.5047476	452.52102209999794	452.52102209999794	452.52102209999794	452.52102209999794	452.52102209999794	0.01404289999845787			452.52102209999794	458.05627079999977	20	1.00	False	"[-0.007407407407407408, -0.007407407407407408, -0.007407407407407408, -0.007407407407407408, -0.007407407407407408, -0.007407407407407408, -0.007407407407407408, -0.007407407407407408, -0.007407407407407408, -0.007407407407407408, -0.007407407407407408, -0.007407407407407408, -0.007407407407407408, -0.007407407407407408, -0.007407407407407408, -0.007407407407407408, -0.007407407407407408, -0.007407407407407408, -0.007407407407407408, -0.007407407407407408, 0.000925925925925926]"	"[-0.3972222222222222, -0.3972222222222222, -0.3972222222222222, -0.3972222222222222, -0.3972222222222222, -0.3972222222222222, -0.3972222222222222, -0.3972222222222222, -0.3972222222222222, -0.3972222222222222, -0.3972222222222222, -0.3972222222222222, -0.3972222222222222, -0.3972222222222222, -0.3972222222222222, -0.3972222222222222, -0.3972222222222222, -0.3972222222222222, -0.3972222222222222, -0.3972222222222222, -0.20462962962962963]"	"[1, 1, 1, 1, 1, 1, 1, 1, 1, 1, 1, 1, 1, 1, 1, 1, 1, 1, 1, 1, 0]"	"[0, 0, 0, 0, 0, 0, 0, 0, 0, 0, 0, 0, 0, 0, 0, 0, 0, 0, 0, 0, 0]"	"[0, 0, 0, 0, 0, 0, 0, 0, 0, 0, 0, 0, 0, 0, 0, 0, 0, 0, 0, 0, 1]"	"[0.6003524000007019, 0.8086492000002181, 1.0087129999992612, 1.2087264000001596, 1.3836996000027284, 1.5587137000002258, 1.8003974999992352, 2.000512800001161, 2.217306300000928, 2.4255840000005264, 2.6422856000026513, 2.858989100001054, 3.067324899999221, 3.2590001999997185, 3.500672599999234, 3.7007219000006444, 3.9755603000012343, 4.283952100002352, 4.575631499999872, 4.984005700000125, 5.550650299999688]"	20	"[0.5982890000013867, 0.8065840999988723, 1.0066501000001153, 1.198355000000447, 1.3816311000009591, 1.5566484999981185, 1.7983381000012741, 1.9984440000007453, 2.2152472000016132, 2.4235143000005337, 2.64022770000156, 2.8569247999985237, 3.065260200000921, 3.2569361999994726, 3.498605500000849, 3.698653799998283, 3.973494000001665, 4.281901499998639, 4.573566600000049, 4.982052100000146]"	"[0.6981739000002563, 0.881453900001361, 1.0814995000000636, 1.273152800000389, 1.4731538000014552, 1.6648518000001786, 1.8732157999984338, 2.0900863999995636, 2.3065816999987874, 2.5315669999981765, 2.7482866999998805, 2.9734916999987036, 3.181611799998791, 3.3733318999984476, 3.55663320000167, 3.7900450000015553, 4.0817203000005975, 4.390022799998405, 4.673419200000353, 5.081801899999846]"	458.057168299998	458.06306419999964	459.55505469999844	459.5631764999998								18	03	2024-02-08_15h23.01.113	BART_exp	2023.2.3	119.96967166476657	2024-02-08 15h23.16.584040 +0100	
																																														459.55509099999836	459.5631764999998	459.5631764999998	468.49754049999683	space	8.926828299998306	None	18	03	2024-02-08_15h23.01.113	BART_exp	2023.2.3	119.96967166476657	2024-02-08 15h23.16.584040 +0100	
