"diceImage"	"d_number"	"dice_loop.thisRepN"	"dice_loop.thisTrialN"	"dice_loop.thisN"	"dice_loop.thisIndex"	"thisRow.t"	"notes"	"Start.started"	"text_start.started"	"continue_start.started"	"mouse_start.started"	"Start.stopped"	"mouse_start.x"	"mouse_start.y"	"mouse_start.leftButton"	"mouse_start.midButton"	"mouse_start.rightButton"	"mouse_start.time"	"trial.started"	"box_dice.started"	"text_dice_header.started"	"text_gain.started"	"value_gain.started"	"text_bank.started"	"value_bank.started"	"img_dice_1.started"	"img_dice_2.started"	"img_dice_3.started"	"img_dice_4.started"	"img_dice_5.started"	"img_dice_6.started"	"img_dice_1_2.started"	"img_dice_3_4.started"	"img_dice_5_6.started"	"img_dice_1_2_3.started"	"img_dice_4_5_6.started"	"img_dice_1_2_3_4.started"	"img_dice_2_3_4_5.started"	"img_dice_3_4_5_6.started"	"text_value_header.started"	"text_value_1000.started"	"text_value_500.started"	"text_value_200.started"	"text_value_100.started"	"mouse_task.started"	"loss_sound.started"	"img_dice_throw_trials.started"	"img_dice_throw_trials.stopped"	"trial.stopped"	"mouse_task.x"	"mouse_task.y"	"mouse_task.leftButton"	"mouse_task.midButton"	"mouse_task.rightButton"	"mouse_task.time"	"choice"	"gain"	"gain_sound.started"	"gain_sound.stopped"	"End.started"	"text_end.started"	"key_end.started"	"End.stopped"	"key_end.keys"	"key_end.rt"	"key_end.duration"	"participant"	"session"	"date"	"expName"	"psychopyVersion"	"frameRate"	"expStart"	"...75"
NA	NA	NA	NA	NA	NA	NA	NA	0.040898900013417	0.0506015999708325	0.0506015999708325	0.0412389000412077	37.1289221999468	"[0.6953703703703704]"	"[-0.3787037037037037]"	"[1]"	"[0]"	"[0]"	"[37.087088600033894]"	NA	NA	NA	NA	NA	NA	NA	NA	NA	NA	NA	NA	NA	NA	NA	NA	NA	NA	NA	NA	NA	NA	NA	NA	NA	NA	NA	NA	NA	NA	NA	NA	NA	NA	NA	NA	NA	NA	NA	NA	NA	NA	NA	NA	NA	NA	NA	NA	23	"02"	"2024-02-15_11h56.16.235"	"GDT_exp"	"2023.2.3"	120.025109332284	"2024-02-15 11h56.24.525317 +0100"	NA
"dice_1.png"	1	0	0	0	0	37.2116306999233	NA	NA	NA	NA	NA	NA	NA	NA	NA	NA	NA	NA	37.1337543999543	37.2116306999233	37.2116306999233	37.2116306999233	37.2116306999233	37.2116306999233	37.2116306999233	37.2116306999233	37.2116306999233	37.2116306999233	37.2116306999233	37.2116306999233	37.2116306999233	37.2116306999233	37.2116306999233	37.2116306999233	37.2116306999233	37.2116306999233	37.2116306999233	37.2116306999233	37.2116306999233	37.2116306999233	37.2116306999233	37.2116306999233	37.2116306999233	37.2116306999233	0.0224854999687523	4.40799839992542	41.6036350999493	43.1537067999598	43.1059541000286	"[-0.2972222222222222, -0.2972222222222222]"	"[-0.33425925925925926, -0.33425925925925926]"	"[1, 0]"	"[0, 0]"	"[0, 1]"	"[3.37076329998672, 4.354134500026703]"	4	-100	NA	NA	NA	NA	NA	NA	NA	NA	NA	23	"02"	"2024-02-15_11h56.16.235"	"GDT_exp"	"2023.2.3"	120.025109332284	"2024-02-15 11h56.24.525317 +0100"	NA
"dice_3.png"	3	0	1	1	2	43.1537067999598	NA	NA	NA	NA	NA	NA	NA	NA	NA	NA	NA	NA	43.106750399922	43.1537067999598	43.1537067999598	43.1537067999598	43.1537067999598	43.1537067999598	43.1537067999598	43.1537067999598	43.1537067999598	43.1537067999598	43.1537067999598	43.1537067999598	43.1537067999598	43.1537067999598	43.1537067999598	43.1537067999598	43.1537067999598	43.1537067999598	43.1537067999598	43.1537067999598	43.1537067999598	43.1537067999598	43.1537067999598	43.1537067999598	43.1537067999598	43.1537067999598	0.017769500031136	NA	45.3788703000173	46.9207913000137	46.8818170999875	"[-0.33240740740740743, -0.33240740740740743]"	"[-0.3398148148148148, -0.3388888888888889]"	"[1, 0]"	"[0, 0]"	"[0, 1]"	"[1.2291210000403225, 2.1794111999915913]"	4	100	2.19732310005929	3.71408649999648	NA	NA	NA	NA	NA	NA	NA	23	"02"	"2024-02-15_11h56.16.235"	"GDT_exp"	"2023.2.3"	120.025109332284	"2024-02-15 11h56.24.525317 +0100"	NA
"dice_5.png"	5	0	2	2	4	46.9207913000137	NA	NA	NA	NA	NA	NA	NA	NA	NA	NA	NA	NA	46.8823835999938	46.9207913000137	46.9207913000137	46.9207913000137	46.9207913000137	46.9207913000137	46.9207913000137	46.9207913000137	46.9207913000137	46.9207913000137	46.9207913000137	46.9207913000137	46.9207913000137	46.9207913000137	46.9207913000137	46.9207913000137	46.9207913000137	46.9207913000137	46.9207913000137	46.9207913000137	46.9207913000137	46.9207913000137	46.9207913000137	46.9207913000137	46.9207913000137	46.9207913000137	0.0144498000154272	1.63853100000415	48.5957867000252	50.1626716000028	50.1147293000249	"[-0.44537037037037036, -0.44537037037037036]"	"[-0.2518518518518518, -0.2518518518518518]"	"[1, 0]"	"[0, 0]"	"[0, 1]"	"[0.7154570000711828, 1.6239739001030102]"	3	-200	NA	NA	NA	NA	NA	NA	NA	NA	NA	23	"02"	"2024-02-15_11h56.16.235"	"GDT_exp"	"2023.2.3"	120.025109332284	"2024-02-15 11h56.24.525317 +0100"	NA
"dice_4.png"	4	0	3	3	3	50.1626716000028	NA	NA	NA	NA	NA	NA	NA	NA	NA	NA	NA	NA	50.1152519999305	50.1626716000028	50.1626716000028	50.1626716000028	50.1626716000028	50.1626716000028	50.1626716000028	50.1626716000028	50.1626716000028	50.1626716000028	50.1626716000028	50.1626716000028	50.1626716000028	50.1626716000028	50.1626716000028	50.1626716000028	50.1626716000028	50.1626716000028	50.1626716000028	50.1626716000028	50.1626716000028	50.1626716000028	50.1626716000028	50.1626716000028	50.1626716000028	50.1626716000028	0.0178026000503451	1.61421300005168	51.7961203999585	53.3794338000007	53.3317269999534	"[-0.4425925925925926, -0.4425925925925926]"	"[-0.25092592592592594, -0.25092592592592594]"	"[1, 0]"	"[0, 0]"	"[0, 1]"	"[0.7293023000238463, 1.5960060000652447]"	3	-200	NA	NA	NA	NA	NA	NA	NA	NA	NA	23	"02"	"2024-02-15_11h56.16.235"	"GDT_exp"	"2023.2.3"	120.025109332284	"2024-02-15 11h56.24.525317 +0100"	NA
"dice_6.png"	6	0	4	4	5	53.3794338000007	NA	NA	NA	NA	NA	NA	NA	NA	NA	NA	NA	NA	53.3322993000038	53.3794338000007	53.3794338000007	53.3794338000007	53.3794338000007	53.3794338000007	53.3794338000007	53.3794338000007	53.3794338000007	53.3794338000007	53.3794338000007	53.3794338000007	53.3794338000007	53.3794338000007	53.3794338000007	53.3794338000007	53.3794338000007	53.3794338000007	53.3794338000007	53.3794338000007	53.3794338000007	53.3794338000007	53.3794338000007	53.3794338000007	53.3794338000007	53.3794338000007	0.0175568000413477	1.34742510004435	54.7628619999159	56.3465086999349	56.2986439999659	"[-0.4425925925925926, -0.4425925925925926]"	"[-0.25092592592592594, -0.25092592592592594]"	"[1, 0]"	"[0, 0]"	"[0, 1]"	"[0.4378175000892952, 1.3298908000579104]"	3	-200	NA	NA	NA	NA	NA	NA	NA	NA	NA	23	"02"	"2024-02-15_11h56.16.235"	"GDT_exp"	"2023.2.3"	120.025109332284	"2024-02-15 11h56.24.525317 +0100"	NA
"dice_2.png"	2	0	5	5	1	56.3465086999349	NA	NA	NA	NA	NA	NA	NA	NA	NA	NA	NA	NA	56.2992184999166	56.3465086999349	56.3465086999349	56.3465086999349	56.3465086999349	56.3465086999349	56.3465086999349	56.3465086999349	56.3465086999349	56.3465086999349	56.3465086999349	56.3465086999349	56.3465086999349	56.3465086999349	56.3465086999349	56.3465086999349	56.3465086999349	56.3465086999349	56.3465086999349	56.3465086999349	56.3465086999349	56.3465086999349	56.3465086999349	56.3465086999349	56.3465086999349	56.3465086999349	0.0177778999786824	NA	59.6715723000234	61.2466839000117	61.1991962000029	"[-0.5444444444444444, -0.5444444444444444]"	"[-0.3398148148148148, -0.3398148148148148]"	"[1, 0]"	"[0, 0]"	"[0, 1]"	"[2.579523300053552, 3.2879305001115426]"	4	100	3.30586760002188	4.80598359997384	NA	NA	NA	NA	NA	NA	NA	23	"02"	"2024-02-15_11h56.16.235"	"GDT_exp"	"2023.2.3"	120.025109332284	"2024-02-15 11h56.24.525317 +0100"	NA
"dice_3.png"	3	1	0	6	2	61.2466839000117	NA	NA	NA	NA	NA	NA	NA	NA	NA	NA	NA	NA	61.1997327000135	61.2466839000117	61.2466839000117	61.2466839000117	61.2466839000117	61.2466839000117	61.2466839000117	61.2466839000117	61.2466839000117	61.2466839000117	61.2466839000117	61.2466839000117	61.2466839000117	61.2466839000117	61.2466839000117	61.2466839000117	61.2466839000117	61.2466839000117	61.2466839000117	61.2466839000117	61.2466839000117	61.2466839000117	61.2466839000117	61.2466839000117	61.2466839000117	61.2466839000117	0.0180794999469072	NA	65.5719776999904	67.1304041999392	67.0910195999313	"[-0.5, -0.5]"	"[-0.25833333333333336, -0.25833333333333336]"	"[1, 0]"	"[0, 0]"	"[0, 1]"	"[2.6373261000262573, 4.287452799966559]"	3	200	4.30580559989903	5.8225206999341	NA	NA	NA	NA	NA	NA	NA	23	"02"	"2024-02-15_11h56.16.235"	"GDT_exp"	"2023.2.3"	120.025109332284	"2024-02-15 11h56.24.525317 +0100"	NA
"dice_5.png"	5	1	1	7	4	67.1304041999392	NA	NA	NA	NA	NA	NA	NA	NA	NA	NA	NA	NA	67.0915960000129	67.1304041999392	67.1304041999392	67.1304041999392	67.1304041999392	67.1304041999392	67.1304041999392	67.1304041999392	67.1304041999392	67.1304041999392	67.1304041999392	67.1304041999392	67.1304041999392	67.1304041999392	67.1304041999392	67.1304041999392	67.1304041999392	67.1304041999392	67.1304041999392	67.1304041999392	67.1304041999392	67.1304041999392	67.1304041999392	67.1304041999392	67.1304041999392	67.1304041999392	0.0173707000212744	2.2973921999801	69.4722413999261	71.0223469999619	70.9831305999542	"[-0.4962962962962963, -0.4962962962962963]"	"[-0.2388888888888889, -0.2388888888888889]"	"[1, 0]"	"[0, 0]"	"[0, 1]"	"[1.2214694999856874, 2.2798036000458524]"	3	-200	NA	NA	NA	NA	NA	NA	NA	NA	NA	23	"02"	"2024-02-15_11h56.16.235"	"GDT_exp"	"2023.2.3"	120.025109332284	"2024-02-15 11h56.24.525317 +0100"	NA
"dice_2.png"	2	1	2	8	1	71.0223469999619	NA	NA	NA	NA	NA	NA	NA	NA	NA	NA	NA	NA	70.9836604999145	71.0223469999619	71.0223469999619	71.0223469999619	71.0223469999619	71.0223469999619	71.0223469999619	71.0223469999619	71.0223469999619	71.0223469999619	71.0223469999619	71.0223469999619	71.0223469999619	71.0223469999619	71.0223469999619	71.0223469999619	71.0223469999619	71.0223469999619	71.0223469999619	71.0223469999619	71.0223469999619	71.0223469999619	71.0223469999619	71.0223469999619	71.0223469999619	71.0223469999619	0.0146255000727251	NA	72.5307829999365	74.0808958000271	74.0416620000033	"[-0.3611111111111111, -0.3611111111111111]"	"[-0.3333333333333333, -0.3333333333333333]"	"[1, 0]"	"[0, 0]"	"[0, 1]"	"[0.7489855999592692, 1.4575485999230295]"	4	100	1.47225580003578	2.99740860005841	NA	NA	NA	NA	NA	NA	NA	23	"02"	"2024-02-15_11h56.16.235"	"GDT_exp"	"2023.2.3"	120.025109332284	"2024-02-15 11h56.24.525317 +0100"	NA
"dice_1.png"	1	1	3	9	0	74.0808958000271	NA	NA	NA	NA	NA	NA	NA	NA	NA	NA	NA	NA	74.0422155000269	74.0808958000271	74.0808958000271	74.0808958000271	74.0808958000271	74.0808958000271	74.0808958000271	74.0808958000271	74.0808958000271	74.0808958000271	74.0808958000271	74.0808958000271	74.0808958000271	74.0808958000271	74.0808958000271	74.0808958000271	74.0808958000271	74.0808958000271	74.0808958000271	74.0808958000271	74.0808958000271	74.0808958000271	74.0808958000271	74.0808958000271	74.0808958000271	74.0808958000271	0.0147703000111505	NA	77.089450599975	78.6312112999149	78.5917769999942	"[-0.41574074074074074, -0.41574074074074074]"	"[-0.262037037037037, -0.262037037037037]"	"[1, 0]"	"[0, 0]"	"[0, 1]"	"[1.832459400058724, 2.9656962000299245]"	3	200	2.98069050000049	4.48096670000814	NA	NA	NA	NA	NA	NA	NA	23	"02"	"2024-02-15_11h56.16.235"	"GDT_exp"	"2023.2.3"	120.025109332284	"2024-02-15 11h56.24.525317 +0100"	NA
"dice_4.png"	4	1	4	10	3	78.6312112999149	NA	NA	NA	NA	NA	NA	NA	NA	NA	NA	NA	NA	78.5923049999401	78.6312112999149	78.6312112999149	78.6312112999149	78.6312112999149	78.6312112999149	78.6312112999149	78.6312112999149	78.6312112999149	78.6312112999149	78.6312112999149	78.6312112999149	78.6312112999149	78.6312112999149	78.6312112999149	78.6312112999149	78.6312112999149	78.6312112999149	78.6312112999149	78.6312112999149	78.6312112999149	78.6312112999149	78.6312112999149	78.6312112999149	78.6312112999149	78.6312112999149	0.0145037999609485	2.84758719999809	81.5147601999342	83.0565235000104	83.0173412999138	"[-0.4166666666666667, -0.4166666666666667]"	"[-0.262037037037037, -0.262037037037037]"	"[1, 0]"	"[0, 0]"	"[0, 1]"	"[1.9245270000537857, 2.832992500043474]"	3	-200	NA	NA	NA	NA	NA	NA	NA	NA	NA	23	"02"	"2024-02-15_11h56.16.235"	"GDT_exp"	"2023.2.3"	120.025109332284	"2024-02-15 11h56.24.525317 +0100"	NA
"dice_6.png"	6	1	5	11	5	83.0565235000104	NA	NA	NA	NA	NA	NA	NA	NA	NA	NA	NA	NA	83.0179137999658	83.0565235000104	83.0565235000104	83.0565235000104	83.0565235000104	83.0565235000104	83.0565235000104	83.0565235000104	83.0565235000104	83.0565235000104	83.0565235000104	83.0565235000104	83.0565235000104	83.0565235000104	83.0565235000104	83.0565235000104	83.0565235000104	83.0565235000104	83.0565235000104	83.0565235000104	83.0565235000104	83.0565235000104	83.0565235000104	83.0565235000104	83.0565235000104	83.0565235000104	0.0143815000774339	2.36391820001882	85.4483590999153	86.9901724000229	86.9544327999465	"[-0.34444444444444444, -0.34444444444444444]"	"[-0.337037037037037, -0.337037037037037]"	"[1, 0]"	"[0, 0]"	"[0, 1]"	"[1.691098800045438, 2.3493136999895796]"	4	-100	NA	NA	NA	NA	NA	NA	NA	NA	NA	23	"02"	"2024-02-15_11h56.16.235"	"GDT_exp"	"2023.2.3"	120.025109332284	"2024-02-15 11h56.24.525317 +0100"	NA
"dice_3.png"	3	2	0	12	2	86.9901724000229	NA	NA	NA	NA	NA	NA	NA	NA	NA	NA	NA	NA	86.9549607000081	86.9901724000229	86.9901724000229	86.9901724000229	86.9901724000229	86.9901724000229	86.9901724000229	86.9901724000229	86.9901724000229	86.9901724000229	86.9901724000229	86.9901724000229	86.9901724000229	86.9901724000229	86.9901724000229	86.9901724000229	86.9901724000229	86.9901724000229	86.9901724000229	86.9901724000229	86.9901724000229	86.9901724000229	86.9901724000229	86.9901724000229	86.9901724000229	86.9901724000229	0.0149141000583768	NA	88.9319551999215	90.4987219999312	90.4594193999656	"[-0.5740740740740741, -0.5740740740740741]"	"[-0.34629629629629627, -0.34629629629629627]"	"[1, 0]"	"[0, 0]"	"[0, 1]"	"[1.1285854999441653, 1.8871620999416336]"	4	100	1.90218100009952	3.41066350007895	NA	NA	NA	NA	NA	NA	NA	23	"02"	"2024-02-15_11h56.16.235"	"GDT_exp"	"2023.2.3"	120.025109332284	"2024-02-15 11h56.24.525317 +0100"	NA
"dice_5.png"	5	2	1	13	4	90.4987219999312	NA	NA	NA	NA	NA	NA	NA	NA	NA	NA	NA	NA	90.4599870999809	90.4987219999312	90.4987219999312	90.4987219999312	90.4987219999312	90.4987219999312	90.4987219999312	90.4987219999312	90.4987219999312	90.4987219999312	90.4987219999312	90.4987219999312	90.4987219999312	90.4987219999312	90.4987219999312	90.4987219999312	90.4987219999312	90.4987219999312	90.4987219999312	90.4987219999312	90.4987219999312	90.4987219999312	90.4987219999312	90.4987219999312	90.4987219999312	90.4987219999312	0.0142125999554992	2.8224068999989	93.357302499935	94.9156874999171	94.8762493999675	"[-0.5657407407407408, -0.562962962962963]"	"[-0.34629629629629627, -0.34629629629629627]"	"[1, 0]"	"[0, 0]"	"[0, 1]"	"[1.2496253000572324, 2.807948000030592]"	4	-100	NA	NA	NA	NA	NA	NA	NA	NA	NA	23	"02"	"2024-02-15_11h56.16.235"	"GDT_exp"	"2023.2.3"	120.025109332284	"2024-02-15 11h56.24.525317 +0100"	NA
"dice_1.png"	1	2	2	14	0	94.9156874999171	NA	NA	NA	NA	NA	NA	NA	NA	NA	NA	NA	NA	94.8767742000055	94.9156874999171	94.9156874999171	94.9156874999171	94.9156874999171	94.9156874999171	94.9156874999171	94.9156874999171	94.9156874999171	94.9156874999171	94.9156874999171	94.9156874999171	94.9156874999171	94.9156874999171	94.9156874999171	94.9156874999171	94.9156874999171	94.9156874999171	94.9156874999171	94.9156874999171	94.9156874999171	94.9156874999171	94.9156874999171	94.9156874999171	94.9156874999171	94.9156874999171	0.0142473999876529	NA	97.274318199954	98.8243055000203	98.7848582000006	"[-0.5398148148148149, -0.5398148148148149]"	"[-0.33055555555555555, -0.33055555555555555]"	"[1, 0]"	"[0, 0]"	"[0, 1]"	"[1.3331472999416292, 2.316410099971108]"	4	100	2.3308789000148	3.84785010002088	NA	NA	NA	NA	NA	NA	NA	23	"02"	"2024-02-15_11h56.16.235"	"GDT_exp"	"2023.2.3"	120.025109332284	"2024-02-15 11h56.24.525317 +0100"	NA
"dice_6.png"	6	2	3	15	5	98.8243055000203	NA	NA	NA	NA	NA	NA	NA	NA	NA	NA	NA	NA	98.7853833999252	98.8243055000203	98.8243055000203	98.8243055000203	98.8243055000203	98.8243055000203	98.8243055000203	98.8243055000203	98.8243055000203	98.8243055000203	98.8243055000203	98.8243055000203	98.8243055000203	98.8243055000203	98.8243055000203	98.8243055000203	98.8243055000203	98.8243055000203	98.8243055000203	98.8243055000203	98.8243055000203	98.8243055000203	98.8243055000203	98.8243055000203	98.8243055000203	98.8243055000203	0.0146187000209466	3.90599240001757	102.757917199982	104.324735599919	104.285412499914	"[-0.5722222222222222, -0.5712962962962963]"	"[-0.3287037037037037, -0.3277777777777778]"	"[1, 0]"	"[0, 0]"	"[0, 1]"	"[2.5497004999779165, 3.8911243999609724]"	4	-100	NA	NA	NA	NA	NA	NA	NA	NA	NA	23	"02"	"2024-02-15_11h56.16.235"	"GDT_exp"	"2023.2.3"	120.025109332284	"2024-02-15 11h56.24.525317 +0100"	NA
"dice_2.png"	2	2	4	16	1	104.324735599919	NA	NA	NA	NA	NA	NA	NA	NA	NA	NA	NA	NA	104.285985799972	104.324735599919	104.324735599919	104.324735599919	104.324735599919	104.324735599919	104.324735599919	104.324735599919	104.324735599919	104.324735599919	104.324735599919	104.324735599919	104.324735599919	104.324735599919	104.324735599919	104.324735599919	104.324735599919	104.324735599919	104.324735599919	104.324735599919	104.324735599919	104.324735599919	104.324735599919	104.324735599919	104.324735599919	104.324735599919	0.0146832999307662	NA	107.941611199989	109.491743499995	109.452329199994	"[-0.5416666666666666, -0.5416666666666666]"	"[-0.3425925925925926, -0.3425925925925926]"	"[1, 0]"	"[0, 0]"	"[0, 1]"	"[2.8074731999076903, 3.5741864999290556]"	4	100	3.58910179999657	5.09774659993127	NA	NA	NA	NA	NA	NA	NA	23	"02"	"2024-02-15_11h56.16.235"	"GDT_exp"	"2023.2.3"	120.025109332284	"2024-02-15 11h56.24.525317 +0100"	NA
"dice_4.png"	4	2	5	17	3	109.491743499995	NA	NA	NA	NA	NA	NA	NA	NA	NA	NA	NA	NA	109.452847799985	109.491743499995	109.491743499995	109.491743499995	109.491743499995	109.491743499995	109.491743499995	109.491743499995	109.491743499995	109.491743499995	109.491743499995	109.491743499995	109.491743499995	109.491743499995	109.491743499995	109.491743499995	109.491743499995	109.491743499995	109.491743499995	109.491743499995	109.491743499995	109.491743499995	109.491743499995	109.491743499995	109.491743499995	109.491743499995	0.0143438000231981	NA	111.191972399945	112.717080499977	112.703231599997	"[-0.31203703703703706, -0.31203703703703706]"	"[-0.3537037037037037, -0.3537037037037037]"	"[1, 0]"	"[0, 0]"	"[0, 1]"	"[0.8827919999603182, 1.6412205999949947]"	4	100	1.6558389000129	3.18097760004457	NA	NA	NA	NA	NA	NA	NA	23	"02"	"2024-02-15_11h56.16.235"	"GDT_exp"	"2023.2.3"	120.025109332284	"2024-02-15 11h56.24.525317 +0100"	NA
NA	NA	NA	NA	NA	NA	NA	NA	NA	NA	NA	NA	NA	NA	NA	NA	NA	NA	NA	NA	NA	NA	NA	NA	NA	NA	NA	NA	NA	NA	NA	NA	NA	NA	NA	NA	NA	NA	NA	NA	NA	NA	NA	NA	NA	NA	NA	NA	NA	NA	NA	NA	NA	NA	NA	NA	NA	NA	NA	NA	112.703719699988	112.717080499977	112.717080499977	121.968052699929	"space"	9.2487990000518	"None"	23	"02"	"2024-02-15_11h56.16.235"	"GDT_exp"	"2023.2.3"	120.025109332284	"2024-02-15 11h56.24.525317 +0100"	NA
