image	max_pumps	pump_loop.thisRepN	pump_loop.thisTrialN	pump_loop.thisN	pump_loop.thisIndex	thisRow.t	notes	Start.started	text_start.started	continue_start.started	mouse_start.started	Start.stopped	mouse_start.x	mouse_start.y	mouse_start.leftButton	mouse_start.midButton	mouse_start.rightButton	mouse_start.time	trials.started	stim_balloon.started	stim_balloon_burst.started	stim_balloon_burst.stopped	text_ballon_value.started	text_bank.started	mouse.started	sound_bang.started	sound_bang.stopped	button_balloon.started	trials.stopped	n_pumps	earnings	popped	mouse.x	mouse.y	mouse.leftButton	mouse.midButton	mouse.rightButton	mouse.time	button_balloon.numClicks	button_balloon.timesOn	button_balloon.timesOff	Feedback.started	text_feedback.started	Feedback.stopped	text_feedback.stopped	End.started	text_end.started	key_end.started	End.stopped	key_end.keys	key_end.rt	key_end.duration	participant	session	date	expName	psychopyVersion	frameRate	expStart	
								0.04241740005090833	0.0547728999517858	0.0547728999517858	0.04277150006964803	15.889737199991941	[0.7425925925925926]	[-0.3990740740740741]	[1]	[0]	[0]	[15.84640059992671]																																			01	01	2024-01-30_14h04.00.151	BART_exp	2023.2.3	119.96218785391558	2024-01-30 14h04.16.836073 +0100	
balloon.png	44	0	0	0	10	15.964143199846148													15.901652600150555	15.964143199846148	15.964143199846148	15.964143199846148	15.964143199846148	15.964143199846148	0.013641799800097942	0.013641799800097942	0.013641799800097942	15.964143199846148	27.86658819997683	10	0.50	False	"[0.007407407407407408, 0.007407407407407408, 0.007407407407407408, 0.007407407407407408, 0.007407407407407408, 0.007407407407407408, 0.007407407407407408, 0.007407407407407408, 0.007407407407407408, 0.007407407407407408, -0.003703703703703704]"	"[-0.4111111111111111, -0.4111111111111111, -0.4111111111111111, -0.4111111111111111, -0.4111111111111111, -0.4111111111111111, -0.4111111111111111, -0.4111111111111111, -0.4111111111111111, -0.4111111111111111, -0.4111111111111111]"	"[1, 1, 1, 1, 1, 1, 1, 1, 1, 1, 0]"	"[0, 0, 0, 0, 0, 0, 0, 0, 0, 0, 0]"	"[0, 0, 0, 0, 0, 0, 0, 0, 0, 0, 1]"	"[1.5632350002415478, 2.330161300022155, 3.26351370010525, 4.2134047001600266, 5.138707799836993, 6.205235600005835, 7.288835800252855, 8.723757800180465, 9.972129600122571, 11.1556167001836, 11.964002500288188]"	11	"[1.508679199963808, 2.2756083998829126, 3.208954599685967, 4.158844399731606, 5.084146999754012, 6.15067939972505, 7.23427759995684, 8.66936399973929, 9.917573399841785, 11.101061400026083, 11.909382799640298]"	"[1.6420052996836603, 2.4085705997422338, 3.3419993999414146, 4.292101599741727, 5.208769099786878, 6.267212599981576, 7.358985499944538, 8.792359299957752, 10.034114399924874, 11.200863499660045, 11.909387399908155]"	27.86779240006581	27.881543199997395	29.37346350029111									01	01	2024-01-30_14h04.00.151	BART_exp	2023.2.3	119.96218785391558	2024-01-30 14h04.16.836073 +0100	
balloon.png	57	0	1	1	13	29.39004709990695													29.37363540008664	29.39004709990695	29.39004709990695	29.39004709990695	29.39004709990695	29.39004709990695	0.007052100263535976	0.007052100263535976	0.007052100263535976	29.39004709990695	42.19261190015823	13	0.65	False	"[-0.006481481481481481, -0.006481481481481481, -0.006481481481481481, -0.006481481481481481, -0.006481481481481481, -0.006481481481481481, -0.006481481481481481, -0.006481481481481481, -0.006481481481481481, -0.006481481481481481, -0.007407407407407408, -0.007407407407407408, -0.007407407407407408, -0.007407407407407408]"	"[-0.4074074074074074, -0.4074074074074074, -0.4074074074074074, -0.4074074074074074, -0.4074074074074074, -0.4074074074074074, -0.4074074074074074, -0.4074074074074074, -0.4074074074074074, -0.4074074074074074, -0.4074074074074074, -0.4074074074074074, -0.4074074074074074, -0.4074074074074074]"	"[1, 1, 1, 1, 1, 1, 1, 1, 1, 1, 1, 1, 1, 0]"	"[0, 0, 0, 0, 0, 0, 0, 0, 0, 0, 0, 0, 0, 0]"	"[0, 0, 0, 0, 0, 0, 0, 0, 0, 0, 0, 0, 0, 1]"	"[0.7923189997673035, 1.5674295998178422, 2.0758008998818696, 2.634104900062084, 3.3506672997027636, 4.067356099840254, 5.159395100083202, 6.376039599999785, 7.44279949972406, 8.20112709980458, 9.267754999920726, 10.29276689980179, 11.301181399729103, 12.818088700063527]"	14	"[0.7895757001824677, 1.5646870001219213, 2.07305320026353, 2.6313587999902666, 3.3479253998957574, 4.064613600261509, 5.156649600248784, 6.373297700192779, 7.440059500280768, 8.198384399991482, 9.265009700320661, 10.29002400022, 11.298440200276673, 12.815277700312436]"	"[0.9226382002234459, 1.6559677999466658, 2.164314500056207, 2.747772400267422, 3.4561012000776827, 4.181166500318795, 5.264636400155723, 6.48961290018633, 7.531386599875987, 8.306439500302076, 9.348139300011098, 10.38997230026871, 11.439998799934983, 12.815282099880278]"	42.193499700166285	42.199254599865526	43.69124069996178	43.70771350013092								01	01	2024-01-30_14h04.00.151	BART_exp	2023.2.3	119.96218785391558	2024-01-30 14h04.16.836073 +0100	
balloon.png	5	0	2	2	1	43.70771350013092													43.691413099877536	43.70771350013092	43.70771350013092	43.70771350013092	43.70771350013092	43.70771350013092	-0.0008661001920700073	-0.0008661001920700073	-0.0008661001920700073	43.70771350013092	45.79320270009339	6	0.25	True	"[-0.009259259259259259, -0.009259259259259259, -0.009259259259259259, -0.009259259259259259, -0.009259259259259259, -0.009259259259259259]"	"[-0.4074074074074074, -0.4074074074074074, -0.4074074074074074, -0.4074074074074074, -0.4074074074074074, -0.4074074074074074]"	"[1, 1, 1, 1, 1, 1]"	"[0, 0, 0, 0, 0, 0]"	"[0, 0, 0, 0, 0, 0]"	"[0.8422986003570259, 1.1088335001841187, 1.4017159999348223, 1.600376999936998, 1.7920882003381848, 2.0170628000050783]"	6	"[0.8371118004433811, 1.1036377004347742, 1.3966857003979385, 1.5951875001192093, 1.7868933002464473, 2.0118678002618253]"	"[0.953320300206542, 1.2200125004164875, 1.4616731000132859, 1.6617398001253605, 1.8617164003662765, 2.0868536001071334]"	45.793913200031966	45.80787350004539	47.29963940009475									01	01	2024-01-30_14h04.00.151	BART_exp	2023.2.3	119.96218785391558	2024-01-30 14h04.16.836073 +0100	
balloon.png	75	0	3	3	17	47.31626190012321													47.29981220001355	47.31626190012321	47.31626190012321	47.31626190012321	47.31626190012321	47.31626190012321	0.007164000067859888	0.007164000067859888	0.007164000067859888	47.31626190012321	56.10173329990357	10	0.50	False	"[-0.06481481481481481, -0.06574074074074074, -0.06574074074074074, -0.06574074074074074, -0.06574074074074074, -0.06574074074074074, -0.06574074074074074, -0.06574074074074074, -0.06574074074074074, -0.06574074074074074, -0.06574074074074074]"	"[-0.38333333333333336, -0.38333333333333336, -0.38333333333333336, -0.38333333333333336, -0.38333333333333336, -0.38333333333333336, -0.38333333333333336, -0.38333333333333336, -0.38333333333333336, -0.38333333333333336, -0.38333333333333336]"	"[1, 1, 1, 1, 1, 1, 1, 1, 1, 1, 0]"	"[0, 0, 0, 0, 0, 0, 0, 0, 0, 0, 0]"	"[0, 0, 0, 0, 0, 0, 0, 0, 0, 0, 1]"	"[2.4757003001868725, 3.259180400054902, 4.059292700141668, 4.717590500134975, 5.192688799928874, 5.800995500292629, 6.542560699861497, 7.001171099953353, 7.534312800038606, 8.00255519989878, 8.801040700171143]"	11	"[2.4694940000772476, 3.2529746000654995, 4.053083300124854, 4.711377799976617, 5.1864718003198504, 5.794778100214899, 6.536347800400108, 6.994961300399154, 7.528097600210458, 7.996506400406361, 8.79476260021329]"	"[2.5943120000883937, 3.3777295001782477, 4.1860520001500845, 4.852750100195408, 5.311104400083423, 5.919515400193632, 6.652867200318724, 7.12797740008682, 7.662662100046873, 8.11974410014227, 8.794767000246793]"	56.10246190009639	56.10852409992367	57.600481000263244	57.61695750011131								01	01	2024-01-30_14h04.00.151	BART_exp	2023.2.3	119.96218785391558	2024-01-30 14h04.16.836073 +0100	
balloon.png	66	0	4	4	15	57.61695750011131													57.600655199959874	57.61695750011131	57.61695750011131	57.61695750011131	57.61695750011131	57.61695750011131	-0.0005765999667346478	-0.0005765999667346478	-0.0005765999667346478	57.61695750011131	67.37773700011894	12	0.60	False	"[-0.06574074074074074, -0.06574074074074074, -0.06574074074074074, -0.06574074074074074, -0.06574074074074074, -0.06574074074074074, -0.06574074074074074, -0.06574074074074074, -0.06574074074074074, -0.06574074074074074, -0.06574074074074074, -0.06574074074074074, -0.06574074074074074]"	"[-0.38333333333333336, -0.38333333333333336, -0.38333333333333336, -0.38333333333333336, -0.38333333333333336, -0.38333333333333336, -0.38333333333333336, -0.38333333333333336, -0.38333333333333336, -0.38333333333333336, -0.38333333333333336, -0.38333333333333336, -0.38333333333333336]"	"[1, 1, 1, 1, 1, 1, 1, 1, 1, 1, 1, 1, 0]"	"[0, 0, 0, 0, 0, 0, 0, 0, 0, 0, 0, 0, 0]"	"[0, 0, 0, 0, 0, 0, 0, 0, 0, 0, 0, 0, 1]"	"[0.6669991998933256, 1.21707470016554, 1.6171022998169065, 2.1673007998615503, 2.8338277000002563, 3.292163799982518, 3.859043600037694, 4.425632100086659, 5.159142599906772, 5.717580200172961, 6.250905700027943, 6.934260999783874, 9.776163099799305]"	13	"[0.66124780010432, 1.2113206000067294, 1.6113533000461757, 2.1615475001744926, 2.828081800136715, 3.2864072998054326, 3.853293300140649, 4.419879000168294, 5.153388100210577, 5.711830600164831, 6.245157199911773, 6.928504600189626, 9.770347299985588]"	"[0.7945161000825465, 1.3361661001108587, 1.7278462001122534, 2.26952419988811, 2.9446149999275804, 3.4210153999738395, 3.986306400038302, 4.544835300184786, 5.303086200263351, 5.844762800261378, 6.353226600214839, 7.044984099920839, 9.7703515002504]"	67.37858169991523	67.38429250009358	68.87625630013645	68.89276150008664								01	01	2024-01-30_14h04.00.151	BART_exp	2023.2.3	119.96218785391558	2024-01-30 14h04.16.836073 +0100	
balloon.png	36	0	5	5	8	68.89276150008664													68.87643169984221	68.89276150008664	68.89276150008664	68.89276150008664	68.89276150008664	68.89276150008664	-0.0009099999442696571	-0.0009099999442696571	-0.0009099999442696571	68.89276150008664	77.54503480019048	11	0.55	False	"[-0.06666666666666667, -0.06666666666666667, -0.06666666666666667, -0.06666666666666667, -0.06666666666666667, -0.06666666666666667, -0.06666666666666667, -0.06666666666666667, -0.06666666666666667, -0.06666666666666667, -0.06666666666666667, -0.06666666666666667]"	"[-0.38333333333333336, -0.38333333333333336, -0.38333333333333336, -0.38333333333333336, -0.38333333333333336, -0.38333333333333336, -0.38333333333333336, -0.38333333333333336, -0.38333333333333336, -0.38333333333333336, -0.38333333333333336, -0.38333333333333336]"	"[1, 1, 1, 1, 1, 1, 1, 1, 1, 1, 1, 0]"	"[0, 0, 0, 0, 0, 0, 0, 0, 0, 0, 0, 0]"	"[0, 0, 0, 0, 0, 0, 0, 0, 0, 0, 0, 1]"	"[0.6171118002384901, 1.1921272999607027, 1.7003828003071249, 2.292357500176877, 2.767109400127083, 3.233978300355375, 3.8256771001033485, 4.725614400114864, 5.317371600307524, 6.784076900221407, 8.009331800043583, 8.667673600371927]"	12	"[0.6074108998291194, 1.182425200007856, 1.6906810998916626, 2.2826545001007617, 2.757408000063151, 3.2242808998562396, 3.815972799900919, 4.715913500171155, 5.307682400103658, 6.7661977000534534, 7.999629000201821, 8.657911899965256]"	"[0.7238703998737037, 1.290486500132829, 1.8252480998635292, 2.373907799832523, 2.8906275001354516, 3.3323114002123475, 3.9156512999907136, 4.840759899932891, 5.3907653000205755, 6.874199999962002, 8.132631900254637, 8.657916400115937]"	77.54585090000182	77.55164710013196	79.04362390004098	79.06841049995273								01	01	2024-01-30_14h04.00.151	BART_exp	2023.2.3	119.96218785391558	2024-01-30 14h04.16.836073 +0100	
balloon.png	97	0	6	6	22	79.06841049995273													79.04380050022155	79.06841049995273	79.06841049995273	79.06841049995273	79.06841049995273	79.06841049995273	-0.0008082999847829342	-0.0008082999847829342	-0.0008082999847829342	79.06841049995273	88.81229270016775	13	0.65	False	"[-0.06666666666666667, -0.06666666666666667, -0.06666666666666667, -0.06666666666666667, -0.06666666666666667, -0.06666666666666667, -0.06666666666666667, -0.06666666666666667, -0.06666666666666667, -0.06666666666666667, -0.06666666666666667, -0.06666666666666667, -0.06666666666666667, -0.06666666666666667]"	"[-0.38333333333333336, -0.38333333333333336, -0.38333333333333336, -0.38333333333333336, -0.38333333333333336, -0.38333333333333336, -0.38333333333333336, -0.38333333333333336, -0.38333333333333336, -0.38333333333333336, -0.38333333333333336, -0.38333333333333336, -0.38333333333333336, -0.38333333333333336]"	"[1, 1, 1, 1, 1, 1, 1, 1, 1, 1, 1, 1, 1, 0]"	"[0, 0, 0, 0, 0, 0, 0, 0, 0, 0, 0, 0, 0, 0]"	"[0, 0, 0, 0, 0, 0, 0, 0, 0, 0, 0, 0, 0, 1]"	"[0.42543540010228753, 0.734958200249821, 1.0003093001432717, 1.4421812002547085, 1.7673752000555396, 2.1587255001068115, 2.500607400201261, 2.808982300106436, 3.3254852001555264, 3.7838675999082625, 5.275646800175309, 6.675990900024772, 8.476021100301296, 9.767559899948537]"	14	"[0.41288179997354746, 0.7225589002482593, 0.9877705001272261, 1.4296256001107395, 1.7548263003118336, 2.146161099895835, 2.488044199999422, 2.7964253001846373, 3.3129222001880407, 3.7713108002208173, 5.2630815003067255, 6.663429900072515, 8.463461299892515, 9.754934400320053]"	"[0.5459206001833081, 0.813094099983573, 1.0795408003032207, 1.579367000143975, 1.8626641002483666, 2.2627548002637923, 2.6212224001064897, 2.9128466001711786, 3.42943669995293, 3.8627853002399206, 5.363140600267798, 6.788017800077796, 8.571702300105244, 9.754938799887896]"	88.81306370021775	88.81907169986516	90.31102519994602	90.32750779995695								01	01	2024-01-30_14h04.00.151	BART_exp	2023.2.3	119.96218785391558	2024-01-30 14h04.16.836073 +0100	
balloon.png	14	0	7	7	3	90.32750779995695													90.31120530003682	90.32750779995695	90.32750779995695	90.32750779995695	90.32750779995695	90.32750779995695	-0.0006422996520996094	-0.0006422996520996094	-0.0006422996520996094	90.32750779995695	94.47154670022428	15	0.70	True	"[-0.06666666666666667, -0.06666666666666667, -0.06666666666666667, -0.06666666666666667, -0.06666666666666667, -0.06666666666666667, -0.06666666666666667, -0.06666666666666667, -0.06666666666666667, -0.06666666666666667, -0.06666666666666667, -0.06666666666666667, -0.06666666666666667, -0.06666666666666667, -0.06666666666666667]"	"[-0.38333333333333336, -0.38333333333333336, -0.38333333333333336, -0.38333333333333336, -0.38333333333333336, -0.38333333333333336, -0.38333333333333336, -0.38333333333333336, -0.38333333333333336, -0.38333333333333336, -0.38333333333333336, -0.38333333333333336, -0.38333333333333336, -0.38333333333333336, -0.38333333333333336]"	"[1, 1, 1, 1, 1, 1, 1, 1, 1, 1, 1, 1, 1, 1, 1]"	"[0, 0, 0, 0, 0, 0, 0, 0, 0, 0, 0, 0, 0, 0, 0]"	"[0, 0, 0, 0, 0, 0, 0, 0, 0, 0, 0, 0, 0, 0, 0]"	"[0.8420462002977729, 1.1838720003142953, 1.4420745000243187, 1.6837872001342475, 1.9089293000288308, 2.1171798002906144, 2.3339376002550125, 2.5589695000089705, 2.758966200053692, 2.9756877003237605, 3.192341700196266, 3.3840096001513302, 3.6006927001290023, 3.833915200084448, 4.058977300301194]"	15	"[0.8367852000519633, 1.1786072002723813, 1.4368119998835027, 1.678524199873209, 1.9036723002791405, 2.111918699927628, 2.3286770000122488, 2.5537070999853313, 2.75370500003919, 2.970426300074905, 3.1870784000493586, 3.3787484001368284, 3.5954322000034153, 3.828650000039488, 4.053719399962574]"	"[0.9199987002648413, 1.2866691001690924, 1.5367601001635194, 1.7699998999014497, 1.9783348999917507, 2.2033629999496043, 2.4367281002923846, 2.645069499965757, 2.863122600130737, 3.0700807999819517, 3.2701133000664413, 3.4867845000699162, 3.6952380002476275, 3.9201549999415874, 4.145178299862891]"	94.47251380002126	94.47782859997824	95.96977590024471	95.98627489991486								01	01	2024-01-30_14h04.00.151	BART_exp	2023.2.3	119.96218785391558	2024-01-30 14h04.16.836073 +0100	
balloon.png	123	0	8	8	28	95.98627489991486													95.96995359985158	95.98627489991486	95.98627489991486	95.98627489991486	95.98627489991486	95.98627489991486	0.01382530014961958			95.98627489991486	102.75488959997892	14	0.70	False	"[-0.06759259259259259, -0.06759259259259259, -0.06759259259259259, -0.06759259259259259, -0.06759259259259259, -0.06759259259259259, -0.06759259259259259, -0.06759259259259259, -0.06759259259259259, -0.06759259259259259, -0.06759259259259259, -0.06759259259259259, -0.06759259259259259, -0.06759259259259259, -0.06759259259259259]"	"[-0.375, -0.375, -0.375, -0.375, -0.375, -0.375, -0.375, -0.375, -0.375, -0.375, -0.375, -0.375, -0.375, -0.375, -0.375]"	"[1, 1, 1, 1, 1, 1, 1, 1, 1, 1, 1, 1, 1, 1, 0]"	"[0, 0, 0, 0, 0, 0, 0, 0, 0, 0, 0, 0, 0, 0, 0]"	"[0, 0, 0, 0, 0, 0, 0, 0, 0, 0, 0, 0, 0, 0, 1]"	"[0.942170400172472, 1.1836629998870194, 1.4336639000102878, 1.7089200001209974, 1.9755432000383735, 2.2505403999239206, 2.9754424998536706, 3.2171109998598695, 3.8171601998619735, 4.217191900126636, 4.752177900169045, 5.033947399817407, 5.575650100130588, 6.092498099897057, 6.7840121001936495]"	15	"[0.9402620000764728, 1.1817505001090467, 1.4317565998062491, 1.7070101997815073, 1.97363519994542, 2.248631900176406, 2.973536199890077, 3.2151959999464452, 3.8152513997629285, 4.215282999910414, 4.75042079994455, 5.032031999900937, 5.573746399953961, 6.090585500001907, 6.782040299847722]"	"[1.0482557001523674, 1.281607300043106, 1.5150008001364768, 1.8316366001963615, 2.0816593999043107, 2.356677600182593, 3.081802499946207, 3.2900559999980032, 3.898427799809724, 4.323495999909937, 4.8401624001562595, 5.133214300032705, 5.665227199904621, 6.1986516998149455, 6.782044900115579]"	102.75568589987233	102.76168140023947	104.25367570016533	104.27011359995231								01	01	2024-01-30_14h04.00.151	BART_exp	2023.2.3	119.96218785391558	2024-01-30 14h04.16.836073 +0100	
balloon.png	114	0	9	9	26	104.27011359995231													104.25386160006747	104.27011359995231	104.27011359995231	104.27011359995231	104.27011359995231	104.27011359995231	-0.0005970001220703125	-0.0005970001220703125	-0.0005970001220703125	104.27011359995231	110.53042830014601	11	0.55	False	"[-0.06759259259259259, -0.06759259259259259, -0.06759259259259259, -0.06759259259259259, -0.06759259259259259, -0.06759259259259259, -0.06759259259259259, -0.06759259259259259, -0.06759259259259259, -0.06759259259259259, -0.06759259259259259, -0.06759259259259259]"	"[-0.375, -0.375, -0.375, -0.375, -0.375, -0.375, -0.375, -0.375, -0.375, -0.375, -0.375, -0.375]"	"[1, 1, 1, 1, 1, 1, 1, 1, 1, 1, 1, 0]"	"[0, 0, 0, 0, 0, 0, 0, 0, 0, 0, 0, 0]"	"[0, 0, 0, 0, 0, 0, 0, 0, 0, 0, 0, 1]"	"[0.4087755000218749, 0.7837861999869347, 1.058657799847424, 1.3671502997167408, 1.675545800011605, 2.142351499758661, 2.950552399735898, 3.325449700001627, 3.842328399885446, 4.458890100009739, 5.167475299909711, 6.275642099790275]"	12	"[0.4063849998638034, 0.7813912001438439, 1.056269200053066, 1.3647535997442901, 1.673153500072658, 2.13995649991557, 2.9481600001454353, 3.323052200023085, 3.839938399847597, 4.4564920999109745, 5.165086499880999, 6.273184000048786]"	"[0.5144420000724494, 0.8810819000937045, 1.156117099802941, 1.4811279000714421, 1.7644857000559568, 2.2478788001462817, 3.0562204997986555, 3.4395837001502514, 3.9563631997443736, 4.55634480016306, 5.3231847998686135, 6.273188499733806]"	110.5312410001643	110.5372148999013	112.02915870025754	112.04564400017262								01	01	2024-01-30_14h04.00.151	BART_exp	2023.2.3	119.96218785391558	2024-01-30 14h04.16.836073 +0100	
balloon.png	88	0	10	10	20	112.04564400017262													112.02933380007744	112.04564400017262	112.04564400017262	112.04564400017262	112.04564400017262	112.04564400017262	-0.0006872001104056835	-0.0006872001104056835	-0.0006872001104056835	112.04564400017262	117.96431129984558	10	0.50	False	"[-0.06759259259259259, -0.06759259259259259, -0.06759259259259259, -0.06759259259259259, -0.06759259259259259, -0.06759259259259259, -0.06759259259259259, -0.06759259259259259, -0.06759259259259259, -0.06759259259259259, -0.06759259259259259]"	"[-0.375, -0.375, -0.375, -0.375, -0.375, -0.375, -0.375, -0.375, -0.375, -0.375, -0.375]"	"[1, 1, 1, 1, 1, 1, 1, 1, 1, 1, 0]"	"[0, 0, 0, 0, 0, 0, 0, 0, 0, 0, 0]"	"[0, 0, 0, 0, 0, 0, 0, 0, 0, 0, 1]"	"[0.4503635000437498, 0.8838952998630702, 1.1755146998912096, 1.5087792999111116, 1.8508008001372218, 2.2256125998683274, 2.6434487998485565, 3.000665199942887, 4.100625699851662, 5.059157699812204, 5.9340647999197245]"	11	"[0.4434285997413099, 0.8769700000993907, 1.1685794997029006, 1.5018418999388814, 1.8438642998225987, 2.2186785000376403, 2.6365339998155832, 2.993727299850434, 4.093688199762255, 5.052220799960196, 5.927064300049096]"	"[0.5599281000904739, 0.9849481000564992, 1.2599630998447537, 1.626672999933362, 1.9600406000390649, 2.3433920997194946, 2.751740099862218, 3.1267462000250816, 4.201818299945444, 5.161642000079155, 5.9270687000826]"	117.96502309991047	117.97108539985493	119.46300610015169	119.4794719000347								01	01	2024-01-30_14h04.00.151	BART_exp	2023.2.3	119.96218785391558	2024-01-30 14h04.16.836073 +0100	
balloon.png	92	0	11	11	21	119.4794719000347													119.46318290010095	119.4794719000347	119.4794719000347	119.4794719000347	119.4794719000347	119.4794719000347	-0.0006054998375475407	-0.0006054998375475407	-0.0006054998375475407	119.4794719000347	125.78157230000943	13	0.65	False	"[-0.06759259259259259, -0.06759259259259259, -0.06759259259259259, -0.06759259259259259, -0.06759259259259259, -0.06759259259259259, -0.06759259259259259, -0.06759259259259259, -0.06759259259259259, -0.06759259259259259, -0.06759259259259259, -0.06759259259259259, -0.06759259259259259, -0.06759259259259259]"	"[-0.375, -0.375, -0.375, -0.375, -0.375, -0.375, -0.375, -0.375, -0.375, -0.375, -0.375, -0.375, -0.375, -0.375]"	"[1, 1, 1, 1, 1, 1, 1, 1, 1, 1, 1, 1, 1, 0]"	"[0, 0, 0, 0, 0, 0, 0, 0, 0, 0, 0, 0, 0, 0]"	"[0, 0, 0, 0, 0, 0, 0, 0, 0, 0, 0, 0, 0, 1]"	"[0.41715489979833364, 0.7003501998260617, 0.9671795000322163, 1.1922276997938752, 1.4338700999505818, 1.6587593997828662, 1.917080500163138, 2.167355800047517, 2.6921267001889646, 2.9673465001396835, 3.3340314999222755, 3.759044600185007, 4.267465999815613, 6.317498899996281]"	13	"[0.41452249977737665, 0.6977097997441888, 0.964538499712944, 1.189587399829179, 1.4312319001182914, 1.656116500031203, 2.164719399996102, 2.6894836998544633, 2.96471059974283, 3.3313887999393046, 3.7564073000103235, 4.264827699866146, 6.314797000028193]"	"[0.5225271997042, 0.8058930998668075, 1.047550099901855, 1.2726083998568356, 1.5142641998827457, 2.02262490009889, 2.297675299923867, 2.7810827996581793, 3.072793799918145, 3.4477182999253273, 3.8644125000573695, 4.372786999680102, 6.314801400061697]"	125.78251580009237	125.78826239984483	127.28022349998355	127.29667910002172								01	01	2024-01-30_14h04.00.151	BART_exp	2023.2.3	119.96218785391558	2024-01-30 14h04.16.836073 +0100	
balloon.png	127	0	12	12	29	127.29667910002172													127.2804128001444	127.29667910002172	127.29667910002172	127.29667910002172	127.29667910002172	127.29667910002172	-0.0007833996787667274	-0.0007833996787667274	-0.0007833996787667274	127.29667910002172	144.49940920015797	20	1.00	False	"[-0.06759259259259259, -0.06759259259259259, -0.06759259259259259, -0.06759259259259259, -0.06759259259259259, -0.06759259259259259, -0.06759259259259259, -0.06759259259259259, -0.06759259259259259, -0.06759259259259259, -0.06759259259259259, -0.06759259259259259, -0.06759259259259259, -0.06759259259259259, -0.06759259259259259, -0.06759259259259259, -0.06759259259259259, -0.06759259259259259, -0.06759259259259259, -0.06759259259259259, -0.06759259259259259]"	"[-0.375, -0.375, -0.375, -0.375, -0.375, -0.375, -0.375, -0.375, -0.375, -0.375, -0.375, -0.375, -0.375, -0.375, -0.375, -0.375, -0.375, -0.375, -0.375, -0.375, -0.375]"	"[1, 1, 1, 1, 1, 1, 1, 1, 1, 1, 1, 1, 1, 1, 1, 1, 1, 1, 1, 1, 0]"	"[0, 0, 0, 0, 0, 0, 0, 0, 0, 0, 0, 0, 0, 0, 0, 0, 0, 0, 0, 0, 0]"	"[0, 0, 0, 0, 0, 0, 0, 0, 0, 0, 0, 0, 0, 0, 0, 0, 0, 0, 0, 0, 1]"	"[0.35883500007912517, 0.6670055002905428, 0.9589953003451228, 1.1754515003412962, 1.4253507000394166, 1.6753263999707997, 1.9005574001930654, 2.258722100406885, 2.525701700244099, 3.475619800388813, 3.9756587999872863, 5.017222800292075, 5.309173000045121, 7.11754190037027, 7.984119600150734, 9.46758359996602, 10.842625900171697, 12.642742100171745, 14.03455140022561, 15.559773400425911, 17.218045700341463]"	21	"[0.3528214995749295, 0.6609629997983575, 0.9529566997662187, 1.169409199617803, 1.4193109995685518, 1.6692868997342885, 1.8945132996886969, 2.252681799698621, 2.5196605999954045, 3.469579499680549, 3.9696204997599125, 5.0111841997131705, 5.303143099881709, 7.11150150001049, 7.978090699762106, 9.461545199621469, 10.836585099808872, 12.636698300018907, 14.028509099967778, 15.553759599570185, 17.2119428999722]"	"[0.4607681999914348, 0.7524148998782039, 1.010748100001365, 1.2691416000016034, 1.5191136999055743, 1.7608653996139765, 2.0025229998864233, 2.360898499842733, 2.610908899921924, 3.5776388999074697, 4.061013299971819, 5.127720799762756, 5.427728299982846, 7.2447303999215364, 8.103003399912268, 9.56968959979713, 10.95317169977352, 12.736651299986988, 14.128362099640071, 15.695081499870867, 17.21194739965722]"	144.5004018000327	144.50621120026335	145.99815799994394	146.01460650004447								01	01	2024-01-30_14h04.00.151	BART_exp	2023.2.3	119.96218785391558	2024-01-30 14h04.16.836073 +0100	
balloon.png	27	0	13	13	6	146.01460650004447													145.99834549985826	146.01460650004447	146.01460650004447	146.01460650004447	146.01460650004447	146.01460650004447	-0.0007930002175271511	-0.0007930002175271511	-0.0007930002175271511	146.01460650004447	159.48371639987454	21	1.05	False	"[-0.06759259259259259, -0.06759259259259259, -0.06759259259259259, -0.06759259259259259, -0.06759259259259259, -0.06759259259259259, -0.06759259259259259, -0.06759259259259259, -0.06759259259259259, -0.06759259259259259, -0.06759259259259259, -0.06759259259259259, -0.06759259259259259, -0.06759259259259259, -0.06759259259259259, -0.06759259259259259, -0.06759259259259259, -0.06759259259259259, -0.06759259259259259, -0.06759259259259259, -0.06759259259259259, -0.06759259259259259]"	"[-0.375, -0.375, -0.375, -0.375, -0.375, -0.375, -0.375, -0.375, -0.375, -0.375, -0.375, -0.375, -0.375, -0.375, -0.375, -0.375, -0.375, -0.375, -0.375, -0.375, -0.375, -0.375]"	"[1, 1, 1, 1, 1, 1, 1, 1, 1, 1, 1, 1, 1, 1, 1, 1, 1, 1, 1, 1, 1, 0]"	"[0, 0, 0, 0, 0, 0, 0, 0, 0, 0, 0, 0, 0, 0, 0, 0, 0, 0, 0, 0, 0, 0]"	"[0, 0, 0, 0, 0, 0, 0, 0, 0, 0, 0, 0, 0, 0, 0, 0, 0, 0, 0, 0, 0, 1]"	"[0.5754761002026498, 1.0421722000464797, 1.4088683002628386, 1.750492200255394, 2.133711399976164, 2.51708050025627, 2.8838925999589264, 3.3339289999566972, 3.733974900096655, 4.11731530027464, 4.492215400096029, 5.050944400019944, 5.392437000293285, 5.975807700306177, 6.3256665002554655, 6.784221000038087, 7.325746400281787, 8.134404000360519, 8.626033599954098, 9.951066800393164, 10.817877300083637, 13.484471400268376]"	22	"[0.5675522997044027, 1.0342381997033954, 1.400943299755454, 1.7425585999153554, 2.1257838997989893, 2.5091490000486374, 2.8759622001089156, 3.326000299770385, 3.726052099838853, 4.109391499776393, 4.48428239999339, 5.0430156998336315, 5.384505199734122, 5.967879599891603, 6.3177311001345515, 6.776308699976653, 7.317832099739462, 8.126487900037318, 8.618100499734282, 9.943136800080538, 10.809951799921691, 13.476476999931037]"	"[0.6755678998306394, 1.1422218000516295, 1.5089384000748396, 1.8672838998027146, 2.2339842999354005, 2.625677099917084, 3.0006967997178435, 3.4424426001496613, 3.842429199721664, 4.217461899854243, 4.609123399946839, 5.150870599783957, 5.475896100047976, 6.075917299836874, 6.425916399806738, 6.8926205998286605, 7.467691599857062, 8.242791200056672, 8.726089099887758, 10.068131399806589, 10.93457969976589, 13.476481299847364]"	159.48481209995225	159.49051719997078	160.9825058002025	160.99897040007636								01	01	2024-01-30_14h04.00.151	BART_exp	2023.2.3	119.96218785391558	2024-01-30 14h04.16.836073 +0100	
balloon.png	71	0	14	14	16	160.99897040007636													160.98268999997526	160.99897040007636	160.99897040007636	160.99897040007636	160.99897040007636	160.99897040007636	-0.000857700128108263	-0.000857700128108263	-0.000857700128108263	160.99897040007636	173.81808579992503	24	1.20	False	"[-0.06759259259259259, -0.06759259259259259, -0.06759259259259259, -0.06759259259259259, -0.06759259259259259, -0.06759259259259259, -0.06759259259259259, -0.06759259259259259, -0.06759259259259259, -0.06759259259259259, -0.06759259259259259, -0.06759259259259259, -0.06759259259259259, -0.06759259259259259, -0.06759259259259259, -0.06759259259259259, -0.06759259259259259, -0.06759259259259259, -0.06759259259259259, -0.06759259259259259, -0.06759259259259259, -0.06759259259259259, -0.06759259259259259, -0.06759259259259259, -0.06759259259259259]"	"[-0.375, -0.375, -0.375, -0.375, -0.375, -0.375, -0.375, -0.375, -0.375, -0.375, -0.375, -0.375, -0.375, -0.375, -0.375, -0.375, -0.375, -0.375, -0.375, -0.375, -0.375, -0.375, -0.375, -0.375, -0.375]"	"[1, 1, 1, 1, 1, 1, 1, 1, 1, 1, 1, 1, 1, 1, 1, 1, 1, 1, 1, 1, 1, 1, 1, 1, 0]"	"[0, 0, 0, 0, 0, 0, 0, 0, 0, 0, 0, 0, 0, 0, 0, 0, 0, 0, 0, 0, 0, 0, 0, 0, 0]"	"[0, 0, 0, 0, 0, 0, 0, 0, 0, 0, 0, 0, 0, 0, 0, 0, 0, 0, 0, 0, 0, 0, 0, 0, 1]"	"[0.42550469981506467, 0.7504789996892214, 1.0171666997484863, 1.2921003997325897, 1.542158399708569, 1.8255392001010478, 2.1589176999405026, 2.4422344998456538, 2.708764699753374, 2.983940999954939, 3.2671317998319864, 3.5339436000213027, 3.8256687996909022, 4.092236299999058, 4.367406799923629, 4.742370800115168, 5.042417699936777, 5.4006326999515295, 6.025801799725741, 7.084120700135827, 7.975952799897641, 9.21775469975546, 10.492844199761748, 11.93456680001691, 12.834459099918604]"	25	"[0.4222042001783848, 0.7471687998622656, 1.0138602000661194, 1.2887905002571642, 1.5388465002179146, 1.8222334999591112, 2.155607200227678, 2.4389248001389205, 2.705463500227779, 2.980638800188899, 3.2638318999670446, 3.530633999966085, 3.822363100014627, 4.0889266999438405, 4.364097699988633, 4.739065600093454, 5.039111800026149, 5.397328500170261, 6.022498399950564, 7.080812499858439, 7.972642300184816, 9.214445299934596, 10.489546800032258, 11.931254300288856, 12.831092699896544]"	"[0.5385071998462081, 0.8469102000817657, 1.1135212001390755, 1.3635376999154687, 1.6468854998238385, 1.930265599861741, 2.271925500128418, 2.5387385999783874, 2.8053613998927176, 3.10533760022372, 3.397013899870217, 3.67203770019114, 3.9303758000023663, 4.1971195000223815, 4.513772800099105, 4.86380030028522, 5.148742800112814, 5.530529499985278, 6.1486120000481606, 7.197317400015891, 8.080647599883378, 9.322443000040948, 10.605816500261426, 12.039249900262803, 12.831097200047225]"	173.8191470000893	173.82482300000265	175.3167802998796	175.33325310004875								01	01	2024-01-30_14h04.00.151	BART_exp	2023.2.3	119.96218785391558	2024-01-30 14h04.16.836073 +0100	
balloon.png	105	0	15	15	24	175.33325310004875													175.3169618002139	175.33325310004875	175.33325310004875	175.33325310004875	175.33325310004875	175.33325310004875	-0.0009361999109387398	-0.0009361999109387398	-0.0009361999109387398	175.33325310004875	182.12735540000722	10	0.50	False	"[-0.06759259259259259, -0.06759259259259259, -0.06759259259259259, -0.06759259259259259, -0.06759259259259259, -0.06759259259259259, -0.06759259259259259, -0.06759259259259259, -0.06759259259259259, -0.06759259259259259, -0.06759259259259259]"	"[-0.375, -0.375, -0.375, -0.375, -0.375, -0.375, -0.375, -0.375, -0.375, -0.375, -0.375]"	"[1, 1, 1, 1, 1, 1, 1, 1, 1, 1, 0]"	"[0, 0, 0, 0, 0, 0, 0, 0, 0, 0, 0]"	"[0, 0, 0, 0, 0, 0, 0, 0, 0, 0, 1]"	"[0.5336711001582444, 0.9003509003669024, 1.183837200049311, 1.9254124001599848, 2.3087838999927044, 2.775496100075543, 3.2007166002877057, 3.6507270000874996, 5.125685200095177, 6.050975400023162, 6.809475000016391]"	11	"[0.5244762999936938, 0.8911496000364423, 1.1746340999379754, 1.916205400135368, 2.2995846001431346, 2.766289799939841, 3.1915254998020828, 3.641532499808818, 5.1164870001375675, 6.041771200019866, 6.800220199860632]"	"[0.6493412000127137, 0.9911326998844743, 1.291014399845153, 2.0410611000843346, 2.424447000026703, 2.8744797999970615, 3.3079333999194205, 3.749678899999708, 5.224686000030488, 6.174695299938321, 6.800224599894136]"	182.12811130005866	182.13371870014817	183.62567309988663	183.63386279996485								01	01	2024-01-30_14h04.00.151	BART_exp	2023.2.3	119.96218785391558	2024-01-30 14h04.16.836073 +0100	
balloon.png	118	0	16	16	27	183.63386279996485													183.62584670027718	183.63386279996485	183.63386279996485	183.63386279996485	183.63386279996485	183.63386279996485	0.005860900040715933	0.005860900040715933	0.005860900040715933	183.63386279996485	196.34470679983497	30	1.50	False	"[-0.06759259259259259, -0.06759259259259259, -0.06759259259259259, -0.06759259259259259, -0.06759259259259259, -0.06759259259259259, -0.06759259259259259, -0.06759259259259259, -0.06759259259259259, -0.06759259259259259, -0.06759259259259259, -0.06759259259259259, -0.06759259259259259, -0.06759259259259259, -0.06759259259259259, -0.06759259259259259, -0.06759259259259259, -0.06759259259259259, -0.06759259259259259, -0.06759259259259259, -0.06759259259259259, -0.06759259259259259, -0.06759259259259259, -0.06759259259259259, -0.06759259259259259, -0.06759259259259259, -0.06759259259259259, -0.06759259259259259, -0.06759259259259259, -0.06759259259259259, -0.06759259259259259]"	"[-0.375, -0.375, -0.375, -0.375, -0.375, -0.375, -0.375, -0.375, -0.375, -0.375, -0.375, -0.375, -0.375, -0.375, -0.375, -0.375, -0.375, -0.375, -0.375, -0.375, -0.375, -0.375, -0.375, -0.375, -0.375, -0.375, -0.375, -0.375, -0.375, -0.375, -0.375]"	"[1, 1, 1, 1, 1, 1, 1, 1, 1, 1, 1, 1, 1, 1, 1, 1, 1, 1, 1, 1, 1, 1, 1, 1, 1, 1, 1, 1, 1, 1, 0]"	"[0, 0, 0, 0, 0, 0, 0, 0, 0, 0, 0, 0, 0, 0, 0, 0, 0, 0, 0, 0, 0, 0, 0, 0, 0, 0, 0, 0, 0, 0, 0]"	"[0, 0, 0, 0, 0, 0, 0, 0, 0, 0, 0, 0, 0, 0, 0, 0, 0, 0, 0, 0, 0, 0, 0, 0, 0, 0, 0, 0, 0, 0, 1]"	"[0.558827199973166, 0.875513800419867, 1.1753780003637075, 1.425368900410831, 1.6771144000813365, 1.9172894000075758, 2.15072980010882, 2.383791500236839, 2.7091478002257645, 3.000486600212753, 3.2171762003563344, 3.4422124000266194, 3.6925494000315666, 3.909032500348985, 4.1589375003241, 4.443517800420523, 4.867681000381708, 5.184000400360674, 5.450777600053698, 5.767378700431436, 6.134183300193399, 6.4340499001555145, 6.700943500269204, 7.0007625999860466, 7.492683300282806, 7.942639700137079, 8.826066200155765, 9.709443700034171, 10.751202700193971, 11.909605600405484, 12.717955200001597]"	31	"[0.5569712999276817, 0.8736546002328396, 1.173517799936235, 1.4235127000138164, 1.6754147000610828, 1.9154352000914514, 2.1488717002794147, 2.381939500104636, 2.7072871001437306, 2.998623500112444, 3.215314300265163, 3.440350200049579, 3.6906892000697553, 3.9071698002517223, 4.15708120027557, 4.44181860005483, 4.865820600185543, 5.182138500269502, 5.4489194001071155, 5.765521900262684, 6.132321500219405, 6.432190200313926, 6.699095299933106, 6.998904900159687, 7.490822399966419, 7.94078249996528, 8.824208099860698, 9.707581100054085, 10.74934730026871, 11.907750200014561, 12.716038400307298]"	"[0.6649688999168575, 0.9901157999411225, 1.256703699938953, 1.506709299981594, 1.756771800108254, 1.9817376001738012, 2.2067753998562694, 2.456772900186479, 2.8152089002542198, 3.073519399855286, 3.306904800236225, 3.5321082998998463, 3.7735668001696467, 4.006932900287211, 4.256887100171298, 4.548589600250125, 4.982080600224435, 5.307007799856365, 5.590399399865419, 5.890346100088209, 6.240387400146574, 6.540471300017089, 6.815411900170147, 7.148758199997246, 7.615565100219101, 8.073831700254232, 8.965543400030583, 9.840660000219941, 10.88238470023498, 12.032432900276035, 12.71604279987514]"	196.3459239001386	196.35139090009034	197.84329110011458	197.85152979986742								01	01	2024-01-30_14h04.00.151	BART_exp	2023.2.3	119.96218785391558	2024-01-30 14h04.16.836073 +0100	
balloon.png	110	0	17	17	25	197.85152979986742													197.84347070008516	197.85152979986742	197.85152979986742	197.85152979986742	197.85152979986742	197.85152979986742	0.005673999898135662	0.005673999898135662	0.005673999898135662	197.85152979986742	205.11196719994769	18	0.90	False	"[-0.06759259259259259, -0.06759259259259259, -0.06759259259259259, -0.06759259259259259, -0.06759259259259259, -0.06759259259259259, -0.06759259259259259, -0.06759259259259259, -0.06759259259259259, -0.06759259259259259, -0.06759259259259259, -0.06759259259259259, -0.06759259259259259, -0.06759259259259259, -0.06759259259259259, -0.06759259259259259, -0.06759259259259259, -0.06759259259259259, -0.06759259259259259]"	"[-0.375, -0.375, -0.375, -0.375, -0.375, -0.375, -0.375, -0.375, -0.375, -0.375, -0.375, -0.375, -0.375, -0.375, -0.375, -0.375, -0.375, -0.375, -0.375]"	"[1, 1, 1, 1, 1, 1, 1, 1, 1, 1, 1, 1, 1, 1, 1, 1, 1, 1, 0]"	"[0, 0, 0, 0, 0, 0, 0, 0, 0, 0, 0, 0, 0, 0, 0, 0, 0, 0, 0]"	"[0, 0, 0, 0, 0, 0, 0, 0, 0, 0, 0, 0, 0, 0, 0, 0, 0, 0, 1]"	"[0.5753359999507666, 0.8838094002567232, 1.2003842000849545, 1.4505472998134792, 1.7170575000345707, 1.9671229999512434, 2.208749100100249, 2.4256095001474023, 2.6756380000151694, 2.90886150021106, 3.1674577998928726, 3.434095600154251, 3.7173448000103235, 3.9755857000127435, 4.2521358001977205, 4.600607600063086, 5.309117299970239, 5.992489600088447, 7.267561399843544]"	19	"[0.573430800344795, 0.881899300031364, 1.198475900106132, 1.448639300186187, 1.7151445001363754, 1.9652123004198074, 2.2068319004029036, 2.4236934003420174, 2.6737252003513277, 2.9069502004422247, 3.1655511003918946, 3.432181800249964, 3.715432500001043, 3.9736775001510978, 4.250389900058508, 4.59869290003553, 5.307206600438803, 5.990581800229847, 7.265584600158036]"	"[0.7065882002934813, 1.0066577000543475, 1.2816032003611326, 1.5566210001707077, 1.8233294002711773, 2.07334310002625, 2.2817762000486255, 2.523366200271994, 2.781715600285679, 3.015411500353366, 3.2900905003771186, 3.5651001003570855, 3.8235030001960695, 4.106897400226444, 4.381830400321633, 4.706842600367963, 5.4235731000080705, 6.098622600082308, 7.265588900074363]"	205.1129717999138	205.1186496000737	206.61056250007823	206.62710769986734								01	01	2024-01-30_14h04.00.151	BART_exp	2023.2.3	119.96218785391558	2024-01-30 14h04.16.836073 +0100	
balloon.png	79	0	18	18	18	206.62710769986734													206.6107385000214	206.62710769986734	206.62710769986734	206.62710769986734	206.62710769986734	206.62710769986734	-0.0009445999749004841	-0.0009445999749004841	-0.0009445999749004841	206.62710769986734	226.99827140010893	40	2.00	False	"[-0.06759259259259259, -0.06759259259259259, -0.06759259259259259, -0.06759259259259259, -0.06759259259259259, -0.06759259259259259, -0.06759259259259259, -0.06759259259259259, -0.06759259259259259, -0.06759259259259259, -0.06759259259259259, -0.06759259259259259, -0.06759259259259259, -0.06759259259259259, -0.06759259259259259, -0.06759259259259259, -0.06759259259259259, -0.06759259259259259, -0.06759259259259259, -0.06759259259259259, -0.06759259259259259, -0.06759259259259259, -0.06759259259259259, -0.06759259259259259, -0.06759259259259259, -0.06759259259259259, -0.06759259259259259, -0.06759259259259259, -0.06759259259259259, -0.06759259259259259, -0.06759259259259259, -0.06759259259259259, -0.06759259259259259, -0.06759259259259259, -0.06759259259259259, -0.06759259259259259, -0.06759259259259259, -0.06759259259259259, -0.06759259259259259, -0.06759259259259259, -0.06759259259259259]"	"[-0.375, -0.375, -0.375, -0.375, -0.375, -0.375, -0.375, -0.375, -0.375, -0.375, -0.375, -0.375, -0.375, -0.375, -0.375, -0.375, -0.375, -0.375, -0.375, -0.375, -0.375, -0.375, -0.375, -0.375, -0.375, -0.375, -0.375, -0.375, -0.375, -0.375, -0.375, -0.375, -0.375, -0.375, -0.375, -0.375, -0.375, -0.375, -0.375, -0.375, -0.375]"	"[1, 1, 1, 1, 1, 1, 1, 1, 1, 1, 1, 1, 1, 1, 1, 1, 1, 1, 1, 1, 1, 1, 1, 1, 1, 1, 1, 1, 1, 1, 1, 1, 1, 1, 1, 1, 1, 1, 1, 1, 0]"	"[0, 0, 0, 0, 0, 0, 0, 0, 0, 0, 0, 0, 0, 0, 0, 0, 0, 0, 0, 0, 0, 0, 0, 0, 0, 0, 0, 0, 0, 0, 0, 0, 0, 0, 0, 0, 0, 0, 0, 0, 0]"	"[0, 0, 0, 0, 0, 0, 0, 0, 0, 0, 0, 0, 0, 0, 0, 0, 0, 0, 0, 0, 0, 0, 0, 0, 0, 0, 0, 0, 0, 0, 0, 0, 0, 0, 0, 0, 0, 0, 0, 0, 1]"	"[0.7171734999865294, 1.0337108001112938, 1.325543100014329, 1.6171169001609087, 1.9270036998204887, 2.2254482000134885, 2.5505292997695506, 2.8756474000401795, 3.242310700006783, 3.6256678998470306, 4.01721390010789, 4.442472999915481, 5.008972299750894, 5.475801900029182, 5.875840299762785, 6.434327499940991, 6.767410299740732, 7.075933400075883, 7.467617500107735, 7.884354900103062, 8.350837099831551, 8.734242300037295, 9.07607419975102, 9.41770870005712, 9.742605300154537, 10.059540200047195, 10.401112699881196, 11.026190099772066, 11.55941059999168, 11.984592100139707, 12.54279109975323, 13.359546300023794, 13.876489500049502, 14.419193299952894, 15.001281300093979, 15.551341000013053, 16.36804630002007, 17.159917700104415, 18.476735400035977, 19.29328119987622, 20.386418899986893]"	39	"[0.7119916998781264, 1.028525199741125, 1.320359000004828, 1.9219857999123633, 2.220265499781817, 2.545347800012678, 2.870466399937868, 3.2371303997933865, 3.620482999831438, 4.012026899959892, 4.437292899936438, 5.003787899855524, 5.470613299869001, 5.87065379973501, 6.429140499792993, 6.7622222998179495, 7.070754999760538, 7.462432399857789, 7.879175199661404, 8.345654800068587, 8.729056699667126, 9.070888800080866, 9.41251919977367, 9.737424899823964, 10.054358799941838, 10.395933299791068, 11.021004999987781, 11.554224699735641, 11.979407100006938, 12.537606100086123, 13.354359699878842, 13.871306099928916, 14.99609739985317, 15.546160100027919, 16.362866799812764, 17.154735499992967, 18.471549999900162, 19.288099399767816, 20.381279000081122]"	"[0.8200477999635041, 1.1366979996673763, 1.745084600057453, 2.0367356999777257, 2.3367550000548363, 2.670132599771023, 3.003484500106424, 3.3954059998504817, 3.7702084998600185, 4.170239799655974, 4.59525839984417, 5.136948300059885, 5.603679900057614, 6.021730199921876, 6.570425599813461, 6.878915699664503, 7.20375659968704, 7.578771399799734, 8.028808999806643, 8.470661900006235, 8.871409799903631, 9.203997899778187, 9.545585799962282, 9.870666499715298, 10.203962800092995, 10.512323800008744, 11.154009599704295, 11.687438699882478, 12.137448099907488, 12.670815399847925, 13.4791812999174, 14.54591939970851, 15.112774400040507, 15.671010199934244, 16.49609089968726, 17.28832340007648, 18.587864599656314, 19.412921600043774, 20.38128659967333]"	226.99955150019377	227.01176019990817	228.5036098002456									01	01	2024-01-30_14h04.00.151	BART_exp	2023.2.3	119.96218785391558	2024-01-30 14h04.16.836073 +0100	
balloon.png	10	0	19	19	2	228.52025179984048													228.50379370013252	228.52025179984048	228.52025179984048	228.52025179984048	228.52025179984048	228.52025179984048	0.005497999954968691	0.005497999954968691	0.005497999954968691	228.52025179984048	231.67254720022902	11	0.50	True	"[-0.06759259259259259, -0.06759259259259259, -0.06759259259259259, -0.06759259259259259, -0.06759259259259259, -0.06759259259259259, -0.06759259259259259, -0.06759259259259259, -0.06759259259259259, -0.06759259259259259, -0.06759259259259259]"	"[-0.375, -0.375, -0.375, -0.375, -0.375, -0.375, -0.375, -0.375, -0.375, -0.375, -0.375]"	"[1, 1, 1, 1, 1, 1, 1, 1, 1, 1, 1]"	"[0, 0, 0, 0, 0, 0, 0, 0, 0, 0, 0]"	"[0, 0, 0, 0, 0, 0, 0, 0, 0, 0, 0]"	"[0.6921485997736454, 1.0504723996855319, 1.2922497997060418, 1.5341023998335004, 1.7423302996903658, 1.9673438998870552, 2.2006878997199237, 2.408932500053197, 2.625608599744737, 2.8506787000223994, 3.075587499886751]"	11	"[0.6896104998886585, 1.0479371002875268, 1.2897047000005841, 1.5315749999135733, 1.7397882998920977, 1.964806899894029, 2.198145200032741, 2.406391399912536, 2.6230701999738812, 2.8481435999274254, 3.073047500103712]"	"[0.7324966001324356, 1.1562203001230955, 1.4061153000220656, 1.6144691999070346, 1.839467900339514, 2.0561665003187954, 2.289528999943286, 2.48952449997887, 2.7145650000311434, 2.9396583000198007, 3.1562139000743628]"	231.67332299984992	231.67873740009964	233.17071200022474	233.1788384001702								01	01	2024-01-30_14h04.00.151	BART_exp	2023.2.3	119.96218785391558	2024-01-30 14h04.16.836073 +0100	
balloon.png	84	0	20	20	19	233.1788384001702													233.17089590011165	233.1788384001702	233.1788384001702	233.1788384001702	233.1788384001702	233.1788384001702	0.0055737001821398735			233.1788384001702	244.7229161001742	41	2.05	False	"[-0.07314814814814814, -0.07314814814814814, -0.07314814814814814, -0.07314814814814814, -0.07314814814814814, -0.07314814814814814, -0.07314814814814814, -0.07314814814814814, -0.07314814814814814, -0.07314814814814814, -0.07314814814814814, -0.07314814814814814, -0.07314814814814814, -0.07314814814814814, -0.07314814814814814, -0.07314814814814814, -0.07314814814814814, -0.07314814814814814, -0.07314814814814814, -0.07314814814814814, -0.07314814814814814, -0.07314814814814814, -0.07314814814814814, -0.07314814814814814, -0.07314814814814814, -0.07314814814814814, -0.07314814814814814, -0.07314814814814814, -0.07314814814814814, -0.07314814814814814, -0.07314814814814814, -0.07314814814814814, -0.07314814814814814, -0.07314814814814814, -0.07314814814814814, -0.07314814814814814, -0.07314814814814814, -0.07314814814814814, -0.07314814814814814, -0.07314814814814814, -0.07314814814814814, -0.07407407407407407]"	"[-0.37407407407407406, -0.3768518518518518, -0.3768518518518518, -0.3768518518518518, -0.3768518518518518, -0.3768518518518518, -0.3768518518518518, -0.3768518518518518, -0.3768518518518518, -0.3768518518518518, -0.3768518518518518, -0.3768518518518518, -0.3768518518518518, -0.3768518518518518, -0.3768518518518518, -0.3768518518518518, -0.3768518518518518, -0.3768518518518518, -0.3768518518518518, -0.3768518518518518, -0.3768518518518518, -0.3768518518518518, -0.3768518518518518, -0.3768518518518518, -0.3768518518518518, -0.3768518518518518, -0.3768518518518518, -0.3768518518518518, -0.3768518518518518, -0.3768518518518518, -0.3768518518518518, -0.3768518518518518, -0.3768518518518518, -0.3768518518518518, -0.3768518518518518, -0.3768518518518518, -0.3768518518518518, -0.37777777777777777, -0.37777777777777777, -0.37777777777777777, -0.37777777777777777, -0.37777777777777777]"	"[1, 1, 1, 1, 1, 1, 1, 1, 1, 1, 1, 1, 1, 1, 1, 1, 1, 1, 1, 1, 1, 1, 1, 1, 1, 1, 1, 1, 1, 1, 1, 1, 1, 1, 1, 1, 1, 1, 1, 1, 1, 0]"	"[0, 0, 0, 0, 0, 0, 0, 0, 0, 0, 0, 0, 0, 0, 0, 0, 0, 0, 0, 0, 0, 0, 0, 0, 0, 0, 0, 0, 0, 0, 0, 0, 0, 0, 0, 0, 0, 0, 0, 0, 0, 0]"	"[0, 0, 0, 0, 0, 0, 0, 0, 0, 0, 0, 0, 0, 0, 0, 0, 0, 0, 0, 0, 0, 0, 0, 0, 0, 0, 0, 0, 0, 0, 0, 0, 0, 0, 0, 0, 0, 0, 0, 0, 0, 1]"	"[0.7919779000803828, 1.342044500168413, 1.6003650999628007, 1.842253000009805, 2.075554999988526, 2.3172467001713812, 2.550443499814719, 2.792153100017458, 3.0172600001096725, 3.258959800004959, 3.5173212001100183, 3.76717620017007, 4.0018577999435365, 4.234047099947929, 4.484134700149298, 4.734082099981606, 4.9922473998740315, 5.217404100112617, 5.434142100159079, 5.659167000092566, 5.89251619996503, 6.100877400022, 6.325850199908018, 6.542389499954879, 6.759034899994731, 6.9841670002788305, 7.192757400218397, 7.40079650003463, 7.62580499984324, 7.850959800183773, 8.076010100077838, 8.317530300002545, 8.55083950003609, 8.792522999923676, 9.000865300185978, 9.234361399896443, 9.434381800238043, 9.742590900044888, 9.959284800104797, 10.184286300092936, 10.40945030003786, 11.551094300113618]"	42	"[0.7900702999904752, 1.3401318001560867, 1.598451199941337, 1.8403413002379239, 2.0736390999518335, 2.3153305002488196, 2.5485326000489295, 2.7902425001375377, 3.01534410007298, 3.257050400134176, 3.5154082998633385, 3.7652612002566457, 4.000117000192404, 4.232137199956924, 4.482244099956006, 4.732166100293398, 4.990340900141746, 5.215490099973977, 5.432231199927628, 5.6572544001974165, 5.8906033001840115, 6.098964300006628, 6.32393559999764, 6.540479199960828, 6.757120700087398, 6.98225470026955, 7.190843500196934, 7.398884300142527, 7.623891900293529, 7.849049299955368, 8.074106600135565, 8.315619400236756, 8.548925400245935, 8.790606500115246, 8.99894839990884, 9.232444299850613, 9.432542500086129, 9.74068329995498, 9.957373199984431, 10.182372100185603, 10.407534699887037, 11.549117600079626]"	"[0.9399800999090075, 1.4567243000492454, 1.7068810001946986, 1.9413916002959013, 2.1900482000783086, 2.423434100113809, 2.656768800225109, 2.898459100164473, 3.1317328000441194, 3.398421199992299, 3.6318256999365985, 3.873460500035435, 4.098462900146842, 4.365169900003821, 4.606824500020593, 4.856967700179666, 5.090186700224876, 5.323606800287962, 5.548565200064331, 5.765297899954021, 5.990339499898255, 6.207142500206828, 6.432024999987334, 6.640368100255728, 6.865368099883199, 7.073677100241184, 7.2903889999724925, 7.490407099947333, 7.723719200119376, 7.957130399998277, 8.190411000046879, 8.423764999955893, 8.648778399918228, 8.898884400259703, 9.098861900158226, 9.315497600007802, 9.55719990003854, 9.84908779989928, 10.057292399927974, 10.290613300167024, 10.515613799914718, 11.54912200011313]"	244.7243138998747	244.72961900010705	246.22158640017733	246.2297632000409								01	01	2024-01-30_14h04.00.151	BART_exp	2023.2.3	119.96218785391558	2024-01-30 14h04.16.836073 +0100	
balloon.png	62	0	21	21	14	246.2297632000409													246.22177329985425	246.2297632000409	246.2297632000409	246.2297632000409	246.2297632000409	246.2297632000409	0.005514299962669611	0.005514299962669611	0.005514299962669611	246.2297632000409	251.68178240023553	19	0.95	False	"[-0.07407407407407407, -0.07407407407407407, -0.07407407407407407, -0.07407407407407407, -0.07407407407407407, -0.07407407407407407, -0.07407407407407407, -0.07407407407407407, -0.07407407407407407, -0.07407407407407407, -0.07407407407407407, -0.07407407407407407, -0.07407407407407407, -0.07407407407407407, -0.07407407407407407, -0.07407407407407407, -0.07407407407407407, -0.07407407407407407, -0.07407407407407407, -0.07407407407407407]"	"[-0.37777777777777777, -0.37777777777777777, -0.37777777777777777, -0.37777777777777777, -0.37777777777777777, -0.37777777777777777, -0.37777777777777777, -0.37777777777777777, -0.37777777777777777, -0.37777777777777777, -0.37777777777777777, -0.37777777777777777, -0.37777777777777777, -0.37777777777777777, -0.37777777777777777, -0.37777777777777777, -0.37777777777777777, -0.37777777777777777, -0.37777777777777777, -0.37777777777777777]"	"[1, 1, 1, 1, 1, 1, 1, 1, 1, 1, 1, 1, 1, 1, 1, 1, 1, 1, 1, 0]"	"[0, 0, 0, 0, 0, 0, 0, 0, 0, 0, 0, 0, 0, 0, 0, 0, 0, 0, 0, 0]"	"[0, 0, 0, 0, 0, 0, 0, 0, 0, 0, 0, 0, 0, 0, 0, 0, 0, 0, 0, 1]"	"[0.35046690003946424, 0.5922476998530328, 0.7921992000192404, 1.0171417002566159, 1.2338243001140654, 1.4506395002827048, 1.6755400002002716, 1.8921634000726044, 2.117079600226134, 2.3589293998666108, 2.5839482001028955, 2.817412500269711, 3.0270321001298726, 3.2423192001879215, 3.45885210018605, 3.6922585000284016, 3.9088467000983655, 4.184029500000179, 4.800746100023389, 5.459080200176686]"	20	"[0.34858629992231727, 0.590366399846971, 0.7903097998350859, 1.0153759997338057, 1.2319346996955574, 1.4487572996877134, 1.6736550000496209, 1.8902723998762667, 2.1152027999050915, 2.357044799719006, 2.5820661997422576, 2.8155280998907983, 3.025310500059277, 3.240428699646145, 3.456961799878627, 3.6903715999796987, 3.9069550996646285, 4.182139500044286, 4.79885539971292, 5.457132899668068]"	"[0.46493260003626347, 0.6899583996273577, 0.9066389999352396, 1.106627699919045, 1.3316357000730932, 1.5483399997465312, 1.75667139980942, 1.981680499855429, 2.223356899805367, 2.4733642996288836, 2.6901162997819483, 2.923409499693662, 3.1234684996306896, 3.331751599907875, 3.565126799978316, 3.7817813996225595, 3.9984725997783244, 4.290157199837267, 4.915205299854279, 5.4571372997015715]"	251.68274770025164	251.69677240028977	253.18855920014903									01	01	2024-01-30_14h04.00.151	BART_exp	2023.2.3	119.96218785391558	2024-01-30 14h04.16.836073 +0100	
balloon.png	31	0	22	22	7	253.2051907000132													253.1887358999811	253.2051907000132	253.2051907000132	253.2051907000132	253.2051907000132	253.2051907000132	0.007223400287330151	0.007223400287330151	0.007223400287330151	253.2051907000132	261.2496285000816	32	1.55	True	"[-0.07407407407407407, -0.07407407407407407, -0.07407407407407407, -0.07407407407407407, -0.07407407407407407, -0.07407407407407407, -0.07407407407407407, -0.07407407407407407, -0.07407407407407407, -0.07407407407407407, -0.07407407407407407, -0.07407407407407407, -0.075, -0.075, -0.075, -0.075, -0.075, -0.075, -0.075, -0.075, -0.075, -0.075, -0.075, -0.075, -0.075, -0.075, -0.075, -0.075, -0.075, -0.075, -0.075, -0.075]"	"[-0.37777777777777777, -0.37777777777777777, -0.37777777777777777, -0.37777777777777777, -0.37777777777777777, -0.37777777777777777, -0.37777777777777777, -0.3768518518518518, -0.3768518518518518, -0.3768518518518518, -0.3768518518518518, -0.3768518518518518, -0.3768518518518518, -0.3768518518518518, -0.3768518518518518, -0.3768518518518518, -0.3768518518518518, -0.3768518518518518, -0.3768518518518518, -0.3768518518518518, -0.3768518518518518, -0.3768518518518518, -0.3768518518518518, -0.3768518518518518, -0.3768518518518518, -0.3768518518518518, -0.3768518518518518, -0.3768518518518518, -0.3768518518518518, -0.3768518518518518, -0.3768518518518518, -0.3768518518518518]"	"[1, 1, 1, 1, 1, 1, 1, 1, 1, 1, 1, 1, 1, 1, 1, 1, 1, 1, 1, 1, 1, 1, 1, 1, 1, 1, 1, 1, 1, 1, 1, 1]"	"[0, 0, 0, 0, 0, 0, 0, 0, 0, 0, 0, 0, 0, 0, 0, 0, 0, 0, 0, 0, 0, 0, 0, 0, 0, 0, 0, 0, 0, 0, 0, 0]"	"[0, 0, 0, 0, 0, 0, 0, 0, 0, 0, 0, 0, 0, 0, 0, 0, 0, 0, 0, 0, 0, 0, 0, 0, 0, 0, 0, 0, 0, 0, 0, 0]"	"[0.38392180018126965, 0.617327299900353, 0.8173503000289202, 1.0340396002866328, 1.2590314000844955, 1.4758224999532104, 1.7089229999110103, 1.9589269999414682, 2.1924585001543164, 2.4605323001742363, 2.7258581002242863, 2.9256453001871705, 3.1506751999258995, 3.3758634999394417, 3.6175466999411583, 3.8676221002824605, 4.134081800002605, 4.367704400327057, 4.6093031000345945, 4.842687500175089, 5.084222000092268, 5.31768020009622, 5.59266550000757, 5.884240000043064, 6.134227300062776, 6.384507399983704, 6.617913400288671, 6.851308499928564, 7.092682899907231, 7.36776169994846, 7.684314300306141, 7.934601200278848]"	32	"[0.3683315999805927, 0.610005000140518, 0.810030700173229, 1.0267130001448095, 1.251709499862045, 1.468498700298369, 1.7016023001633584, 1.9516038000583649, 2.1851372001692653, 2.453367799986154, 2.7185396999120712, 2.9183201999403536, 3.1433485001325607, 3.3685412001796067, 3.610229699872434, 3.8603099999018013, 4.126758099999279, 4.360381599981338, 4.601981200277805, 4.8353602001443505, 5.076898999977857, 5.310359099879861, 5.585344700142741, 5.876915300264955, 6.126905700191855, 6.377183999866247, 6.610588199924678, 6.843988600187004, 7.085360399913043, 7.36043839994818, 7.676992100197822, 7.9272924000397325]"	"[0.484678499866277, 0.7013705000281334, 0.9013713002204895, 1.1347260000184178, 1.3514956003054976, 1.5764449001289904, 1.8098478000611067, 2.059788799844682, 2.3014635001309216, 2.568170899990946, 2.768185700289905, 3.0181813002564013, 3.2516962001100183, 3.484928600024432, 3.7432706002146006, 3.993302899878472, 4.243269499856979, 4.484998399857432, 4.726652199868113, 4.9517919002100825, 5.185012800153345, 5.443371400237083, 5.718410499859601, 5.9933827999047935, 6.251930700149387, 6.493417500052601, 6.726751800160855, 6.951945499982685, 7.201803300064057, 7.526844200212508, 7.793524499982595, 8.043776399921626]"	261.25076800026	261.25578400027007	262.74770630011335	262.75583600020036								01	01	2024-01-30_14h04.00.151	BART_exp	2023.2.3	119.96218785391558	2024-01-30 14h04.16.836073 +0100	
balloon.png	18	0	23	23	4	262.75583600020036													262.74788130028173	262.75583600020036	262.75583600020036	262.75583600020036	262.75583600020036	262.75583600020036	0.0051254997961223125			262.75583600020036	269.5081699001603	19	0.90	True	"[-0.08333333333333333, -0.08333333333333333, -0.08333333333333333, -0.08333333333333333, -0.08333333333333333, -0.08333333333333333, -0.08333333333333333, -0.08333333333333333, -0.08333333333333333, -0.08333333333333333, -0.08333333333333333, -0.08333333333333333, -0.08333333333333333, -0.08333333333333333, -0.08333333333333333, -0.08333333333333333, -0.08333333333333333, -0.08333333333333333, -0.08333333333333333]"	"[-0.37407407407407406, -0.37407407407407406, -0.37407407407407406, -0.37407407407407406, -0.37407407407407406, -0.37407407407407406, -0.37407407407407406, -0.37407407407407406, -0.37407407407407406, -0.37407407407407406, -0.37407407407407406, -0.37407407407407406, -0.37407407407407406, -0.37407407407407406, -0.37407407407407406, -0.37407407407407406, -0.37407407407407406, -0.37407407407407406, -0.37407407407407406]"	"[1, 1, 1, 1, 1, 1, 1, 1, 1, 1, 1, 1, 1, 1, 1, 1, 1, 1, 1]"	"[0, 0, 0, 0, 0, 0, 0, 0, 0, 0, 0, 0, 0, 0, 0, 0, 0, 0, 0]"	"[0, 0, 0, 0, 0, 0, 0, 0, 0, 0, 0, 0, 0, 0, 0, 0, 0, 0, 0]"	"[0.6921811997890472, 0.9338067998178303, 1.1921545998193324, 1.4505376000888646, 1.700567599851638, 1.9922862001694739, 2.258932199794799, 2.5504596000537276, 2.8270390001125634, 3.117362199816853, 3.4007545998319983, 3.650701600126922, 3.8924218001775444, 4.684098599944264, 5.067812299821526, 5.425814500078559, 5.834248200058937, 6.3007449000142515, 6.625938099808991]"	19	"[0.6902540000155568, 0.9318766999058425, 1.1902226996608078, 1.4486126997508109, 1.6986357998102903, 1.9903564997948706, 2.257000499870628, 2.5485267997719347, 2.8252681996673346, 3.11543449992314, 3.398822699673474, 3.6487757996656, 3.8904909999109805, 4.682169999927282, 5.066007599700242, 5.423884099815041, 5.832323200069368, 6.2988175000064075, 6.624009300023317]"	"[0.7982777999714017, 1.0482942997477949, 1.3066683998331428, 1.564985599834472, 1.8247646996751428, 2.1233506998978555, 2.3900224999524653, 2.6819247999228537, 2.9567426000721753, 3.24841560004279, 3.540189200080931, 3.7651498997583985, 4.015138200018555, 4.773509900085628, 5.173559499904513, 5.548813899978995, 5.965254199691117, 6.407038500066847, 6.7487029996700585]"	269.50921489996836	269.5146277002059	271.00657900003716	271.01484610000625								01	01	2024-01-30_14h04.00.151	BART_exp	2023.2.3	119.96218785391558	2024-01-30 14h04.16.836073 +0100	
balloon.png	1	0	24	24	0	271.01484610000625													271.0067553999834	271.01484610000625	271.01484610000625	271.01484610000625	271.01484610000625	271.01484610000625	0.005691499914973974			271.01484610000625	271.81680379994214	2	0.05	True	"[-0.08333333333333333, -0.08333333333333333]"	"[-0.37407407407407406, -0.37407407407407406]"	"[1, 1]"	"[0, 0]"	"[0, 0]"	"[0.3838269002735615, 0.6753819999285042]"	2	"[0.3819308001548052, 0.6734822001308203]"	"[0.456627800129354, 0.7983383000828326]"	271.8173958999105	271.82315259985626	273.3150713001378	273.33155900007114								01	01	2024-01-30_14h04.00.151	BART_exp	2023.2.3	119.96218785391558	2024-01-30 14h04.16.836073 +0100	
balloon.png	101	0	25	25	23	273.33155900007114													273.3152434001677	273.33155900007114	273.33155900007114	273.33155900007114	273.33155900007114	273.33155900007114	-0.0008429000154137611	-0.0008429000154137611	-0.0008429000154137611	273.33155900007114	275.4415726000443	2	0.10	False	"[-0.08333333333333333, -0.08333333333333333, -0.08333333333333333]"	"[-0.37407407407407406, -0.37407407407407406, -0.37407407407407406]"	"[1, 1, 0]"	"[0, 0, 0]"	"[0, 0, 1]"	"[0.6002954998984933, 1.3836913998238742, 2.125396099872887]"	3	"[0.5899811000563204, 1.3733711000531912, 2.1150164999999106]"	"[0.7065719999372959, 1.489938400220126, 2.115021000150591]"	275.4421815001406	275.4484300999902	276.9403166999109	276.95680009992793								01	01	2024-01-30_14h04.00.151	BART_exp	2023.2.3	119.96218785391558	2024-01-30 14h04.16.836073 +0100	
balloon.png	40	0	26	26	9	276.95680009992793													276.94049429986626	276.95680009992793	276.95680009992793	276.95680009992793	276.95680009992793	276.95680009992793	-0.0004208995960652828	-0.0004208995960652828	-0.0004208995960652828	276.95680009992793	279.200343800243	4	0.20	False	"[-0.08333333333333333, -0.08333333333333333, -0.08333333333333333, -0.08333333333333333, -0.08333333333333333]"	"[-0.37407407407407406, -0.37407407407407406, -0.37407407407407406, -0.37407407407407406, -0.37407407407407406]"	"[1, 1, 1, 1, 0]"	"[0, 0, 0, 0, 0]"	"[0, 0, 0, 0, 1]"	"[0.3754774001426995, 0.6921453000977635, 1.0173740000464022, 1.3086949000135064, 2.2589302002452314]"	5	"[0.37024120008572936, 0.6869029002264142, 1.012129900045693, 1.303454200271517, 2.2536295000463724]"	"[0.5046347002498806, 0.8199339001439512, 1.1449508001096547, 1.4033033000305295, 2.253634000197053]"	279.2010066001676	279.20694880001247	280.6989744002931	280.7153876000084								01	01	2024-01-30_14h04.00.151	BART_exp	2023.2.3	119.96218785391558	2024-01-30 14h04.16.836073 +0100	
balloon.png	23	0	27	27	5	280.7153876000084													280.699156800285	280.7153876000084	280.7153876000084	280.7153876000084	280.7153876000084	280.7153876000084	-0.0005774996243417263	-0.0005774996243417263	-0.0005774996243417263	280.7153876000084	284.5090025998652	10	0.50	False	"[-0.08333333333333333, -0.08333333333333333, -0.08333333333333333, -0.08333333333333333, -0.08333333333333333, -0.08333333333333333, -0.08333333333333333, -0.08333333333333333, -0.08333333333333333, -0.08333333333333333, -0.08333333333333333]"	"[-0.37407407407407406, -0.37407407407407406, -0.37407407407407406, -0.37407407407407406, -0.37407407407407406, -0.37407407407407406, -0.37407407407407406, -0.37407407407407406, -0.37407407407407406, -0.37407407407407406, -0.37407407407407406]"	"[1, 1, 1, 1, 1, 1, 1, 1, 1, 1, 0]"	"[0, 0, 0, 0, 0, 0, 0, 0, 0, 0, 0]"	"[0, 0, 0, 0, 0, 0, 0, 0, 0, 0, 1]"	"[0.36687489971518517, 0.6587268998846412, 0.8921030997298658, 1.1420474997721612, 1.3669557999819517, 1.5919879996217787, 1.8087346996180713, 2.2755207996815443, 2.600540299899876, 3.0087443999946117, 3.8089070999994874]"	11	"[0.3598051997832954, 0.6516501000151038, 0.8850277997553349, 1.1349744000472128, 1.359886100050062, 1.584917699918151, 1.8016623998992145, 2.268449299968779, 2.593467100057751, 3.001669299788773, 3.801772099919617]"	"[0.4680893998593092, 0.7596865999512374, 1.0013870997354388, 1.2349147000350058, 1.4598171999678016, 1.6930867000482976, 1.9014592999592423, 2.393126899842173, 2.718145899940282, 3.109887099824846, 3.8017763001844287]"	284.5097933001816	284.51567800017074	286.0075953002088	286.02407639985904								01	01	2024-01-30_14h04.00.151	BART_exp	2023.2.3	119.96218785391558	2024-01-30 14h04.16.836073 +0100	
balloon.png	49	0	28	28	11	286.02407639985904													286.00777340028435	286.02407639985904	286.02407639985904	286.02407639985904	286.02407639985904	286.02407639985904	-0.0007857996970415115	-0.0007857996970415115	-0.0007857996970415115	286.02407639985904	290.3761853002943	12	0.60	False	"[-0.08333333333333333, -0.08333333333333333, -0.08333333333333333, -0.08333333333333333, -0.08333333333333333, -0.08333333333333333, -0.08333333333333333, -0.08333333333333333, -0.08333333333333333, -0.08333333333333333, -0.08333333333333333, -0.08333333333333333, -0.08333333333333333]"	"[-0.37407407407407406, -0.37407407407407406, -0.37407407407407406, -0.37407407407407406, -0.37407407407407406, -0.37407407407407406, -0.37407407407407406, -0.37407407407407406, -0.37407407407407406, -0.37407407407407406, -0.37407407407407406, -0.37407407407407406, -0.37407407407407406]"	"[1, 1, 1, 1, 1, 1, 1, 1, 1, 1, 1, 1, 0]"	"[0, 0, 0, 0, 0, 0, 0, 0, 0, 0, 0, 0, 0]"	"[0, 0, 0, 0, 0, 0, 0, 0, 0, 0, 0, 0, 1]"	"[0.317129900213331, 0.5838693003170192, 0.8005874999798834, 1.033698400016874, 1.2589131002314389, 1.4837668002583086, 1.8839106000959873, 2.1590726003050804, 2.4006394003517926, 2.625484500080347, 2.8923506001010537, 3.3590481001883745, 4.367400099989027]"	13	"[0.3087268997915089, 0.5754678999073803, 0.7921889997087419, 1.0253002997487783, 1.25050999969244, 1.475360699929297, 1.875512299593538, 2.150673999916762, 2.392235799692571, 2.617078799754381, 2.883949499577284, 3.350642599631101, 4.358932300005108]"	"[0.4251170000061393, 0.6752073997631669, 0.9001567997038364, 1.1252228999510407, 1.3501758999191225, 1.5668645999394357, 1.9919023998081684, 2.2669221996329725, 2.5003464999608696, 2.7336617996916175, 3.0003715995699167, 3.4836589000187814, 4.358936599921435]"	290.3769315001555	290.38270370010287	291.8746973001398	291.8994717001915								01	01	2024-01-30_14h04.00.151	BART_exp	2023.2.3	119.96218785391558	2024-01-30 14h04.16.836073 +0100	
balloon.png	53	0	29	29	12	291.8994717001915													291.87487780023366	291.8994717001915	291.8994717001915	291.8994717001915	291.8994717001915	291.8994717001915	-0.000776899978518486	-0.000776899978518486	-0.000776899978518486	291.8994717001915	297.7182999998331	20	1.00	False	"[-0.08333333333333333, -0.08333333333333333, -0.08333333333333333, -0.08333333333333333, -0.08333333333333333, -0.08333333333333333, -0.08333333333333333, -0.08333333333333333, -0.08333333333333333, -0.08333333333333333, -0.08333333333333333, -0.08333333333333333, -0.08333333333333333, -0.08333333333333333, -0.08333333333333333, -0.08333333333333333, -0.08333333333333333, -0.08333333333333333, -0.08333333333333333, -0.08333333333333333, -0.08333333333333333]"	"[-0.37407407407407406, -0.37407407407407406, -0.37407407407407406, -0.37407407407407406, -0.37407407407407406, -0.37407407407407406, -0.37407407407407406, -0.37407407407407406, -0.37407407407407406, -0.37407407407407406, -0.37407407407407406, -0.37407407407407406, -0.37407407407407406, -0.37407407407407406, -0.37407407407407406, -0.37407407407407406, -0.37407407407407406, -0.37407407407407406, -0.37407407407407406, -0.37407407407407406, -0.37407407407407406]"	"[1, 1, 1, 1, 1, 1, 1, 1, 1, 1, 1, 1, 1, 1, 1, 1, 1, 1, 1, 1, 0]"	"[0, 0, 0, 0, 0, 0, 0, 0, 0, 0, 0, 0, 0, 0, 0, 0, 0, 0, 0, 0, 0]"	"[0, 0, 0, 0, 0, 0, 0, 0, 0, 0, 0, 0, 0, 0, 0, 0, 0, 0, 0, 0, 1]"	"[0.37532739993184805, 0.5752880000509322, 0.7920828997157514, 1.0173395997844636, 1.2339442996308208, 1.6087711998261511, 1.8422540999017656, 2.0588847999460995, 2.28527079988271, 2.50056009972468, 2.733809099998325, 2.958809099625796, 3.1754525997675955, 3.4088177997618914, 3.617220299784094, 3.8339790999889374, 4.052053699735552, 4.48415010003373, 4.758888700045645, 5.042370199691504, 5.842492599971592]"	21	"[0.3646557000465691, 0.5646132999099791, 0.781409699935466, 1.0066658002324402, 1.2232717000879347, 1.598093000240624, 1.831581300124526, 2.0482072001323104, 2.2747555999085307, 2.4898839998058975, 2.723133400082588, 2.948136600200087, 3.1647788998670876, 3.3981408001855016, 3.606550599914044, 3.823307199869305, 4.041531499940902, 4.4734780001454055, 4.748216200154275, 5.031693300232291, 5.831759700085968]"	"[0.4311132002621889, 0.6561687001958489, 0.8811368998140097, 1.0978395999409258, 1.3479230999946594, 1.7062874999828637, 1.9396922001615167, 2.164583900012076, 2.3812533002346754, 2.5979237002320588, 2.831510900054127, 3.039801800157875, 3.2896421998739243, 3.506310500204563, 3.7063584001734853, 3.931406000163406, 4.156355400104076, 4.623050000052899, 4.881441399920732, 5.156532300170511, 5.831763899885118]"	297.71920170029625	297.72487229993567	299.2169192000292	299.22496560029685								01	01	2024-01-30_14h04.00.151	BART_exp	2023.2.3	119.96218785391558	2024-01-30 14h04.16.836073 +0100	
																																														299.21695679984987	299.22496560029685	299.22496560029685	339.1948156002909	space	39.963547999970615	None	01	01	2024-01-30_14h04.00.151	BART_exp	2023.2.3	119.96218785391558	2024-01-30 14h04.16.836073 +0100	
