image	max_pumps	pump_loop.thisRepN	pump_loop.thisTrialN	pump_loop.thisN	pump_loop.thisIndex	thisRow.t	notes	Start.started	text_start.started	continue_start.started	mouse_start.started	Start.stopped	mouse_start.x	mouse_start.y	mouse_start.leftButton	mouse_start.midButton	mouse_start.rightButton	mouse_start.time	trials.started	stim_balloon.started	stim_balloon_burst.started	stim_balloon_burst.stopped	text_ballon_value.started	text_bank.started	mouse.started	sound_bang.started	sound_bang.stopped	button_balloon.started	trials.stopped	n_pumps	earnings	popped	mouse.x	mouse.y	mouse.leftButton	mouse.midButton	mouse.rightButton	mouse.time	button_balloon.numClicks	button_balloon.timesOn	button_balloon.timesOff	Feedback.started	text_feedback.started	Feedback.stopped	text_feedback.stopped	End.started	text_end.started	key_end.started	End.stopped	key_end.keys	key_end.rt	key_end.duration	participant	session	date	expName	psychopyVersion	frameRate	expStart	
								0.0367433999927016	0.04267759999493137	0.04267759999493137	0.03706800000509247	51.07188370000222	[0.6712962962962963]	[-0.3962962962962963]	[1]	[0]	[0]	[51.034236700012116]																																			14	01	2024-02-07_15h12.12.677	BART_exp	2023.2.3	120.03476207327506	2024-02-07 15h12.20.654252 +0100	
balloon.png	118	0	0	0	27	51.14626779999526													51.07810660000541	51.14626779999526	51.14626779999526	51.14626779999526	51.14626779999526	51.14626779999526	0.007998900007805787	0.007998900007805787	0.007998900007805787	51.14626779999526	63.057222100003855	20	1.00	False	"[0.044444444444444446, 0.044444444444444446, 0.044444444444444446, 0.044444444444444446, 0.044444444444444446, 0.044444444444444446, 0.044444444444444446, 0.044444444444444446, 0.044444444444444446, 0.044444444444444446, 0.044444444444444446, 0.044444444444444446, 0.044444444444444446, 0.044444444444444446, 0.044444444444444446, 0.044444444444444446, 0.044444444444444446, 0.044444444444444446, 0.044444444444444446, 0.044444444444444446, 0.041666666666666664]"	"[-0.3814814814814815, -0.3814814814814815, -0.3814814814814815, -0.3814814814814815, -0.3814814814814815, -0.3814814814814815, -0.3814814814814815, -0.3814814814814815, -0.3814814814814815, -0.3814814814814815, -0.3814814814814815, -0.3814814814814815, -0.3814814814814815, -0.3814814814814815, -0.3814814814814815, -0.3814814814814815, -0.3814814814814815, -0.3814814814814815, -0.3814814814814815, -0.3814814814814815, -0.2796296296296296]"	"[1, 1, 1, 1, 1, 1, 1, 1, 1, 1, 1, 1, 1, 1, 1, 1, 1, 1, 1, 1, 0]"	"[0, 0, 0, 0, 0, 0, 0, 0, 0, 0, 0, 0, 0, 0, 0, 0, 0, 0, 0, 0, 0]"	"[0, 0, 0, 0, 0, 0, 0, 0, 0, 0, 0, 0, 0, 0, 0, 0, 0, 0, 0, 0, 1]"	"[1.3190384000045015, 1.7022708000004059, 2.1775418000033824, 2.6608145000063814, 3.1941978000104427, 3.7693227999989176, 4.185918400005903, 4.661104700004216, 5.069335699998192, 5.535894200002076, 5.936086800007615, 6.586176700002397, 7.311005600000499, 7.94437040000048, 8.627915400007623, 9.144428500003414, 9.827955600005225, 10.236362499999814, 10.76967570000852, 11.319570899999235, 11.978182200007723]"	20	"[1.2649722000060137, 1.6482056999957422, 2.1234726999973645, 2.6067426999943564, 3.1401498000050196, 3.7152557999943383, 4.131857900007162, 4.607033899999806, 5.015271099997335, 5.481826000002911, 5.882017399999313, 6.532109100007801, 7.256937900005141, 7.890296400000807, 8.57385400000203, 9.090356400003657, 9.773887999996077, 10.18229739999515, 10.71561169999768, 11.265505899995333]"	"[1.33979339999496, 1.7480416000034893, 2.231483700001263, 2.714780399997835, 3.256466899998486, 3.8731908000045223, 4.264877299996442, 4.756555400002981, 5.139941200002795, 5.6483088999957545, 6.006731999994372, 6.690043099995819, 7.415080399994622, 8.015158299996983, 8.71520760000567, 9.20688159999554, 9.890252800003509, 10.290349000002607, 10.856968100008089, 11.36538930000097]"	63.05867759999819	63.07203159999335	64.56389109999873									14	01	2024-02-07_15h12.12.677	BART_exp	2023.2.3	120.03476207327506	2024-02-07 15h12.20.654252 +0100	
balloon.png	57	0	1	1	13	64.58052649999445													64.56406520000019	64.58052649999445	64.58052649999445	64.58052649999445	64.58052649999445	64.58052649999445	0.006646299996646121	0.006646299996646121	0.006646299996646121	64.58052649999445	79.48325019999174	21	1.05	False	"[0.03333333333333333, 0.03333333333333333, 0.03333333333333333, 0.03333333333333333, 0.03333333333333333, 0.03333333333333333, 0.03333333333333333, 0.03333333333333333, 0.03333333333333333, 0.03333333333333333, 0.03333333333333333, 0.03333333333333333, 0.03333333333333333, 0.03333333333333333, 0.03333333333333333, 0.03333333333333333, 0.03333333333333333, 0.03333333333333333, 0.03333333333333333, 0.03333333333333333, 0.03333333333333333, 0.025]"	"[-0.37777777777777777, -0.37777777777777777, -0.37777777777777777, -0.37777777777777777, -0.37777777777777777, -0.37777777777777777, -0.37777777777777777, -0.37777777777777777, -0.37777777777777777, -0.37777777777777777, -0.37777777777777777, -0.37777777777777777, -0.37777777777777777, -0.37777777777777777, -0.37777777777777777, -0.37777777777777777, -0.37777777777777777, -0.37777777777777777, -0.37777777777777777, -0.37777777777777777, -0.37777777777777777, -0.21296296296296297]"	"[1, 1, 1, 1, 1, 1, 1, 1, 1, 1, 1, 1, 1, 1, 1, 1, 1, 1, 1, 1, 1, 0]"	"[0, 0, 0, 0, 0, 0, 0, 0, 0, 0, 0, 0, 0, 0, 0, 0, 0, 0, 0, 0, 0, 0]"	"[0, 0, 0, 0, 0, 0, 0, 0, 0, 0, 0, 0, 0, 0, 0, 0, 0, 0, 0, 0, 0, 1]"	"[0.684057299993583, 1.1423499999946216, 1.592430399992736, 2.0590488000016194, 2.750800800000434, 3.2674814999918453, 3.8355875999986893, 4.27598289999878, 4.767439199989894, 5.350963099990622, 5.809185399994021, 6.359332199994242, 6.851048299999093, 7.551105699996697, 8.79271969999536, 9.167867600001046, 9.926395699993009, 10.626201099992613, 11.626251499998034, 12.359839999990072, 14.134898099990096, 14.918283399994834]"	21	"[0.6756022999907145, 1.1338968999916688, 1.58398739999393, 2.050588099999004, 2.7423409999901196, 3.2590222999861, 3.827300599994487, 4.267522999987705, 4.758979899997939, 5.34250039998733, 5.80072719999589, 6.350870499998564, 6.84258639998734, 7.542647199996281, 8.784257099992828, 9.159407599989208, 9.917940999992425, 10.617735599997104, 11.617794099991443, 12.351379799991264, 14.12644089999958]"	"[0.7919962999876589, 1.250283599991235, 1.7253370999969775, 2.2086522999888984, 2.9086891999904765, 3.4338213999872096, 3.992132399987895, 4.4255731999874115, 4.917188699997496, 5.500612499992712, 5.967226299995673, 6.5006999999895925, 6.9770222999941325, 7.675701099986327, 8.875769799997215, 9.275815899993177, 10.067524099998991, 10.742555299992091, 11.725959999996121, 12.426039399986621, 14.24293919999036]"	79.48418529999617	79.48988619999727	80.98189480000292	81.00664710000274								14	01	2024-02-07_15h12.12.677	BART_exp	2023.2.3	120.03476207327506	2024-02-07 15h12.20.654252 +0100	
balloon.png	36	0	2	2	8	81.00664710000274													80.98208370000066	81.00664710000274	81.00664710000274	81.00664710000274	81.00664710000274	81.00664710000274	-0.0008219999872380868	-0.0008219999872380868	-0.0008219999872380868	81.00664710000274	97.87603749999835	22	1.10	False	"[0.012962962962962963, 0.012962962962962963, 0.012962962962962963, 0.012962962962962963, 0.012962962962962963, 0.012962962962962963, 0.012962962962962963, 0.012962962962962963, 0.012962962962962963, 0.012962962962962963, 0.012962962962962963, 0.012962962962962963, 0.012962962962962963, 0.012962962962962963, 0.012962962962962963, 0.012962962962962963, 0.012962962962962963, 0.012962962962962963, 0.012962962962962963, 0.012962962962962963, 0.016666666666666666, 0.016666666666666666, 0.002777777777777778]"	"[-0.38055555555555554, -0.38055555555555554, -0.38055555555555554, -0.38055555555555554, -0.38055555555555554, -0.38055555555555554, -0.38055555555555554, -0.38055555555555554, -0.38055555555555554, -0.38055555555555554, -0.38055555555555554, -0.38055555555555554, -0.38055555555555554, -0.38055555555555554, -0.38055555555555554, -0.38055555555555554, -0.38055555555555554, -0.38055555555555554, -0.38055555555555554, -0.38055555555555554, -0.3972222222222222, -0.3972222222222222, -0.20925925925925926]"	"[1, 1, 1, 1, 1, 1, 1, 1, 1, 1, 1, 1, 1, 1, 1, 1, 1, 1, 1, 1, 1, 1, 0]"	"[0, 0, 0, 0, 0, 0, 0, 0, 0, 0, 0, 0, 0, 0, 0, 0, 0, 0, 0, 0, 0, 0, 0]"	"[0, 0, 0, 0, 0, 0, 0, 0, 0, 0, 0, 0, 0, 0, 0, 0, 0, 0, 0, 0, 0, 0, 1]"	"[0.8002473999949871, 1.8087723000062397, 2.408702600005199, 3.1922510000003967, 3.8089330999937374, 4.633985799999209, 5.434161299999687, 5.992285800006357, 6.784028699999908, 6.9923637000028975, 8.042579900007695, 8.475926099999924, 9.200945300006424, 10.28443729999708, 10.917624399997294, 11.867842000006931, 12.651320499993744, 13.40970119999838, 14.026329600004829, 14.576236599998083, 15.92629269999452, 16.384784499998204, 16.893023800002993]"	22	"[0.7898506999918027, 1.7983738999901107, 2.398300399989239, 3.181859099990106, 3.798533099994529, 4.623586299989256, 5.423766099993372, 5.98188300000038, 6.773634199998924, 6.981964399994467, 8.032185699994443, 8.46552649998921, 9.190544899989618, 10.274040599993896, 10.90722919999098, 11.857442299995455, 12.640921300000628, 13.399303799989866, 14.015937999996822, 14.565835499990499, 15.91590069999802, 16.37439089998952]"	"[0.8980389999924228, 1.9731205999996746, 2.5649618999887025, 3.34820929999114, 3.948259999990114, 4.781651699988288, 5.623373700000229, 6.131754599991837, 6.90678159998788, 7.140139299997827, 8.173591999991913, 8.57358199999726, 9.365310099994531, 10.3986881999881, 11.032091000000946, 12.015478099987376, 12.807182799995644, 13.557256599990069, 14.165636799996719, 14.682317200000398, 16.024072499989416, 16.474110999988625]"	97.87701270000252	97.8828194999951	99.37479269999312	99.39127069999813								14	01	2024-02-07_15h12.12.677	BART_exp	2023.2.3	120.03476207327506	2024-02-07 15h12.20.654252 +0100	
balloon.png	110	0	3	3	25	99.39127069999813													99.37497269999585	99.39127069999813	99.39127069999813	99.39127069999813	99.39127069999813	99.39127069999813	-0.0006990999972913414	-0.0006990999972913414	-0.0006990999972913414	99.39127069999813	114.72741429999587	28	1.40	False	"[-0.002777777777777778, -0.002777777777777778, -0.002777777777777778, -0.002777777777777778, -0.002777777777777778, -0.002777777777777778, -0.002777777777777778, -0.002777777777777778, -0.002777777777777778, -0.002777777777777778, -0.002777777777777778, -0.002777777777777778, -0.002777777777777778, -0.002777777777777778, -0.002777777777777778, -0.002777777777777778, -0.002777777777777778, -0.002777777777777778, -0.002777777777777778, -0.002777777777777778, -0.002777777777777778, -0.002777777777777778, -0.002777777777777778, -0.002777777777777778, -0.002777777777777778, -0.002777777777777778, -0.002777777777777778, -0.002777777777777778, 0.007407407407407408]"	"[-0.37592592592592594, -0.37592592592592594, -0.37592592592592594, -0.37592592592592594, -0.37592592592592594, -0.37592592592592594, -0.37592592592592594, -0.37592592592592594, -0.37592592592592594, -0.37592592592592594, -0.37592592592592594, -0.37592592592592594, -0.37592592592592594, -0.37592592592592594, -0.37592592592592594, -0.37592592592592594, -0.37592592592592594, -0.37592592592592594, -0.37592592592592594, -0.37592592592592594, -0.37592592592592594, -0.37592592592592594, -0.37592592592592594, -0.37592592592592594, -0.37592592592592594, -0.37592592592592594, -0.37592592592592594, -0.37592592592592594, -0.31666666666666665]"	"[1, 1, 1, 1, 1, 1, 1, 1, 1, 1, 1, 1, 1, 1, 1, 1, 1, 1, 1, 1, 1, 1, 1, 1, 1, 1, 1, 1, 0]"	"[0, 0, 0, 0, 0, 0, 0, 0, 0, 0, 0, 0, 0, 0, 0, 0, 0, 0, 0, 0, 0, 0, 0, 0, 0, 0, 0, 0, 0]"	"[0, 0, 0, 0, 0, 0, 0, 0, 0, 0, 0, 0, 0, 0, 0, 0, 0, 0, 0, 0, 0, 0, 0, 0, 0, 0, 0, 0, 1]"	"[0.6838279000076, 1.133801999996649, 1.5670682000054512, 2.0172477000014624, 2.533766699998523, 3.0340918000001693, 3.533841399999801, 3.967207800000324, 4.5673077999963425, 5.300817299998016, 5.7756861000088975, 6.209380600004806, 6.659210700003314, 6.959193200003938, 7.392586300004041, 7.89261969999643, 8.492516500002239, 8.95943129999796, 9.44274790000054, 9.909261499997228, 10.767950800000108, 11.051181800008635, 11.559681300001102, 12.067914200000814, 12.526138900007936, 13.259740699999384, 14.051402800003416, 14.484594699999434, 15.35153430000355]"	28	"[0.6763850999996066, 1.1263752999948338, 1.5596232999960193, 2.0098077000002377, 2.526317399999243, 3.026647499995306, 3.5263954999973066, 3.959766200001468, 4.559860699999263, 5.293374100001529, 5.768236799995066, 6.201930099996389, 6.651759300002595, 6.951756499998737, 7.385135499993339, 7.885178299999097, 8.485068699999829, 8.95198569999775, 9.435299799995846, 9.901819799997611, 10.760513699991861, 11.04373969999142, 11.552237800002331, 12.060468900002888, 12.51869149999402, 13.25229269999545, 14.043955100001767, 14.477143700001761]"	"[0.776039899996249, 1.251074999992852, 1.701210799990804, 2.1678927000029944, 2.6762272999912966, 3.1678825999988476, 3.642911599992658, 4.101269699996919, 4.701325699992594, 5.418093799991766, 5.884735400002683, 6.351449499998125, 6.751864599995315, 7.076497699992615, 7.526551899994956, 8.043248100002529, 8.61003619999974, 9.068282899999758, 9.576671599992551, 10.02676849999989, 10.885097999998834, 11.151872599992203, 11.676840999993146, 12.168499799998244, 12.626914299995406, 13.376965599993127, 14.160354699997697, 14.576990699992166]"	114.72870959999273	114.73399890000292	116.22598129999824	116.2424183999974								14	01	2024-02-07_15h12.12.677	BART_exp	2023.2.3	120.03476207327506	2024-02-07 15h12.20.654252 +0100	
balloon.png	44	0	4	4	10	116.2424183999974													116.22616429999471	116.2424183999974	116.2424183999974	116.2424183999974	116.2424183999974	116.2424183999974	0.013781399989966303	0.013781399989966303	0.013781399989966303	116.2424183999974	128.71997449999617	20	1.00	False	"[0.004629629629629629, 0.004629629629629629, 0.004629629629629629, 0.004629629629629629, 0.004629629629629629, 0.004629629629629629, 0.004629629629629629, 0.004629629629629629, 0.004629629629629629, 0.004629629629629629, 0.004629629629629629, 0.004629629629629629, 0.004629629629629629, 0.004629629629629629, 0.004629629629629629, 0.004629629629629629, 0.004629629629629629, 0.004629629629629629, 0.004629629629629629, 0.004629629629629629, -0.004629629629629629]"	"[-0.3731481481481482, -0.3731481481481482, -0.3731481481481482, -0.3731481481481482, -0.3731481481481482, -0.3731481481481482, -0.3731481481481482, -0.3731481481481482, -0.3731481481481482, -0.3731481481481482, -0.3731481481481482, -0.3731481481481482, -0.3731481481481482, -0.3731481481481482, -0.3731481481481482, -0.3731481481481482, -0.3731481481481482, -0.3731481481481482, -0.3731481481481482, -0.3731481481481482, -0.20925925925925926]"	"[1, 1, 1, 1, 1, 1, 1, 1, 1, 1, 1, 1, 1, 1, 1, 1, 1, 1, 1, 1, 0]"	"[0, 0, 0, 0, 0, 0, 0, 0, 0, 0, 0, 0, 0, 0, 0, 0, 0, 0, 0, 0, 0]"	"[0, 0, 0, 0, 0, 0, 0, 0, 0, 0, 0, 0, 0, 0, 0, 0, 0, 0, 0, 0, 1]"	"[1.5504979999968782, 1.9671874999912689, 2.167253299994627, 2.433713099992019, 2.633731899986742, 3.1755821999977343, 3.367419999995036, 3.5755810999980895, 3.7756257000000915, 4.717485699991812, 5.975840099999914, 6.684230699989712, 7.125856999991811, 7.467403499991633, 7.717575999995461, 7.934257099987008, 8.56763009999122, 10.551099399992381, 11.53449959999125, 11.951186399994185, 12.49288649999653]"	20	"[1.5481666000123369, 1.9648611000011442, 2.164924800003064, 2.4313784000114538, 2.631398400000762, 3.1732533000031253, 3.3650989000016125, 3.5732559000025503, 3.773296200000914, 4.715154300007271, 5.973518500002683, 6.681898800001363, 7.123526499999571, 7.465081000002101, 7.715242000005674, 7.931928000005428, 8.565332099999068, 10.548766200008686, 11.532166600009077, 11.948859600001015]"	"[1.6811870000092313, 2.072875700003351, 2.306262700003572, 2.5395695000042906, 2.7479372000088915, 3.281393500001286, 3.481458100010059, 3.681317000009585, 3.814658100003726, 4.798245900004986, 6.314854200012633, 6.839859700005036, 7.231630300011602, 7.606569800002035, 7.823258000003989, 8.065022900002077, 8.656665300004533, 10.665203000011388, 11.681894400011515, 12.056919300011941]"	128.7209501000034	128.72659449999628	130.21859259999474	130.23506360000465								14	01	2024-02-07_15h12.12.677	BART_exp	2023.2.3	120.03476207327506	2024-02-07 15h12.20.654252 +0100	
balloon.png	123	0	5	5	28	130.23506360000465													130.21877619999577	130.23506360000465	130.23506360000465	130.23506360000465	130.23506360000465	130.23506360000465	-0.0009106000070460141	-0.0009106000070460141	-0.0009106000070460141	130.23506360000465	147.60599369999545	30	1.50	False	"[0.008333333333333333, 0.008333333333333333, 0.008333333333333333, 0.008333333333333333, 0.008333333333333333, 0.008333333333333333, 0.008333333333333333, 0.008333333333333333, 0.008333333333333333, 0.008333333333333333, 0.008333333333333333, 0.008333333333333333, 0.008333333333333333, 0.008333333333333333, 0.008333333333333333, 0.008333333333333333, 0.008333333333333333, 0.008333333333333333, 0.008333333333333333, 0.008333333333333333, 0.008333333333333333, 0.008333333333333333, 0.008333333333333333, 0.008333333333333333, 0.008333333333333333, 0.008333333333333333, 0.008333333333333333, 0.008333333333333333, 0.008333333333333333, 0.008333333333333333, 0.008333333333333333]"	"[-0.39166666666666666, -0.39166666666666666, -0.39166666666666666, -0.39166666666666666, -0.39166666666666666, -0.39166666666666666, -0.39166666666666666, -0.39166666666666666, -0.39166666666666666, -0.39166666666666666, -0.39166666666666666, -0.39166666666666666, -0.39166666666666666, -0.39166666666666666, -0.39166666666666666, -0.39166666666666666, -0.39166666666666666, -0.39166666666666666, -0.39166666666666666, -0.39166666666666666, -0.39166666666666666, -0.39166666666666666, -0.39166666666666666, -0.39166666666666666, -0.39166666666666666, -0.39166666666666666, -0.39166666666666666, -0.39166666666666666, -0.39166666666666666, -0.39166666666666666, -0.39166666666666666]"	"[1, 1, 1, 1, 1, 1, 1, 1, 1, 1, 1, 1, 1, 1, 1, 1, 1, 1, 1, 1, 1, 1, 1, 1, 1, 1, 1, 1, 1, 1, 0]"	"[0, 0, 0, 0, 0, 0, 0, 0, 0, 0, 0, 0, 0, 0, 0, 0, 0, 0, 0, 0, 0, 0, 0, 0, 0, 0, 0, 0, 0, 0, 0]"	"[0, 0, 0, 0, 0, 0, 0, 0, 0, 0, 0, 0, 0, 0, 0, 0, 0, 0, 0, 0, 0, 0, 0, 0, 0, 0, 0, 0, 0, 0, 1]"	"[0.7838800000026822, 1.1171980000071926, 1.5755217999976594, 2.0170415000029607, 2.5588930000085384, 3.0922410000057425, 3.6421283000090625, 4.192350600002101, 4.6256392000068445, 5.550808300002245, 6.100775600003544, 6.775875200008159, 7.275843900002656, 7.700905699995928, 8.150936699996237, 8.825864400001592, 9.617702700008522, 10.134435100000701, 10.692863799995393, 11.176136399997631, 11.617685400007758, 12.151222800006508, 12.609621900002821, 13.534686800005147, 13.917995600000722, 14.63464849999582, 15.268085200004862, 15.726459800003795, 16.176333199997316, 17.009751000005053, 17.38610190000327]"	31	"[0.7801916999887908, 1.1135112999909325, 1.5718328999937512, 2.0133510999876307, 2.555205399999977, 3.0885597999877064, 3.6384347999992315, 4.188664699991932, 4.621952399989823, 5.547116499990807, 6.097083799992106, 6.772184000001289, 7.272151799988933, 7.697218799992697, 8.147245100000873, 8.822177099995315, 9.61406100000022, 10.1307444999984, 10.689177699998254, 11.172444600000745, 11.613992599988705, 12.147529800000484, 12.605935100000352, 13.530994599990663, 13.914303199999267, 14.630957899993518, 15.26439169999503, 15.72279339999659, 16.172643499987316, 17.00605809999979, 17.38245089999691]"	"[0.871574499993585, 1.2299100999953225, 1.68819459999213, 2.1299383000005037, 2.671633199992357, 3.2049224999936996, 3.7299657999974443, 4.296670999989146, 4.7398068999900715, 5.680091899994295, 6.246842699998524, 6.896969800000079, 7.405276899997261, 7.830250799990608, 8.28033389999473, 8.996995599998627, 9.78053779999027, 10.288757499991334, 10.838780299993232, 11.322197599991341, 11.755640299990773, 12.2638764000003, 12.70705869999074, 13.657050399997388, 14.014018399990164, 14.755764699992142, 15.38908179999271, 15.847451399997226, 16.305820399997174, 17.114230299994233, 17.382459299988113]"	147.60711119999178	147.61114680000173	149.10321269999258	149.11132939999516								14	01	2024-02-07_15h12.12.677	BART_exp	2023.2.3	120.03476207327506	2024-02-07 15h12.20.654252 +0100	
balloon.png	40	0	6	6	9	149.11132939999516													149.10339550000208	149.11132939999516	149.11132939999516	149.11132939999516	149.11132939999516	149.11132939999516	0.0042861999972956255	0.0042861999972956255	0.0042861999972956255	149.11132939999516	166.3395215000055	41	2.00	True	"[0.008333333333333333, 0.008333333333333333, 0.008333333333333333, 0.008333333333333333, 0.008333333333333333, 0.008333333333333333, 0.008333333333333333, 0.008333333333333333, 0.008333333333333333, 0.008333333333333333, 0.008333333333333333, 0.008333333333333333, 0.008333333333333333, 0.008333333333333333, 0.008333333333333333, 0.008333333333333333, 0.008333333333333333, 0.008333333333333333, 0.008333333333333333, 0.008333333333333333, 0.008333333333333333, 0.008333333333333333, 0.008333333333333333, 0.008333333333333333, 0.008333333333333333, 0.008333333333333333, 0.008333333333333333, 0.008333333333333333, 0.008333333333333333, 0.008333333333333333, 0.008333333333333333, 0.008333333333333333, 0.008333333333333333, 0.008333333333333333, 0.008333333333333333, 0.008333333333333333, 0.008333333333333333, 0.008333333333333333, 0.008333333333333333, 0.008333333333333333, 0.008333333333333333]"	"[-0.39166666666666666, -0.39166666666666666, -0.39166666666666666, -0.39166666666666666, -0.39166666666666666, -0.39166666666666666, -0.39166666666666666, -0.39166666666666666, -0.39166666666666666, -0.39166666666666666, -0.39166666666666666, -0.39166666666666666, -0.39166666666666666, -0.39166666666666666, -0.39166666666666666, -0.39166666666666666, -0.39166666666666666, -0.39166666666666666, -0.39166666666666666, -0.39166666666666666, -0.39166666666666666, -0.39166666666666666, -0.39166666666666666, -0.39166666666666666, -0.39166666666666666, -0.39166666666666666, -0.39166666666666666, -0.39166666666666666, -0.39166666666666666, -0.39166666666666666, -0.39166666666666666, -0.39166666666666666, -0.39166666666666666, -0.39166666666666666, -0.39166666666666666, -0.39166666666666666, -0.39166666666666666, -0.39166666666666666, -0.39166666666666666, -0.39166666666666666, -0.39166666666666666]"	"[1, 1, 1, 1, 1, 1, 1, 1, 1, 1, 1, 1, 1, 1, 1, 1, 1, 1, 1, 1, 1, 1, 1, 1, 1, 1, 1, 1, 1, 1, 1, 1, 1, 1, 1, 1, 1, 1, 1, 1, 1]"	"[0, 0, 0, 0, 0, 0, 0, 0, 0, 0, 0, 0, 0, 0, 0, 0, 0, 0, 0, 0, 0, 0, 0, 0, 0, 0, 0, 0, 0, 0, 0, 0, 0, 0, 0, 0, 0, 0, 0, 0, 0]"	"[0, 0, 0, 0, 0, 0, 0, 0, 0, 0, 0, 0, 0, 0, 0, 0, 0, 0, 0, 0, 0, 0, 0, 0, 0, 0, 0, 0, 0, 0, 0, 0, 0, 0, 0, 0, 0, 0, 0, 0, 0]"	"[0.7433542999933707, 1.4505539999954635, 1.9753940999944462, 2.808969999998226, 3.0839635000011185, 3.3254809999925783, 3.8436335000005784, 4.092204699991271, 4.467433899990283, 4.82575899999938, 5.100635099995998, 5.425810100001399, 5.775808299993514, 6.075842999998713, 6.40083469999081, 6.800877899993793, 7.2009640999895055, 7.642689899992547, 8.042648499991628, 8.534178799993242, 9.02616969999508, 9.40939059999073, 9.801113699999405, 10.117608399988967, 10.484385799994925, 10.834497599993483, 11.126147399991169, 11.4178702999925, 11.742881400001352, 12.159482899995055, 12.592957799992291, 12.926137499991455, 13.30118300000322, 13.751208899993799, 14.393100899993442, 14.826547399992705, 15.317985999994562, 15.718143199992483, 16.176506699994206, 16.601563799995347, 17.126448199996958]"	41	"[0.7416842999955406, 1.4487193999957526, 1.97355680000328, 2.8071334999985993, 3.082124799999292, 3.3236483999935444, 3.8419610999990255, 4.090368699995452, 4.465600800001994, 4.823925400007283, 5.098800099993241, 5.4239820999937365, 5.773977400007425, 6.074004900001455, 6.3990030999993905, 6.799045899999328, 7.199133100002655, 7.640852900003665, 8.040816399996402, 8.532342100006645, 9.02434180000273, 9.407556200007093, 9.799279900005786, 10.115773500001524, 10.48255749999953, 10.832666000002064, 11.12430840000161, 11.416043899997021, 11.741053000005195, 12.157644399994751, 12.591121000004932, 12.924299000005703, 13.299345999999787, 13.749369600001955, 14.391261600001599, 14.824715299997479, 15.31615270000475, 15.716309800001909, 16.174667700004647, 16.59972719999496, 17.124612800005707]"	"[0.8983945999934804, 1.6233751999970991, 2.1317469000059646, 2.9568098000017926, 3.2068155000015395, 3.4818537999963155, 3.956892300004256, 4.223573299997952, 4.590258399999584, 4.932061100000283, 5.223618400006671, 5.548673500001314, 5.8987315999984276, 6.207035500003258, 6.557093700001133, 6.940414700002293, 7.332236700007343, 7.74879690000671, 8.182171099993866, 8.665554100007284, 9.149004799997783, 9.557398799996008, 9.915793799998937, 10.240685900003882, 10.640672900000936, 10.96569240000099, 11.240804899993236, 11.540754999994533, 11.874111600001925, 12.282493399994564, 12.749161100000492, 13.032507700001588, 13.424188599994523, 13.85754420000012, 14.524276399999508, 14.932629000002635, 15.42432770000596, 15.824530500001856, 16.300797000003513, 16.724423899999238, 17.22444639999594]"	166.3408621999988	166.35421009999118	167.8459823000012									14	01	2024-02-07_15h12.12.677	BART_exp	2023.2.3	120.03476207327506	2024-02-07 15h12.20.654252 +0100	
balloon.png	75	0	7	7	17	167.86261179999565													167.84615559999656	167.86261179999565	167.86261179999565	167.86261179999565	167.86261179999565	167.86261179999565	0.006574500002898276	0.006574500002898276	0.006574500002898276	167.86261179999565	177.67335509999248	23	1.15	False	"[0.012962962962962963, 0.012962962962962963, 0.012962962962962963, 0.012962962962962963, 0.012962962962962963, 0.012962962962962963, 0.012962962962962963, 0.012962962962962963, 0.012962962962962963, 0.012962962962962963, 0.012962962962962963, 0.012962962962962963, 0.012962962962962963, 0.012962962962962963, 0.012962962962962963, 0.012962962962962963, 0.012962962962962963, 0.012962962962962963, 0.012962962962962963, 0.012962962962962963, 0.012962962962962963, 0.012962962962962963, 0.012962962962962963, 0.012962962962962963]"	"[-0.37777777777777777, -0.37777777777777777, -0.37777777777777777, -0.37777777777777777, -0.37777777777777777, -0.37777777777777777, -0.37777777777777777, -0.37777777777777777, -0.37777777777777777, -0.37777777777777777, -0.37777777777777777, -0.37777777777777777, -0.37777777777777777, -0.37777777777777777, -0.37777777777777777, -0.37777777777777777, -0.37777777777777777, -0.37777777777777777, -0.37777777777777777, -0.37777777777777777, -0.37777777777777777, -0.37777777777777777, -0.37777777777777777, -0.37777777777777777]"	"[1, 1, 1, 1, 1, 1, 1, 1, 1, 1, 1, 1, 1, 1, 1, 1, 1, 1, 1, 1, 1, 1, 1, 0]"	"[0, 0, 0, 0, 0, 0, 0, 0, 0, 0, 0, 0, 0, 0, 0, 0, 0, 0, 0, 0, 0, 0, 0, 0]"	"[0, 0, 0, 0, 0, 0, 0, 0, 0, 0, 0, 0, 0, 0, 0, 0, 0, 0, 0, 0, 0, 0, 0, 1]"	"[2.0507789999974193, 2.5173092000040924, 2.7673486999992747, 2.9923086000053445, 3.2258265999989817, 3.459407400005148, 3.675922599999467, 3.902298900007736, 4.142799900000682, 4.417578299995512, 4.867735499996343, 5.275973499999964, 5.584357600004296, 5.88440090000222, 6.150985200001742, 6.375893500007805, 6.809383700005128, 7.109416200008127, 7.3844155999977374, 7.784315800003242, 8.384383399999933, 8.78456620000361, 9.192858499998692, 9.826285500006634]"	24	"[2.044465400002082, 2.5109975000086706, 2.761030399997253, 2.9859920000017155, 3.2195215999963693, 3.453093300006003, 3.669606499999645, 3.8961514999973588, 4.1364953000011155, 4.41126950000762, 4.86142070000642, 5.269662000006065, 5.578043600005913, 5.878085400006967, 6.144673600007081, 6.369575200005784, 6.803066799999215, 7.103103200002806, 7.378100000001723, 7.769750499996007, 8.378067500001634, 8.778250400006073, 9.186547000004794, 9.819909800004098]"	"[2.1941623000020627, 2.6191592999966815, 2.8691717000037897, 3.0942026999982772, 3.335885899999994, 3.552729899995029, 3.7775925000023562, 4.002598999999464, 4.261157500004629, 4.544305799994618, 4.969334900000831, 5.377736299997196, 5.694381099994644, 5.994400199997472, 6.244409300008556, 6.486109100005706, 6.919639500003541, 7.219497700003558, 7.494518999999855, 7.877858499996364, 8.486265400002594, 8.902896500003408, 9.327963799994905, 9.819914399995469]"	177.6743592999992	177.6799527999974	179.1719049999956	179.1800940999965								14	01	2024-02-07_15h12.12.677	BART_exp	2023.2.3	120.03476207327506	2024-02-07 15h12.20.654252 +0100	
balloon.png	92	0	8	8	21	179.1800940999965													179.1720817000023	179.1800940999965	179.1800940999965	179.1800940999965	179.1800940999965	179.1800940999965	0.005797200006782077	0.005797200006782077	0.005797200006782077	179.1800940999965	195.70787369999744	34	1.70	False	"[0.012962962962962963, 0.012962962962962963, 0.012962962962962963, 0.012962962962962963, 0.012962962962962963, 0.012962962962962963, 0.012962962962962963, 0.012962962962962963, 0.012962962962962963, 0.012962962962962963, 0.012962962962962963, 0.012962962962962963, 0.012962962962962963, 0.012962962962962963, 0.012962962962962963, 0.012962962962962963, 0.012962962962962963, 0.012962962962962963, 0.012962962962962963, 0.012962962962962963, 0.012962962962962963, 0.012962962962962963, 0.012962962962962963, 0.012962962962962963, 0.012962962962962963, 0.012962962962962963, 0.012962962962962963, 0.012962962962962963, 0.012962962962962963, 0.012962962962962963, 0.012962962962962963, 0.012962962962962963, 0.012962962962962963, 0.012962962962962963, 0.012962962962962963]"	"[-0.37777777777777777, -0.37777777777777777, -0.37777777777777777, -0.37777777777777777, -0.37777777777777777, -0.37777777777777777, -0.37777777777777777, -0.37777777777777777, -0.37777777777777777, -0.37777777777777777, -0.37777777777777777, -0.37777777777777777, -0.37777777777777777, -0.37777777777777777, -0.37777777777777777, -0.37777777777777777, -0.37777777777777777, -0.37777777777777777, -0.37777777777777777, -0.37777777777777777, -0.37777777777777777, -0.37777777777777777, -0.37777777777777777, -0.37777777777777777, -0.37777777777777777, -0.37777777777777777, -0.37777777777777777, -0.37777777777777777, -0.37777777777777777, -0.37777777777777777, -0.37777777777777777, -0.37777777777777777, -0.37777777777777777, -0.37777777777777777, -0.37777777777777777]"	"[1, 1, 1, 1, 1, 1, 1, 1, 1, 1, 1, 1, 1, 1, 1, 1, 1, 1, 1, 1, 1, 1, 1, 1, 1, 1, 1, 1, 1, 1, 1, 1, 1, 1, 0]"	"[0, 0, 0, 0, 0, 0, 0, 0, 0, 0, 0, 0, 0, 0, 0, 0, 0, 0, 0, 0, 0, 0, 0, 0, 0, 0, 0, 0, 0, 0, 0, 0, 0, 0, 0]"	"[0, 0, 0, 0, 0, 0, 0, 0, 0, 0, 0, 0, 0, 0, 0, 0, 0, 0, 0, 0, 0, 0, 0, 0, 0, 0, 0, 0, 0, 0, 0, 0, 0, 0, 1]"	"[1.0171115999983158, 1.3921065000031376, 1.658892499996, 1.9921078999905149, 2.3339732000022195, 2.683966500000679, 2.983903799991822, 3.3758097999962047, 3.7174209999939194, 4.100722200004384, 4.500806199997896, 4.825644600001397, 5.034032199997455, 5.226975999990827, 5.850951899992651, 6.367453400001978, 6.84243730000162, 7.317626000003656, 7.726056600004085, 8.092737200000556, 8.45948999999382, 8.892737499991199, 9.359418399995775, 9.876318800001172, 10.301291800002218, 10.718129999993835, 11.084756399999605, 11.80944769999769, 12.309659299993655, 12.76785469999595, 13.184557400003541, 13.643038299996988, 14.834790299995802, 15.618066199996974, 16.534903899999335]"	35	"[1.0152454000053694, 1.3902361999935238, 1.657020900005591, 1.990237200006959, 2.332105599998613, 2.682094400006463, 2.982030700004543, 3.373940899997251, 3.715552099994966, 4.098852199997054, 4.498933900002157, 4.823769099995843, 5.0321628999954555, 5.225263900007121, 5.849079699997674, 6.365582900005393, 6.840568900006474, 7.315755599993281, 7.724182599995402, 8.090867799997795, 8.457615099992836, 8.890867099995376, 9.357548500003759, 9.874443499997142, 10.299434700005804, 10.716263099995558, 11.082884699993883, 11.807576699997298, 12.307786799996393, 12.76598080000258, 13.182688200002303, 13.641176200006157, 14.832919399996172, 15.616198300005635, 16.532968500003335]"	"[1.1566833999968367, 1.531793899994227, 1.8233975000039209, 2.0568805999937467, 2.431793600000674, 2.798529799998505, 3.115162300004158, 3.523690500005614, 3.8402366999944206, 4.248559400002705, 4.631933500000741, 4.89861910000036, 5.140340099998866, 5.35699349999777, 5.96534559999418, 6.532161499999347, 6.990423600000213, 7.448843299993314, 7.8654937999963295, 8.24885920000088, 8.623858999999356, 9.015558200000669, 9.540644699998666, 10.00747450000199, 10.432374900003197, 10.840680399996927, 11.23238549999951, 11.990806300003896, 12.474168600005214, 12.907504600007087, 13.315904000002774, 13.782558599996264, 15.024315500006196, 16.049437800000305, 16.532973199995467]"	195.7092210999981	195.71452749999298	197.2064767999982	197.2146209999919								14	01	2024-02-07_15h12.12.677	BART_exp	2023.2.3	120.03476207327506	2024-02-07 15h12.20.654252 +0100	
balloon.png	1	0	9	9	0	197.2146209999919													197.20665330000338	197.2146209999919	197.2146209999919	197.2146209999919	197.2146209999919	197.2146209999919	0.00546559999929741	0.00546559999929741	0.00546559999929741	197.2146209999919	198.41673300000548	2	0.05	True	"[0.012962962962962963, 0.012962962962962963]"	"[-0.37777777777777777, -0.37777777777777777]"	"[1, 1]"	"[0, 0]"	"[0, 0]"	"[0.5670552999945357, 1.0423108999966644]"	2	"[0.5650559999921825, 1.0403101999982027]"	"[0.7648546999989776, 1.1983017000020482]"	198.41732559999218	198.42306699999608	199.91500589999487	199.93148010000004								14	01	2024-02-07_15h12.12.677	BART_exp	2023.2.3	120.03476207327506	2024-02-07 15h12.20.654252 +0100	
balloon.png	79	0	10	10	18	199.93148010000004													199.91518240000005	199.93148010000004	199.93148010000004	199.93148010000004	199.93148010000004	199.93148010000004	-0.0008126000029733405	-0.0008126000029733405	-0.0008126000029733405	199.93148010000004	211.2339595999947	30	1.50	False	"[0.012962962962962963, 0.012962962962962963, 0.012962962962962963, 0.012962962962962963, 0.012962962962962963, 0.012962962962962963, 0.012962962962962963, 0.012962962962962963, 0.012962962962962963, 0.012962962962962963, 0.012962962962962963, 0.012962962962962963, 0.012962962962962963, 0.012962962962962963, 0.012962962962962963, 0.012962962962962963, 0.012962962962962963, 0.012962962962962963, 0.012962962962962963, 0.012962962962962963, 0.012962962962962963, 0.012962962962962963, 0.012962962962962963, 0.012962962962962963, 0.012962962962962963, 0.012962962962962963, 0.012962962962962963, 0.012962962962962963, 0.012962962962962963, 0.012962962962962963, 0.012962962962962963]"	"[-0.37777777777777777, -0.37777777777777777, -0.37777777777777777, -0.37777777777777777, -0.37777777777777777, -0.37777777777777777, -0.37777777777777777, -0.37777777777777777, -0.37777777777777777, -0.37777777777777777, -0.37777777777777777, -0.37777777777777777, -0.37777777777777777, -0.37777777777777777, -0.37777777777777777, -0.37777777777777777, -0.37777777777777777, -0.37777777777777777, -0.37777777777777777, -0.37777777777777777, -0.37777777777777777, -0.37777777777777777, -0.37777777777777777, -0.37777777777777777, -0.37777777777777777, -0.37777777777777777, -0.37777777777777777, -0.37777777777777777, -0.37777777777777777, -0.37777777777777777, -0.37777777777777777]"	"[1, 1, 1, 1, 1, 1, 1, 1, 1, 1, 1, 1, 1, 1, 1, 1, 1, 1, 1, 1, 1, 1, 1, 1, 1, 1, 1, 1, 1, 1, 0]"	"[0, 0, 0, 0, 0, 0, 0, 0, 0, 0, 0, 0, 0, 0, 0, 0, 0, 0, 0, 0, 0, 0, 0, 0, 0, 0, 0, 0, 0, 0, 0]"	"[0, 0, 0, 0, 0, 0, 0, 0, 0, 0, 0, 0, 0, 0, 0, 0, 0, 0, 0, 0, 0, 0, 0, 0, 0, 0, 0, 0, 0, 0, 1]"	"[0.1754681000020355, 0.5837960000062594, 1.0503878000017721, 1.392081700003473, 1.6754652999952668, 1.9005658999958541, 2.1422422000032384, 2.383908599993447, 2.6005036999995355, 2.933977099994081, 3.150646800000686, 3.3756737999938196, 3.600621699995827, 4.000665999992634, 4.359095299994806, 4.800657600004342, 5.159134999994421, 5.55919339999673, 6.57587099999364, 7.084343599999556, 7.650818800000707, 8.017535399994813, 8.259180499997456, 8.467649400001392, 8.917706699998234, 9.267721800002619, 9.726196100004017, 10.092782499996247, 10.459314599997015, 10.87616149999667, 11.3178590000025]"	29	"[0.1679664999974193, 0.5762930999917444, 1.0428863999986788, 1.3845814999949653, 1.6679612999869278, 1.893065199998091, 2.1347381999948993, 2.3764080999972066, 2.5930029999872204, 2.9264788999862503, 3.143140999993193, 3.3681730999960564, 3.593119499986642, 3.9931629999919096, 4.351590999998734, 4.7931542999867816, 5.151629699990735, 5.551692599998205, 6.568373999994947, 7.076839999994263, 7.643310399987968, 8.010030799996457, 8.460149499995168, 8.91020449998905, 9.260224999990896, 9.71869299998798, 10.08528079999087, 10.868656099992222, 11.310292399997707]"	"[0.2760169999965001, 0.7343310999858659, 1.18439289998787, 1.5177101999870501, 1.792768100000103, 2.0177703999943333, 2.251123499998357, 2.4847135999880265, 2.7094733999983873, 3.026151799989748, 3.259524999986752, 3.476182599988533, 3.7012007999874186, 4.159604699991178, 4.492995099994005, 4.901292299997294, 5.2763504999893485, 5.643123499990907, 6.701458899988211, 7.1847614999860525, 7.78486209998664, 8.351501699988148, 8.576526799995918, 9.03491179998673, 9.40160399999877, 9.85168039999553, 10.601799699987168, 11.026695799999288, 11.310296999989077]"	211.23507009999594	211.24061799999618	212.73255889999564	212.74068590000388								14	01	2024-02-07_15h12.12.677	BART_exp	2023.2.3	120.03476207327506	2024-02-07 15h12.20.654252 +0100	
balloon.png	23	0	11	11	5	212.74068590000388													212.7327360999916	212.74068590000388	212.74068590000388	212.74068590000388	212.74068590000388	212.74068590000388	0.005682400005753152	0.005682400005753152	0.005682400005753152	212.74068590000388	221.84328980000282	24	1.15	True	"[0.012962962962962963, 0.012962962962962963, 0.012962962962962963, 0.012962962962962963, 0.012962962962962963, 0.012962962962962963, 0.012962962962962963, 0.012962962962962963, 0.012962962962962963, 0.012962962962962963, 0.012962962962962963, 0.012962962962962963, 0.012962962962962963, 0.012962962962962963, 0.012962962962962963, 0.012962962962962963, 0.012962962962962963, 0.012962962962962963, 0.012962962962962963, 0.012962962962962963, 0.012962962962962963, 0.012962962962962963, 0.012962962962962963, 0.012962962962962963]"	"[-0.37777777777777777, -0.37777777777777777, -0.37777777777777777, -0.37777777777777777, -0.37777777777777777, -0.37777777777777777, -0.37777777777777777, -0.37777777777777777, -0.37777777777777777, -0.37777777777777777, -0.37777777777777777, -0.37777777777777777, -0.37777777777777777, -0.37777777777777777, -0.37777777777777777, -0.37777777777777777, -0.37777777777777777, -0.37777777777777777, -0.37777777777777777, -0.37777777777777777, -0.37777777777777777, -0.37777777777777777, -0.37777777777777777, -0.37777777777777777]"	"[1, 1, 1, 1, 1, 1, 1, 1, 1, 1, 1, 1, 1, 1, 1, 1, 1, 1, 1, 1, 1, 1, 1, 1]"	"[0, 0, 0, 0, 0, 0, 0, 0, 0, 0, 0, 0, 0, 0, 0, 0, 0, 0, 0, 0, 0, 0, 0, 0]"	"[0, 0, 0, 0, 0, 0, 0, 0, 0, 0, 0, 0, 0, 0, 0, 0, 0, 0, 0, 0, 0, 0, 0, 0]"	"[0.43363590000080876, 0.8754933000018355, 1.3171871000085957, 1.5421931000018958, 1.7921560000104364, 2.242284699997981, 2.534077900010743, 2.8171417000121437, 3.0423405000037747, 3.275704700005008, 3.734035200002836, 4.067393900011666, 4.30906730001152, 4.534102500008885, 4.742327700005262, 5.60064340000099, 6.084226300008595, 6.384077399998205, 6.609103800001321, 7.092629400009173, 7.759283600011258, 8.31766040000366, 8.742557500008843, 8.992552399999113]"	24	"[0.43174260000523645, 0.873599300000933, 1.315289500009385, 1.5402993000025162, 1.7902590000012424, 2.2403938000061316, 2.5321962000016356, 2.815245700010564, 3.0404383999994025, 3.2738228000089293, 3.7321359000052325, 4.065494399997988, 4.307173900000635, 4.532205700001214, 4.74043000000529, 5.598747000010917, 6.082331300000078, 6.382191700002295, 6.607220799996867, 7.090731000003871, 7.75738700000511, 8.315760500001488, 8.740661400006502, 8.990652799999225]"	"[0.56493560000672, 0.9982984000089345, 1.4399908000050345, 1.6733891000039876, 1.898386800006847, 2.298382599998149, 2.640162199997576, 2.9234193000011146, 3.1567636000108905, 3.3984412999998312, 3.840156400008709, 4.18187190000026, 4.415217400004622, 4.62354710001091, 4.840250499997637, 5.740279799996642, 6.215311100007966, 6.49052120000124, 6.7155242000008, 7.240400900001987, 7.890415500005474, 8.465471300005447, 8.848829900001874, 9.098879800003488]"	221.84426050000184	221.8496887999936	223.34160669999255	223.3497500999947								14	01	2024-02-07_15h12.12.677	BART_exp	2023.2.3	120.03476207327506	2024-02-07 15h12.20.654252 +0100	
balloon.png	27	0	12	12	6	223.3497500999947													223.34178439999232	223.3497500999947	223.3497500999947	223.3497500999947	223.3497500999947	223.3497500999947	0.005550399990170263			223.3497500999947	232.7855378999957	20	1.00	False	"[0.012962962962962963, 0.012962962962962963, 0.012962962962962963, 0.012962962962962963, 0.012962962962962963, 0.012962962962962963, 0.012962962962962963, 0.012962962962962963, 0.012962962962962963, 0.012962962962962963, 0.012962962962962963, 0.012962962962962963, 0.012962962962962963, 0.012962962962962963, 0.012962962962962963, 0.012962962962962963, 0.012962962962962963, 0.012962962962962963, 0.012962962962962963, 0.012962962962962963, 0.012962962962962963]"	"[-0.37777777777777777, -0.37777777777777777, -0.37777777777777777, -0.37777777777777777, -0.37777777777777777, -0.37777777777777777, -0.37777777777777777, -0.37777777777777777, -0.37777777777777777, -0.37777777777777777, -0.37777777777777777, -0.37777777777777777, -0.37777777777777777, -0.37777777777777777, -0.37777777777777777, -0.37777777777777777, -0.37777777777777777, -0.37777777777777777, -0.37777777777777777, -0.37777777777777777, -0.37777777777777777]"	"[1, 1, 1, 1, 1, 1, 1, 1, 1, 1, 1, 1, 1, 1, 1, 1, 1, 1, 1, 1, 0]"	"[0, 0, 0, 0, 0, 0, 0, 0, 0, 0, 0, 0, 0, 0, 0, 0, 0, 0, 0, 0, 0]"	"[0, 0, 0, 0, 0, 0, 0, 0, 0, 0, 0, 0, 0, 0, 0, 0, 0, 0, 0, 0, 1]"	"[0.4087969999964116, 0.6590679999935674, 0.9337068000022555, 1.3839518000022508, 1.8255466999980854, 2.2004490999970585, 3.0340095999999903, 3.525554399995599, 4.209134999997332, 4.625786799995694, 5.142338799996651, 5.542353299999377, 5.87591249999241, 6.3590926000033505, 6.875918699995964, 7.334223500001826, 7.759157199994661, 8.201028900002711, 8.60939209999924, 9.03526150000107, 9.442842199990992]"	21	"[0.4068637000018498, 0.6571269999985816, 0.9317668000003323, 1.3820116999995662, 1.8236150000011548, 2.1985115999996196, 3.0320726000063587, 3.523612900011358, 4.2072005000081845, 4.623850800009677, 5.140399500000058, 5.540411900001345, 5.8739726000058, 6.357151800009888, 6.873979700001655, 7.3322827000083635, 7.757213300006697, 8.199101000005612, 8.607459000006202, 9.033412400007364, 9.440840000010212]"	"[0.5399056000023847, 0.7982838000025367, 1.0816539000079501, 1.5399704000010388, 1.956672800006345, 2.35671240001102, 3.1818169000034686, 3.665255400002934, 4.373548100003973, 4.790212400010205, 5.248574099998223, 5.631917100006831, 5.981939899997087, 6.465342800001963, 6.99038930000097, 7.4237343999993755, 7.865445300005376, 8.323894900007872, 8.73234919999959, 9.165607600007206, 9.44084440000006]"	232.78644579999673	232.79210209999292	234.28401550000126	234.29216579999775								14	01	2024-02-07_15h12.12.677	BART_exp	2023.2.3	120.03476207327506	2024-02-07 15h12.20.654252 +0100	
balloon.png	114	0	13	13	26	234.29216579999775													234.28419429999485	234.29216579999775	234.29216579999775	234.29216579999775	234.29216579999775	234.29216579999775	0.005787000001873821	0.005787000001873821	0.005787000001873821	234.29216579999775	244.25273720000405	20	1.00	False	"[0.012962962962962963, 0.012962962962962963, 0.012962962962962963, 0.012962962962962963, 0.012962962962962963, 0.012962962962962963, 0.012962962962962963, 0.012962962962962963, 0.012962962962962963, 0.012962962962962963, 0.012962962962962963, 0.012962962962962963, 0.012962962962962963, 0.012962962962962963, 0.012962962962962963, 0.012962962962962963, 0.012962962962962963, 0.012962962962962963, 0.012962962962962963, 0.012962962962962963, 0.012962962962962963]"	"[-0.37777777777777777, -0.37777777777777777, -0.37777777777777777, -0.37777777777777777, -0.37777777777777777, -0.37777777777777777, -0.37777777777777777, -0.37777777777777777, -0.37777777777777777, -0.37777777777777777, -0.37777777777777777, -0.37777777777777777, -0.37777777777777777, -0.37777777777777777, -0.37777777777777777, -0.37777777777777777, -0.37777777777777777, -0.37777777777777777, -0.37777777777777777, -0.37777777777777777, -0.37777777777777777]"	"[1, 1, 1, 1, 1, 1, 1, 1, 1, 1, 1, 1, 1, 1, 1, 1, 1, 1, 1, 1, 0]"	"[0, 0, 0, 0, 0, 0, 0, 0, 0, 0, 0, 0, 0, 0, 0, 0, 0, 0, 0, 0, 0]"	"[0, 0, 0, 0, 0, 0, 0, 0, 0, 0, 0, 0, 0, 0, 0, 0, 0, 0, 0, 0, 1]"	"[0.5338446000096155, 0.99206520000007, 1.4173915999999736, 1.9254482000105781, 2.458933400004753, 2.9006672000105027, 3.3256784999975935, 3.767276300000958, 4.217249300010735, 4.625622999999905, 5.259331799999927, 6.125866700007464, 6.592414700004156, 6.909254600002896, 7.259287300010328, 7.609148500006995, 8.067756400007056, 8.600920800003223, 8.975916700001108, 9.484574500005692, 9.967630500002997]"	21	"[0.5319676999934018, 0.9901909999898635, 1.415517200002796, 1.923567699996056, 2.4570534999947995, 2.898787500002072, 3.323800400001346, 3.765394699992612, 4.215372399994521, 4.623744800002896, 5.257450199991581, 6.12398979999125, 6.590532999995048, 6.907376599992858, 7.257413599989377, 7.607270599997719, 8.065876799999387, 8.599044499991578, 8.974034400001983, 9.482699000000139, 9.965689199991175]"	"[0.6899998000008054, 1.1568951999943238, 1.5651652999949874, 2.056801099999575, 2.590117100000498, 3.0234912000014447, 3.4568321999977343, 3.9151849999907427, 4.331889900000533, 4.731921600003261, 5.373653899994679, 6.24874889999046, 6.68208539999614, 7.0237415000010515, 7.373778599998332, 7.732138099992881, 8.190545599994948, 8.740552999995998, 9.107298499991884, 9.640606399989338, 9.96569389999786]"	244.25376659999893	244.25952490000054	245.7515129999956	245.77628419999382								14	01	2024-02-07_15h12.12.677	BART_exp	2023.2.3	120.03476207327506	2024-02-07 15h12.20.654252 +0100	
balloon.png	18	0	14	14	4	245.77628419999382													245.75168909999775	245.77628419999382	245.77628419999382	245.77628419999382	245.77628419999382	245.77628419999382	-0.0008633999968878925	-0.0008633999968878925	-0.0008633999968878925	245.77628419999382	254.2287792999996	19	0.90	True	"[0.012962962962962963, 0.012962962962962963, 0.012962962962962963, 0.012962962962962963, 0.012962962962962963, 0.012962962962962963, 0.012962962962962963, 0.012962962962962963, 0.012962962962962963, 0.012962962962962963, 0.012962962962962963, 0.012962962962962963, 0.012962962962962963, 0.012962962962962963, 0.012962962962962963, 0.012962962962962963, 0.012962962962962963, 0.012962962962962963, 0.012962962962962963]"	"[-0.37777777777777777, -0.37777777777777777, -0.37777777777777777, -0.37777777777777777, -0.37777777777777777, -0.37777777777777777, -0.37777777777777777, -0.37777777777777777, -0.37777777777777777, -0.37777777777777777, -0.37777777777777777, -0.37777777777777777, -0.37777777777777777, -0.37777777777777777, -0.37777777777777777, -0.37777777777777777, -0.37777777777777777, -0.37777777777777777, -0.37777777777777777]"	"[1, 1, 1, 1, 1, 1, 1, 1, 1, 1, 1, 1, 1, 1, 1, 1, 1, 1, 1]"	"[0, 0, 0, 0, 0, 0, 0, 0, 0, 0, 0, 0, 0, 0, 0, 0, 0, 0, 0]"	"[0, 0, 0, 0, 0, 0, 0, 0, 0, 0, 0, 0, 0, 0, 0, 0, 0, 0, 0]"	"[0.6171773999958532, 1.1170286999986274, 1.5755392999999458, 2.017212799997651, 2.41725349999615, 2.8339486999902874, 3.3257677999936277, 3.758986599990749, 4.184031999990111, 4.600736699998379, 4.892289299998083, 5.3841278000036255, 5.825810599999386, 6.200857199990423, 6.675877300003776, 7.042559800000163, 7.492538099992089, 7.925808699990739, 8.350962500000605]"	19	"[0.6066194000013638, 1.1064630000037141, 1.5649759999942034, 2.006666799992672, 2.4066872999974294, 2.823387600001297, 3.3152058999985456, 3.748422100004973, 4.173469999994268, 4.590172500000335, 4.881722299993271, 5.373570299998391, 5.815250800005742, 6.19029070000397, 6.665318600003957, 7.031993399999919, 7.48197860000073, 7.915243499999633, 8.340398400003323]"	"[0.7993726999993669, 1.2646354000025894, 1.7064508000039496, 2.1563679999962915, 2.564838199992664, 2.9647802999970736, 3.4231151999993017, 3.8731525000039255, 4.314855599994189, 4.739885100003448, 5.023227800003951, 5.498436499998206, 5.906675699996413, 6.306646600001841, 6.7400209000043105, 7.131770599997253, 7.581790399999591, 8.006779899995308, 8.456814499993925]"	254.22968459999538	254.23520429999917	255.72717539999576	255.73532809999597								14	01	2024-02-07_15h12.12.677	BART_exp	2023.2.3	120.03476207327506	2024-02-07 15h12.20.654252 +0100	
balloon.png	53	0	15	15	12	255.73532809999597													255.72734719999426	255.73532809999597	255.73532809999597	255.73532809999597	255.73532809999597	255.73532809999597	0.005703500006347895			255.73532809999597	266.1793858000019	21	1.05	False	"[0.012962962962962963, 0.012962962962962963, 0.012962962962962963, 0.012962962962962963, 0.012962962962962963, 0.012962962962962963, 0.012962962962962963, 0.012962962962962963, 0.012962962962962963, 0.012962962962962963, 0.012962962962962963, 0.012962962962962963, 0.012962962962962963, 0.012962962962962963, 0.012962962962962963, 0.012962962962962963, 0.012962962962962963, 0.012962962962962963, 0.012962962962962963, 0.012962962962962963, 0.012962962962962963, 0.012962962962962963]"	"[-0.37777777777777777, -0.37777777777777777, -0.37777777777777777, -0.37777777777777777, -0.37777777777777777, -0.37777777777777777, -0.37777777777777777, -0.37777777777777777, -0.37777777777777777, -0.37777777777777777, -0.37777777777777777, -0.37777777777777777, -0.37777777777777777, -0.37777777777777777, -0.37777777777777777, -0.37777777777777777, -0.37777777777777777, -0.37777777777777777, -0.37777777777777777, -0.37777777777777777, -0.37777777777777777, -0.37777777777777777]"	"[1, 1, 1, 1, 1, 1, 1, 1, 1, 1, 1, 1, 1, 1, 1, 1, 1, 1, 1, 1, 1, 0]"	"[0, 0, 0, 0, 0, 0, 0, 0, 0, 0, 0, 0, 0, 0, 0, 0, 0, 0, 0, 0, 0, 0]"	"[0, 0, 0, 0, 0, 0, 0, 0, 0, 0, 0, 0, 0, 0, 0, 0, 0, 0, 0, 0, 0, 1]"	"[0.400492500004475, 0.9253612000029534, 1.3755727999960072, 1.7254097999975784, 2.192283500000485, 2.575610500003677, 2.975638699994306, 3.342235200005234, 3.708888000008301, 4.158908199999132, 4.642511199999717, 5.042524400007096, 5.467485300003318, 5.825895000001765, 6.2757759999949485, 6.667582699999912, 7.100814799996442, 7.484151900003781, 7.926122000004398, 8.342570100008743, 8.917756299997563, 10.451140100005432]"	22	"[0.3986153000005288, 0.9234706999995979, 1.3736818999896059, 1.7235194999957457, 2.190395099998568, 2.573720599990338, 2.9737453999987338, 3.340351199993165, 3.706994599997415, 4.157018899990362, 4.640620199992554, 5.040630199990119, 5.465595499990741, 5.824015399994096, 6.273887799994554, 6.665689699992072, 7.098923699988518, 7.482266699997126, 7.92424100000062, 8.340677599990158, 8.915863999995054, 10.449185099991155]"	"[0.5566508999909274, 1.0567683999979636, 1.5066941999975825, 1.8400828999874648, 2.340089099991019, 2.7068037999997614, 3.0901314999937313, 3.44856129999971, 3.8235071999952197, 4.256925499998033, 4.756929899987881, 5.1402660999883665, 5.523626199996215, 5.94034789998841, 6.373714699991979, 6.757052599990857, 7.19875619999948, 7.573796899989247, 8.032184099996812, 8.432169099993189, 8.99057099998754, 10.449189699997078]"	266.1804153999983	266.18606150000414	267.6779799999931	267.68612569999823								14	01	2024-02-07_15h12.12.677	BART_exp	2023.2.3	120.03476207327506	2024-02-07 15h12.20.654252 +0100	
balloon.png	10	0	16	16	2	267.68612569999823													267.67815469999914	267.68612569999823	267.68612569999823	267.68612569999823	267.68612569999823	267.68612569999823	0.005777400001534261	0.005777400001534261	0.005777400001534261	267.68612569999823	275.05532679999305	11	0.50	True	"[-0.013888888888888888, -0.013888888888888888, -0.013888888888888888, -0.013888888888888888, -0.013888888888888888, -0.013888888888888888, -0.013888888888888888, -0.013888888888888888, -0.013888888888888888, -0.013888888888888888, -0.013888888888888888]"	"[-0.3990740740740741, -0.3990740740740741, -0.3990740740740741, -0.3990740740740741, -0.3990740740740741, -0.3990740740740741, -0.3990740740740741, -0.3990740740740741, -0.3990740740740741, -0.3990740740740741, -0.3990740740740741]"	"[1, 1, 1, 1, 1, 1, 1, 1, 1, 1, 1]"	"[0, 0, 0, 0, 0, 0, 0, 0, 0, 0, 0]"	"[0, 0, 0, 0, 0, 0, 0, 0, 0, 0, 0]"	"[1.5337847999908263, 2.31727050000336, 3.017294799996307, 3.6423875999898883, 4.234072099992773, 4.900818499998422, 5.450833399998373, 5.859176400001161, 6.334094299993012, 6.767466399993282, 7.234282299992628]"	11	"[1.5319202999962727, 2.3154120999970473, 3.015436999994563, 3.6405197999993106, 4.232230499997968, 4.898952899995493, 5.448982199988677, 5.857307999991463, 6.332227799997781, 6.765600599988829, 7.232417699997313]"	"[1.6400836999964667, 2.4318073999893386, 3.1318207000003895, 3.806942999988678, 4.356928699999116, 5.006953399992199, 5.5653565999964485, 5.990377999987686, 6.457064399990486, 6.865431699989131, 7.3656343999900855]"	275.0562612999929	275.06167290000303	276.55359929999395	276.5617376000009								14	01	2024-02-07_15h12.12.677	BART_exp	2023.2.3	120.03476207327506	2024-02-07 15h12.20.654252 +0100	
balloon.png	49	0	17	17	11	276.5617376000009													276.5537784000044	276.5617376000009	276.5617376000009	276.5617376000009	276.5617376000009	276.5617376000009	0.005536600001505576			276.5617376000009	289.08094020000135	22	1.10	False	"[-0.013888888888888888, -0.013888888888888888, -0.013888888888888888, -0.013888888888888888, -0.013888888888888888, -0.013888888888888888, -0.013888888888888888, -0.013888888888888888, -0.013888888888888888, -0.013888888888888888, -0.013888888888888888, -0.013888888888888888, -0.013888888888888888, -0.013888888888888888, -0.013888888888888888, -0.013888888888888888, -0.013888888888888888, -0.013888888888888888, -0.013888888888888888, -0.013888888888888888, -0.013888888888888888, -0.013888888888888888, -0.013888888888888888]"	"[-0.3990740740740741, -0.3990740740740741, -0.3990740740740741, -0.3990740740740741, -0.3990740740740741, -0.3990740740740741, -0.3990740740740741, -0.3990740740740741, -0.3990740740740741, -0.3990740740740741, -0.3990740740740741, -0.3990740740740741, -0.3990740740740741, -0.3990740740740741, -0.3990740740740741, -0.3990740740740741, -0.3990740740740741, -0.3990740740740741, -0.3990740740740741, -0.3990740740740741, -0.3990740740740741, -0.3990740740740741, -0.3990740740740741]"	"[1, 1, 1, 1, 1, 1, 1, 1, 1, 1, 1, 1, 1, 1, 1, 1, 1, 1, 1, 1, 1, 1, 0]"	"[0, 0, 0, 0, 0, 0, 0, 0, 0, 0, 0, 0, 0, 0, 0, 0, 0, 0, 0, 0, 0, 0, 0]"	"[0, 0, 0, 0, 0, 0, 0, 0, 0, 0, 0, 0, 0, 0, 0, 0, 0, 0, 0, 0, 0, 0, 1]"	"[1.3755481999978656, 1.8920666000049096, 2.3339662000071257, 2.700581199998851, 3.217307700004312, 3.6590147000097204, 4.159148600010667, 4.850623200007249, 5.342539100005524, 6.392584600005648, 6.859063000010792, 7.2174413000029745, 7.584332900005393, 8.034151900006691, 8.492573299998185, 8.951067600006354, 9.642617000004975, 10.126142400011304, 10.717885899997782, 11.192865700009861, 11.684525600008783, 12.101235399997677, 12.526254700002028]"	23	"[1.3736595000082161, 1.8901755999977468, 2.3320742000069004, 2.698686000003363, 3.215414799997234, 3.6571197000012035, 4.157255400001304, 4.848727999997209, 5.340648199999123, 6.390694300003815, 6.8571673999977065, 7.215541199999279, 7.5824374000076205, 8.032252200006042, 8.49067389999982, 8.949175200003083, 9.640725500008557, 10.124248200008878, 10.715987300005509, 11.190970099996775, 11.682628099995782, 12.099343900001259, 12.524295700000948]"	"[1.4900280000001658, 2.023464400001103, 2.4567355000035604, 2.8486012000066694, 3.2735046000016155, 3.8069518999982392, 4.27353380000568, 4.973589800007176, 5.4736378000088735, 6.515363800004707, 6.923710000002757, 7.315407600006438, 7.707146700005978, 8.14047230000142, 8.615495300007751, 9.07386150000093, 9.782306699999026, 10.23229440000432, 10.83231589999923, 11.274010799999814, 11.78236470000411, 12.190727599998354, 12.524300400007633]"	289.0818743999989	289.0876510999951	290.5795455000043	290.59605819999706								14	01	2024-02-07_15h12.12.677	BART_exp	2023.2.3	120.03476207327506	2024-02-07 15h12.20.654252 +0100	
balloon.png	105	0	18	18	24	290.59605819999706													290.5797246000002	290.59605819999706	290.59605819999706	290.59605819999706	290.59605819999706	290.59605819999706	-0.0008998999983305112	-0.0008998999983305112	-0.0008998999983305112	290.59605819999706	301.2651917000039	22	1.10	False	"[-0.013888888888888888, -0.013888888888888888, -0.013888888888888888, -0.013888888888888888, -0.013888888888888888, -0.013888888888888888, -0.013888888888888888, -0.013888888888888888, -0.013888888888888888, -0.013888888888888888, -0.013888888888888888, -0.013888888888888888, -0.013888888888888888, -0.013888888888888888, -0.013888888888888888, -0.013888888888888888, -0.013888888888888888, -0.013888888888888888, -0.013888888888888888, -0.013888888888888888, -0.013888888888888888, -0.013888888888888888, -0.013888888888888888]"	"[-0.3990740740740741, -0.3990740740740741, -0.3990740740740741, -0.3990740740740741, -0.3990740740740741, -0.3990740740740741, -0.3990740740740741, -0.3990740740740741, -0.3990740740740741, -0.3990740740740741, -0.3990740740740741, -0.3990740740740741, -0.3990740740740741, -0.3990740740740741, -0.3990740740740741, -0.3990740740740741, -0.3990740740740741, -0.3990740740740741, -0.3990740740740741, -0.3990740740740741, -0.3990740740740741, -0.3990740740740741, -0.3990740740740741]"	"[1, 1, 1, 1, 1, 1, 1, 1, 1, 1, 1, 1, 1, 1, 1, 1, 1, 1, 1, 1, 1, 1, 0]"	"[0, 0, 0, 0, 0, 0, 0, 0, 0, 0, 0, 0, 0, 0, 0, 0, 0, 0, 0, 0, 0, 0, 0]"	"[0, 0, 0, 0, 0, 0, 0, 0, 0, 0, 0, 0, 0, 0, 0, 0, 0, 0, 0, 0, 0, 0, 1]"	"[0.8336850000050617, 1.2838679999986198, 1.7174491000041598, 2.117633800007752, 2.5589673000067705, 3.0005077999958303, 3.375670599998557, 3.825582799996482, 4.217276700001094, 4.642267700008233, 5.05912299999909, 5.434000099994591, 5.89255210000556, 6.384066800004803, 6.875906200002646, 7.4593247000011615, 7.859158299994306, 8.276086700003361, 8.876115100007155, 9.301098900003126, 9.959307400000398, 10.384336899995105, 10.684545800002525]"	23	"[0.8309320999978809, 1.2811176999966847, 1.7146982999984175, 2.114899799998966, 2.5562168000033125, 2.9977615000098012, 3.3729300999984844, 3.8228308000107063, 4.214528299999074, 4.639537499999278, 5.056379400004516, 5.4312481000088155, 5.889805300001171, 6.381314099999145, 6.873153200009256, 7.456574800002272, 7.856409800006077, 8.27333520000684, 8.873370400004205, 9.298347500007367, 9.956553399999393, 10.381586900010007, 10.681737200007774]"	"[0.9642473999992944, 1.4225063000048976, 1.8308772000018507, 2.1894485000084387, 2.6726120000093943, 3.1311181000055512, 3.5059819000016432, 3.9226580999966245, 4.314353499998106, 4.75612170000386, 5.164418500004103, 5.556110400008038, 6.022794700009399, 6.522835700001451, 7.014539700001478, 7.589577799997642, 7.997982300003059, 8.431317299997318, 8.998047700006282, 9.406375600010506, 10.064923500001896, 10.50646279999637, 10.681741599997622]"	301.2661334000004	301.2717648999969	302.7637614999985	302.78020280000055								14	01	2024-02-07_15h12.12.677	BART_exp	2023.2.3	120.03476207327506	2024-02-07 15h12.20.654252 +0100	
balloon.png	66	0	19	19	15	302.78020280000055													302.76394010000513	302.78020280000055	302.78020280000055	302.78020280000055	302.78020280000055	302.78020280000055	-0.0009348000021418557	-0.0009348000021418557	-0.0009348000021418557	302.78020280000055	313.4576759000047	22	1.10	False	"[-0.013888888888888888, -0.013888888888888888, -0.013888888888888888, -0.013888888888888888, -0.013888888888888888, -0.013888888888888888, -0.013888888888888888, -0.013888888888888888, -0.013888888888888888, -0.013888888888888888, -0.013888888888888888, -0.013888888888888888, -0.013888888888888888, -0.013888888888888888, -0.013888888888888888, -0.013888888888888888, -0.013888888888888888, -0.013888888888888888, -0.013888888888888888, -0.013888888888888888, -0.013888888888888888, -0.013888888888888888, -0.013888888888888888]"	"[-0.3990740740740741, -0.3990740740740741, -0.3990740740740741, -0.3990740740740741, -0.3990740740740741, -0.3990740740740741, -0.3990740740740741, -0.3990740740740741, -0.3990740740740741, -0.3990740740740741, -0.3990740740740741, -0.3990740740740741, -0.3990740740740741, -0.3990740740740741, -0.3990740740740741, -0.3990740740740741, -0.3990740740740741, -0.3990740740740741, -0.3990740740740741, -0.3990740740740741, -0.3990740740740741, -0.3990740740740741, -0.3990740740740741]"	"[1, 1, 1, 1, 1, 1, 1, 1, 1, 1, 1, 1, 1, 1, 1, 1, 1, 1, 1, 1, 1, 1, 0]"	"[0, 0, 0, 0, 0, 0, 0, 0, 0, 0, 0, 0, 0, 0, 0, 0, 0, 0, 0, 0, 0, 0, 0]"	"[0, 0, 0, 0, 0, 0, 0, 0, 0, 0, 0, 0, 0, 0, 0, 0, 0, 0, 0, 0, 0, 0, 1]"	"[0.39215060000424273, 0.7919715000025462, 1.2253166000009514, 1.625351700000465, 2.0921992999938084, 2.5005683000053978, 3.042226399993524, 3.600488399999449, 4.042180000004009, 4.442227399995318, 4.833895500007202, 5.175594700005604, 5.5257629999978235, 5.983987400002661, 6.434229399994365, 6.967417099993327, 7.467559299999266, 7.817482300000847, 8.31763819999469, 8.77583909999521, 9.901080399999046, 10.375935100004426, 10.69280720000097]"	23	"[0.38404439999430906, 0.7838646999880439, 1.2172131999977864, 1.6172444999974687, 2.084097999992082, 2.4924698999966495, 3.034123699995689, 3.592387599986978, 4.034071699992637, 4.434118699995452, 4.825796799996169, 5.167486099991947, 5.5176573999924585, 5.975882399987313, 6.426124599995092, 6.959307400000398, 7.459456099997624, 7.80937350000022, 8.309558199995081, 8.767733099986799, 9.89297689999512, 10.367828199989162, 10.684637099999236]"	"[0.533697699996992, 0.9171901999943657, 1.3170566999906441, 1.750427099992521, 2.2004697999946075, 2.6254884999943897, 3.1838603999931365, 3.7255809999915073, 4.1756035999860615, 4.558952099992894, 4.950736399987363, 5.3257022999896435, 5.684082899999339, 6.117410899998504, 6.5924822999950266, 7.109146399991005, 7.609429799995269, 7.959222299992689, 8.417546599986963, 8.867658499992103, 10.034375299990643, 10.484379699992132, 10.68464189999213]"	313.45861299999524	313.464267000003	314.95622939999157	314.97270359999675								14	01	2024-02-07_15h12.12.677	BART_exp	2023.2.3	120.03476207327506	2024-02-07 15h12.20.654252 +0100	
balloon.png	31	0	20	20	7	314.97270359999675													314.95639940000547	314.97270359999675	314.97270359999675	314.97270359999675	314.97270359999675	314.97270359999675	-0.0009804000001167879	-0.0009804000001167879	-0.0009804000001167879	314.97270359999675	329.10867279999366	18	0.90	False	"[-0.013888888888888888, -0.013888888888888888, -0.013888888888888888, -0.013888888888888888, -0.013888888888888888, -0.013888888888888888, -0.013888888888888888, -0.013888888888888888, -0.013888888888888888, -0.013888888888888888, -0.013888888888888888, -0.013888888888888888, -0.013888888888888888, -0.013888888888888888, -0.013888888888888888, -0.013888888888888888, -0.013888888888888888, -0.013888888888888888, -0.013888888888888888]"	"[-0.3990740740740741, -0.3990740740740741, -0.3990740740740741, -0.3990740740740741, -0.3990740740740741, -0.3990740740740741, -0.3990740740740741, -0.3990740740740741, -0.3990740740740741, -0.3990740740740741, -0.3990740740740741, -0.3990740740740741, -0.3990740740740741, -0.3990740740740741, -0.3990740740740741, -0.3990740740740741, -0.3990740740740741, -0.3990740740740741, -0.3990740740740741]"	"[1, 1, 1, 1, 1, 1, 1, 1, 1, 1, 1, 1, 1, 1, 1, 1, 1, 1, 0]"	"[0, 0, 0, 0, 0, 0, 0, 0, 0, 0, 0, 0, 0, 0, 0, 0, 0, 0, 0]"	"[0, 0, 0, 0, 0, 0, 0, 0, 0, 0, 0, 0, 0, 0, 0, 0, 0, 0, 1]"	"[0.5339045000000624, 1.6589556999970227, 2.092293800000334, 2.550618899986148, 5.650938999999198, 6.035331699997187, 6.500912699993933, 6.934262700000545, 7.43415339999774, 7.876014999987092, 8.634200999993482, 9.48467969999183, 10.326186599995708, 11.001049299986335, 11.442887899989728, 11.867936700000428, 13.351316699991003, 13.801326799992239, 14.151342199998908]"	19	"[0.5279275000066264, 1.6529734000068856, 2.0863153000100283, 2.5446374000021024, 5.644961500001955, 6.029500900011044, 6.494933800000581, 6.928302200001781, 7.428175000008196, 7.870032500009984, 8.62821390001045, 9.478697700003977, 10.320213700004388, 10.99506860000838, 11.436902600005851, 11.861960700000054, 13.34533910000755, 13.795343700010562, 14.14529690000927]"	"[0.6358524000097532, 1.7942698999977438, 2.2193418000097154, 2.6776796000049217, 5.777879400004167, 6.169663300010143, 6.619624800005113, 7.052974400008679, 7.578006800002186, 8.011367300001439, 8.761503200003062, 9.644920200007618, 10.503342399999383, 11.15327170000819, 11.603298800007906, 12.00333629999659, 13.470187600003555, 13.90370530000655, 14.145301600001403]"	329.10955639999884	329.1153462999937	330.6073049999977	330.62379019999935								14	01	2024-02-07_15h12.12.677	BART_exp	2023.2.3	120.03476207327506	2024-02-07 15h12.20.654252 +0100	
balloon.png	14	0	21	21	3	330.62379019999935													330.6074835000036	330.62379019999935	330.62379019999935	330.62379019999935	330.62379019999935	330.62379019999935	-0.0007968999998411164	-0.0007968999998411164	-0.0007968999998411164	330.62379019999935	337.91783679999935	15	0.70	True	"[-0.013888888888888888, -0.013888888888888888, -0.013888888888888888, -0.013888888888888888, -0.013888888888888888, -0.013888888888888888, -0.013888888888888888, -0.013888888888888888, -0.013888888888888888, -0.013888888888888888, -0.013888888888888888, -0.013888888888888888, -0.013888888888888888, -0.013888888888888888, -0.013888888888888888]"	"[-0.3990740740740741, -0.3990740740740741, -0.3990740740740741, -0.3990740740740741, -0.3990740740740741, -0.3990740740740741, -0.3990740740740741, -0.3990740740740741, -0.3990740740740741, -0.3990740740740741, -0.3990740740740741, -0.3990740740740741, -0.3990740740740741, -0.3990740740740741, -0.3990740740740741]"	"[1, 1, 1, 1, 1, 1, 1, 1, 1, 1, 1, 1, 1, 1, 1]"	"[0, 0, 0, 0, 0, 0, 0, 0, 0, 0, 0, 0, 0, 0, 0]"	"[0, 0, 0, 0, 0, 0, 0, 0, 0, 0, 0, 0, 0, 0, 0]"	"[0.4919804999954067, 0.8590489999915008, 1.275539199996274, 1.6756203999975696, 2.217295299997204, 2.6089604000007967, 3.058995200000936, 3.5338526999985334, 3.959069999997155, 4.40075159999833, 4.984092700004112, 5.475659999996424, 6.159215499996208, 6.667570699995849, 7.134085099998629]"	15	"[0.4875107999978354, 0.8545774000085657, 1.271071800001664, 1.6711496000061743, 2.2128271000110544, 2.6044909000047483, 3.0545243000087794, 3.529384499997832, 3.9545974000066053, 4.396278200001689, 4.979624800005695, 5.4711848000006285, 6.154743799997959, 6.6631008999975165, 7.129609499999788]"	"[0.5624761000071885, 0.9207648000010522, 1.3457518000068376, 1.8125156000023708, 2.3291437000007136, 2.712554600002477, 3.1875409000058426, 3.6042461000033654, 4.120987900008913, 4.537687200005166, 5.1210000999999465, 5.612696700001834, 6.321317399997497, 6.796148699999321, 7.2961622000002535]"	337.9187130999926	337.92432000000554	339.4162456999911	339.42440859999624								14	01	2024-02-07_15h12.12.677	BART_exp	2023.2.3	120.03476207327506	2024-02-07 15h12.20.654252 +0100	
balloon.png	127	0	22	22	29	339.42440859999624													339.41642310000316	339.42440859999624	339.42440859999624	339.42440859999624	339.42440859999624	339.42440859999624	0.005760599990026094			339.42440859999624	346.96829209999123	22	1.10	False	"[-0.013888888888888888, -0.013888888888888888, -0.013888888888888888, -0.013888888888888888, -0.013888888888888888, -0.013888888888888888, -0.013888888888888888, -0.013888888888888888, -0.013888888888888888, -0.013888888888888888, -0.013888888888888888, -0.013888888888888888, -0.013888888888888888, -0.013888888888888888, -0.013888888888888888, -0.013888888888888888, -0.013888888888888888, -0.013888888888888888, -0.013888888888888888, -0.013888888888888888, -0.013888888888888888, -0.013888888888888888, -0.013888888888888888]"	"[-0.3990740740740741, -0.3990740740740741, -0.3990740740740741, -0.3990740740740741, -0.3990740740740741, -0.3990740740740741, -0.3990740740740741, -0.3990740740740741, -0.3990740740740741, -0.3990740740740741, -0.3990740740740741, -0.3990740740740741, -0.3990740740740741, -0.3990740740740741, -0.3990740740740741, -0.3990740740740741, -0.3990740740740741, -0.3990740740740741, -0.3990740740740741, -0.3990740740740741, -0.3990740740740741, -0.3990740740740741, -0.3990740740740741]"	"[1, 1, 1, 1, 1, 1, 1, 1, 1, 1, 1, 1, 1, 1, 1, 1, 1, 1, 1, 1, 1, 1, 0]"	"[0, 0, 0, 0, 0, 0, 0, 0, 0, 0, 0, 0, 0, 0, 0, 0, 0, 0, 0, 0, 0, 0, 0]"	"[0, 0, 0, 0, 0, 0, 0, 0, 0, 0, 0, 0, 0, 0, 0, 0, 0, 0, 0, 0, 0, 0, 1]"	"[0.35045960001298226, 0.6255842000100529, 0.8423617000080412, 1.0505279000062728, 1.2505376000044635, 1.4670636000082595, 1.6920753000013065, 1.9004185000085272, 2.1171411000104854, 2.3421463000122458, 2.534031400005915, 2.767294600009336, 3.1506136000098195, 3.6257133000035537, 4.342379000008805, 4.692294400010724, 5.042456800001673, 5.459029300007387, 5.850850400005584, 6.292523300013272, 6.9424288000009255, 7.167620200008969, 7.550971100004972]"	23	"[0.3485489000013331, 0.6236703000031412, 0.8404447000066284, 1.0486137000116287, 1.248621999999159, 1.4651484000060009, 1.6901572000060696, 1.89849900000263, 2.1152269000012893, 2.34023500001058, 2.532116300004418, 2.765379300006316, 3.148696000003838, 3.6238009000080638, 4.340467500005616, 4.690380100000766, 5.040539900001022, 5.4571194000018295, 5.848940500000026, 6.290631500000018, 6.9324346000066726, 7.16570500000671, 7.548991900010151]"	"[0.4830087000009371, 0.7316443000017898, 0.9316263000073377, 1.140001799998572, 1.3566878999990877, 1.5734938000096008, 1.7900212000095053, 1.9983747000078438, 2.2233844000002136, 2.448437400002149, 2.6401257000106853, 2.9152745000028517, 3.265125000005355, 3.7318525000009686, 4.465253800008213, 4.823663600007421, 5.173664500005543, 5.582041700006812, 5.981966300008935, 6.423663300010958, 7.057063300002483, 7.2571019000024535, 7.548996199999237]"	346.9693166999932	346.9748988999927	348.46686970000155	348.47501249999914								14	01	2024-02-07_15h12.12.677	BART_exp	2023.2.3	120.03476207327506	2024-02-07 15h12.20.654252 +0100	
balloon.png	62	0	23	23	14	348.47501249999914													348.46704560000217	348.47501249999914	348.47501249999914	348.47501249999914	348.47501249999914	348.47501249999914	0.005757900013122708	0.005757900013122708	0.005757900013122708	348.47501249999914	356.48544129999937	22	1.10	False	"[-0.013888888888888888, -0.013888888888888888, -0.013888888888888888, -0.013888888888888888, -0.013888888888888888, -0.013888888888888888, -0.013888888888888888, -0.013888888888888888, -0.013888888888888888, -0.013888888888888888, -0.013888888888888888, -0.013888888888888888, -0.013888888888888888, -0.013888888888888888, -0.013888888888888888, -0.013888888888888888, -0.013888888888888888, -0.013888888888888888, -0.013888888888888888, -0.013888888888888888, -0.013888888888888888, -0.013888888888888888, -0.013888888888888888]"	"[-0.3990740740740741, -0.3990740740740741, -0.3990740740740741, -0.3990740740740741, -0.3990740740740741, -0.3990740740740741, -0.3990740740740741, -0.3990740740740741, -0.3990740740740741, -0.3990740740740741, -0.3990740740740741, -0.3990740740740741, -0.3990740740740741, -0.3990740740740741, -0.3990740740740741, -0.3990740740740741, -0.3990740740740741, -0.3990740740740741, -0.3990740740740741, -0.3990740740740741, -0.3990740740740741, -0.3990740740740741, -0.3990740740740741]"	"[1, 1, 1, 1, 1, 1, 1, 1, 1, 1, 1, 1, 1, 1, 1, 1, 1, 1, 1, 1, 1, 1, 0]"	"[0, 0, 0, 0, 0, 0, 0, 0, 0, 0, 0, 0, 0, 0, 0, 0, 0, 0, 0, 0, 0, 0, 0]"	"[0, 0, 0, 0, 0, 0, 0, 0, 0, 0, 0, 0, 0, 0, 0, 0, 0, 0, 0, 0, 0, 0, 1]"	"[0.4837852000055136, 0.8170097999973223, 1.1255060999974376, 1.4253870000102324, 1.7256115000054706, 2.025423099999898, 2.3006135000032373, 2.5838430000003427, 2.8338134000077844, 3.085374700007378, 3.3590150000090944, 3.8088787000015145, 4.225605100000394, 4.5426847000053385, 4.934115399999428, 5.259010800000397, 5.617351000008057, 5.934209300001385, 6.234064999996917, 6.6424333000031766, 7.000768199999584, 7.58436239999719, 8.017487300006906]"	23	"[0.48192829999607056, 0.8151519999955781, 1.1236563999991631, 1.4235278999985894, 1.7237697999953525, 2.023564700008137, 2.2987629999988712, 2.5819839000032516, 2.8319554000045173, 3.083611900001415, 3.357161799998721, 3.807019300002139, 4.223745700001018, 4.540845399998943, 4.932255599997006, 5.25715130000026, 5.615494199999375, 5.932353900003363, 6.232206100001349, 6.640578500009724, 6.998915600008331, 7.582508200008306, 8.015570600007777]"	"[0.5649847000022419, 0.9234027000056813, 1.2317365000053542, 1.5400666000059573, 1.8401343000005, 2.1151058999967063, 2.423452400005772, 2.673514099995373, 2.9568254000041634, 3.231846399998176, 3.506833999999799, 3.907035900003393, 4.315270499995677, 4.648778999995557, 5.0572032000054605, 5.373685400001705, 5.748791300007724, 6.048793900001328, 6.357057900007931, 6.7820950000023, 7.1404497000039555, 7.7321424999972805, 8.015575600002194]"	356.48641230000067	356.4922205000039	357.98419030000514	358.00065560000075								14	01	2024-02-07_15h12.12.677	BART_exp	2023.2.3	120.03476207327506	2024-02-07 15h12.20.654252 +0100	
balloon.png	88	0	24	24	20	358.00065560000075													357.98436049999145	358.00065560000075	358.00065560000075	358.00065560000075	358.00065560000075	358.00065560000075	-0.0008251999970525503	-0.0008251999970525503	-0.0008251999970525503	358.00065560000075	371.5199333999917	28	1.40	False	"[-0.013888888888888888, -0.013888888888888888, -0.013888888888888888, -0.013888888888888888, -0.013888888888888888, -0.013888888888888888, -0.013888888888888888, -0.013888888888888888, -0.013888888888888888, -0.013888888888888888, -0.013888888888888888, -0.013888888888888888, -0.013888888888888888, -0.013888888888888888, -0.013888888888888888, -0.013888888888888888, -0.013888888888888888, -0.013888888888888888, -0.013888888888888888, -0.013888888888888888, -0.013888888888888888, -0.013888888888888888, -0.013888888888888888, -0.013888888888888888, -0.013888888888888888, -0.013888888888888888, -0.013888888888888888, -0.013888888888888888, -0.013888888888888888]"	"[-0.3990740740740741, -0.3990740740740741, -0.3990740740740741, -0.3990740740740741, -0.3990740740740741, -0.3990740740740741, -0.3990740740740741, -0.3990740740740741, -0.3990740740740741, -0.3990740740740741, -0.3990740740740741, -0.3990740740740741, -0.3990740740740741, -0.3990740740740741, -0.3990740740740741, -0.3990740740740741, -0.3990740740740741, -0.3990740740740741, -0.3990740740740741, -0.3990740740740741, -0.3990740740740741, -0.3990740740740741, -0.3990740740740741, -0.3990740740740741, -0.3990740740740741, -0.3990740740740741, -0.3990740740740741, -0.3990740740740741, -0.3990740740740741]"	"[1, 1, 1, 1, 1, 1, 1, 1, 1, 1, 1, 1, 1, 1, 1, 1, 1, 1, 1, 1, 1, 1, 1, 1, 1, 1, 1, 1, 0]"	"[0, 0, 0, 0, 0, 0, 0, 0, 0, 0, 0, 0, 0, 0, 0, 0, 0, 0, 0, 0, 0, 0, 0, 0, 0, 0, 0, 0, 0]"	"[0, 0, 0, 0, 0, 0, 0, 0, 0, 0, 0, 0, 0, 0, 0, 0, 0, 0, 0, 0, 0, 0, 0, 0, 0, 0, 0, 0, 1]"	"[0.34204920000047423, 0.7420459999993909, 1.0754266000003554, 1.3838883999997051, 1.6920739999914076, 2.06712520000292, 2.375602899992373, 2.92552180000348, 3.209073599995463, 3.5924567000038223, 3.90059960000508, 4.267252399993595, 5.08404889999656, 5.692385599992122, 6.292382899991935, 6.667417599994224, 7.11759290000191, 7.459189200002584, 7.851052600002731, 8.30918599999859, 8.700918999995338, 9.059257799992338, 10.100989300000947, 10.492659299998195, 11.309416799995233, 12.05115339999611, 12.834514200003468, 13.259536800003843, 13.534678099997109]"	29	"[0.3342813999915961, 0.734274499991443, 1.06765829998767, 1.3761162999871885, 1.6843009000003804, 2.0593594999954803, 2.367835400000331, 2.9177528000000166, 3.2013118999893777, 3.584686199988937, 3.8928343999868957, 4.259482800000114, 5.076278399996227, 5.6846164999878965, 6.28462259999651, 6.659648000000743, 7.109821699996246, 7.451421199992183, 7.843280999994022, 8.301417899987428, 8.693147599988151, 9.051485399992089, 10.093222600000445, 10.484894799999893, 11.301649699991685, 12.043380599992815, 12.826752599998144, 13.25176780000038, 13.526846099994145]"	"[0.4924419999879319, 0.8757955999899423, 1.2174498999956995, 1.5257940000010421, 1.8258466999977827, 2.1509205999900587, 2.5259824999957345, 3.0592794999975013, 3.3509459999913815, 3.742819499995676, 4.026159599990933, 4.426020200000494, 5.226066299990634, 5.76777759999095, 6.417816499990295, 6.809514299995499, 7.226366799994139, 7.592900499992538, 8.009603099999367, 8.451439199998276, 8.892991499989876, 9.184744399986812, 10.243084199988516, 10.643172199997935, 11.47649959998671, 12.201553299993975, 12.984927699988475, 13.409961599987582, 13.526850700000068]"	371.5210481999966	371.5265873000026	373.01855340000475	373.02672349999193								14	01	2024-02-07_15h12.12.677	BART_exp	2023.2.3	120.03476207327506	2024-02-07 15h12.20.654252 +0100	
balloon.png	71	0	25	25	16	373.02672349999193													373.0187331999914	373.02672349999193	373.02672349999193	373.02672349999193	373.02672349999193	373.02672349999193	0.005737500003306195	0.005737500003306195	0.005737500003306195	373.02672349999193	383.62065209999855	22	1.10	False	"[-0.013888888888888888, -0.013888888888888888, -0.013888888888888888, -0.013888888888888888, -0.013888888888888888, -0.013888888888888888, -0.013888888888888888, -0.013888888888888888, -0.013888888888888888, -0.013888888888888888, -0.013888888888888888, -0.013888888888888888, -0.013888888888888888, -0.013888888888888888, -0.013888888888888888, -0.013888888888888888, -0.013888888888888888, -0.013888888888888888, -0.013888888888888888, -0.013888888888888888, -0.013888888888888888, -0.013888888888888888, -0.013888888888888888]"	"[-0.3990740740740741, -0.3990740740740741, -0.3990740740740741, -0.3990740740740741, -0.3990740740740741, -0.3990740740740741, -0.3990740740740741, -0.3990740740740741, -0.3990740740740741, -0.3990740740740741, -0.3990740740740741, -0.3990740740740741, -0.3990740740740741, -0.3990740740740741, -0.3990740740740741, -0.3990740740740741, -0.3990740740740741, -0.3990740740740741, -0.3990740740740741, -0.3990740740740741, -0.3990740740740741, -0.3990740740740741, -0.3990740740740741]"	"[1, 1, 1, 1, 1, 1, 1, 1, 1, 1, 1, 1, 1, 1, 1, 1, 1, 1, 1, 1, 1, 1, 0]"	"[0, 0, 0, 0, 0, 0, 0, 0, 0, 0, 0, 0, 0, 0, 0, 0, 0, 0, 0, 0, 0, 0, 0]"	"[0, 0, 0, 0, 0, 0, 0, 0, 0, 0, 0, 0, 0, 0, 0, 0, 0, 0, 0, 0, 0, 0, 1]"	"[0.32550890000129584, 0.8086576000059722, 1.392186800003401, 1.850425600001472, 2.375605799999903, 2.9089425000129268, 3.283967700001085, 3.61718600000313, 3.9341072000097483, 4.350785400005407, 4.675599800000782, 5.250618000005488, 5.767514899998787, 6.175845300007495, 6.484176500001922, 7.109361200011335, 7.817518600000767, 8.059151800000109, 8.342669600009685, 8.676060900004813, 9.35109250000096, 10.209297800000058, 10.601009600010002]"	23	"[0.32365930000378285, 0.8068079000076978, 1.3903384000004735, 1.8485724000056507, 2.373753100007889, 2.9070921999955317, 3.2821274000016274, 3.615335499998764, 3.932255499996245, 4.348932499997318, 4.673750999994809, 5.248769400001038, 5.7656627999967895, 6.173996600002283, 6.482324399999925, 7.107512700007646, 7.81567310000537, 8.057301599998027, 8.340820199999143, 8.674224500005948, 9.3492469000048, 10.20744260000356, 10.599094400007743]"	"[0.4651229000010062, 0.981688200001372, 1.5650411999959033, 2.015061700003571, 2.5151312999951188, 3.0568490000005113, 3.415316700004041, 3.723573600000236, 4.081879100005608, 4.4902525000070455, 4.832011599995894, 5.440291300008539, 5.923773400005302, 6.332042599999113, 6.623787799995625, 7.215546699997503, 7.923802999997861, 8.173828700004378, 8.482206700005918, 8.840531399997417, 9.49905860000581, 10.365641399999731, 10.599098899998353]"	383.62163249999867	383.6274141000031	385.11941240000306	385.1358714999951								14	01	2024-02-07_15h12.12.677	BART_exp	2023.2.3	120.03476207327506	2024-02-07 15h12.20.654252 +0100	
balloon.png	97	0	26	26	22	385.1358714999951													385.1195888999937	385.1358714999951	385.1358714999951	385.1358714999951	385.1358714999951	385.1358714999951	-0.0007872999995015562	-0.0007872999995015562	-0.0007872999995015562	385.1358714999951	393.054693099999	18	0.90	False	"[-0.013888888888888888, -0.013888888888888888, -0.013888888888888888, -0.013888888888888888, -0.013888888888888888, -0.013888888888888888, -0.013888888888888888, -0.013888888888888888, -0.013888888888888888, -0.013888888888888888, -0.013888888888888888, -0.013888888888888888, -0.013888888888888888, -0.013888888888888888, -0.013888888888888888, -0.013888888888888888, -0.013888888888888888, -0.013888888888888888, -0.013888888888888888]"	"[-0.3990740740740741, -0.3990740740740741, -0.3990740740740741, -0.3990740740740741, -0.3990740740740741, -0.3990740740740741, -0.3990740740740741, -0.3990740740740741, -0.3990740740740741, -0.3990740740740741, -0.3990740740740741, -0.3990740740740741, -0.3990740740740741, -0.3990740740740741, -0.3990740740740741, -0.3990740740740741, -0.3990740740740741, -0.3990740740740741, -0.3990740740740741]"	"[1, 1, 1, 1, 1, 1, 1, 1, 1, 1, 1, 1, 1, 1, 1, 1, 1, 1, 0]"	"[0, 0, 0, 0, 0, 0, 0, 0, 0, 0, 0, 0, 0, 0, 0, 0, 0, 0, 0]"	"[0, 0, 0, 0, 0, 0, 0, 0, 0, 0, 0, 0, 0, 0, 0, 0, 0, 0, 1]"	"[1.0672112999891397, 1.4422880999918561, 1.842183099986869, 2.242228499992052, 2.667249299993273, 3.0589868999959435, 3.375583999993978, 3.658982399996603, 4.050692599994363, 4.417428299988387, 4.750555299993721, 5.100605999992695, 5.634146299998974, 6.225844599990523, 6.475863499988918, 6.7090284999867436, 6.97588509999332, 7.525743099991814, 7.934180299998843]"	19	"[1.064711900005932, 1.439784200003487, 1.839675300012459, 2.2397238000121433, 2.664745700007188, 3.056481600011466, 3.373075000010431, 3.6564756000007037, 4.04819280000811, 4.4149309000058565, 4.748047700006282, 5.098102100004326, 5.631646300011198, 6.223344900005031, 6.473367600003257, 6.706526800000574, 6.973375100002158, 7.523236700013513, 7.931610300001921]"	"[1.206000000005588, 1.5810354000132065, 1.9893914999993285, 2.364494100009324, 2.7644492000108585, 3.1394972000125563, 3.489499600007548, 3.781257100010407, 4.206215300000622, 4.5562265000044135, 4.906251500011422, 5.2479654000053415, 5.747973700010334, 6.348050300002797, 6.606384200000321, 6.856400100004976, 7.10640190000413, 7.681672900012927, 7.931614900007844]"	393.0558627999999	393.0614135999931	394.5533671000012	394.56149740000546								14	01	2024-02-07_15h12.12.677	BART_exp	2023.2.3	120.03476207327506	2024-02-07 15h12.20.654252 +0100	
balloon.png	84	0	27	27	19	394.56149740000546													394.55354409999563	394.56149740000546	394.56149740000546	394.56149740000546	394.56149740000546	394.56149740000546	0.005702099995687604	0.005702099995687604	0.005702099995687604	394.56149740000546	402.930638299993	22	1.10	False	"[-0.013888888888888888, -0.013888888888888888, -0.013888888888888888, -0.013888888888888888, -0.013888888888888888, -0.013888888888888888, -0.013888888888888888, -0.013888888888888888, -0.013888888888888888, -0.013888888888888888, -0.013888888888888888, -0.013888888888888888, -0.013888888888888888, -0.013888888888888888, -0.013888888888888888, -0.013888888888888888, -0.013888888888888888, -0.013888888888888888, -0.013888888888888888, -0.013888888888888888, -0.013888888888888888, -0.013888888888888888, -0.013888888888888888]"	"[-0.3990740740740741, -0.3990740740740741, -0.3990740740740741, -0.3990740740740741, -0.3990740740740741, -0.3990740740740741, -0.3990740740740741, -0.3990740740740741, -0.3990740740740741, -0.3990740740740741, -0.3990740740740741, -0.3990740740740741, -0.3990740740740741, -0.3990740740740741, -0.3990740740740741, -0.3990740740740741, -0.3990740740740741, -0.3990740740740741, -0.3990740740740741, -0.3990740740740741, -0.3990740740740741, -0.3990740740740741, -0.3990740740740741]"	"[1, 1, 1, 1, 1, 1, 1, 1, 1, 1, 1, 1, 1, 1, 1, 1, 1, 1, 1, 1, 1, 1, 0]"	"[0, 0, 0, 0, 0, 0, 0, 0, 0, 0, 0, 0, 0, 0, 0, 0, 0, 0, 0, 0, 0, 0, 0]"	"[0, 0, 0, 0, 0, 0, 0, 0, 0, 0, 0, 0, 0, 0, 0, 0, 0, 0, 0, 0, 0, 0, 1]"	"[0.18382890000066254, 0.45034330000635237, 0.9003287000086857, 1.1672027000022354, 1.400517200003378, 1.925560100004077, 2.2420970000093803, 2.583945300008054, 3.108908700000029, 3.5840171000018017, 3.917323600006057, 4.4672399000119185, 4.709155400007148, 4.917465700011235, 5.175803999998607, 5.684132300011697, 6.000853600009577, 6.4092049000028055, 6.87574480001058, 7.342589899999439, 7.8176203000039095, 8.04249950000667, 8.376175900004455]"	23	"[0.18179550000058953, 0.4483066999964649, 0.8982892999920296, 1.1651637999893865, 1.3984810999972979, 1.9235209000034956, 2.240053999994416, 2.5819044999952894, 3.1068697000009706, 3.581974899992929, 3.9152896000014152, 4.46519360000093, 4.707129799993709, 4.915419299999485, 5.173764099992695, 5.682091099995887, 5.998813799989875, 6.407167700002901, 6.873702999990201, 7.340548199994373, 7.815577899993514, 8.040455900001689, 8.37407119999989]"	"[0.3397870999906445, 0.5565151999908267, 1.0064816999947652, 1.2815702999942005, 1.4731785999902058, 2.0565933999896515, 2.406681299995398, 2.689941999997245, 3.248366799991345, 3.7733815999963554, 4.0816878999903565, 4.598435199994128, 4.8484972000005655, 5.048442899991642, 5.281807499995921, 5.798527499995544, 6.106833600002574, 6.52350640000077, 6.981936700001825, 7.465257499992731, 7.915274799990584, 8.148631199990632, 8.374075699990499]"	402.9316442999989	402.9370698999992	404.42903159999696	404.4372544999933								14	01	2024-02-07_15h12.12.677	BART_exp	2023.2.3	120.03476207327506	2024-02-07 15h12.20.654252 +0100	
balloon.png	5	0	28	28	1	404.4372544999933													404.42920559999766	404.4372544999933	404.4372544999933	404.4372544999933	404.4372544999933	404.4372544999933	0.005671899998560548	0.005671899998560548	0.005671899998560548	404.4372544999933	405.98081949999323	6	0.25	True	"[-0.013888888888888888, -0.013888888888888888, -0.013888888888888888, -0.013888888888888888, -0.013888888888888888, -0.013888888888888888]"	"[-0.3990740740740741, -0.3990740740740741, -0.3990740740740741, -0.3990740740740741, -0.3990740740740741, -0.3990740740740741]"	"[1, 1, 1, 1, 1, 1]"	"[0, 0, 0, 0, 0, 0]"	"[0, 0, 0, 0, 0, 0]"	"[0.23384529999748338, 0.500487899989821, 0.7503398999979254, 0.9671975999954157, 1.1921644999965793, 1.4256131000001915]"	6	"[0.23199309999472462, 0.4986406999960309, 0.7484914999949979, 0.965348300000187, 1.1903124999953434, 1.4237662999948952]"	"[0.3733271999954013, 0.6150190000043949, 0.8566901000012876, 1.0733643999992637, 1.3151842000079341, 1.5414925000077346]"	405.9814936000039	405.9872783000028	407.47924230000353	407.49574319999374								14	01	2024-02-07_15h12.12.677	BART_exp	2023.2.3	120.03476207327506	2024-02-07 15h12.20.654252 +0100	
balloon.png	101	0	29	29	23	407.49574319999374													407.47942150000017	407.49574319999374	407.49574319999374	407.49574319999374	407.49574319999374	407.49574319999374	-0.0008018000080483034	-0.0008018000080483034	-0.0008018000080483034	407.49574319999374	414.9396342999971	22	1.10	False	"[-0.013888888888888888, -0.013888888888888888, -0.013888888888888888, -0.013888888888888888, -0.013888888888888888, -0.013888888888888888, -0.013888888888888888, -0.013888888888888888, -0.013888888888888888, -0.013888888888888888, -0.013888888888888888, -0.013888888888888888, -0.013888888888888888, -0.013888888888888888, -0.013888888888888888, -0.013888888888888888, -0.013888888888888888, -0.013888888888888888, -0.013888888888888888, -0.013888888888888888, -0.013888888888888888, -0.013888888888888888, -0.013888888888888888]"	"[-0.3990740740740741, -0.3990740740740741, -0.3990740740740741, -0.3990740740740741, -0.3990740740740741, -0.3990740740740741, -0.3990740740740741, -0.3990740740740741, -0.3990740740740741, -0.3990740740740741, -0.3990740740740741, -0.3990740740740741, -0.3990740740740741, -0.3990740740740741, -0.3990740740740741, -0.3990740740740741, -0.3990740740740741, -0.3990740740740741, -0.3990740740740741, -0.3990740740740741, -0.3990740740740741, -0.3990740740740741, -0.3990740740740741]"	"[1, 1, 1, 1, 1, 1, 1, 1, 1, 1, 1, 1, 1, 1, 1, 1, 1, 1, 1, 1, 1, 1, 0]"	"[0, 0, 0, 0, 0, 0, 0, 0, 0, 0, 0, 0, 0, 0, 0, 0, 0, 0, 0, 0, 0, 0, 0]"	"[0, 0, 0, 0, 0, 0, 0, 0, 0, 0, 0, 0, 0, 0, 0, 0, 0, 0, 0, 0, 0, 0, 1]"	"[0.2671697000041604, 0.5086780999990879, 0.7503646999975899, 1.4338977000006707, 1.8756936999998288, 2.1505125999974553, 2.392285299996729, 2.6340974000049755, 2.908896499997354, 3.167228400008753, 3.392361999998684, 3.8257254000054672, 4.26741729999776, 4.667456900002435, 5.075706100004027, 5.400845299998764, 5.684029099997133, 5.909212099999422, 6.167430800007423, 6.50078940000094, 6.743760299999849, 7.19261440000264, 7.459326299998793]"	23	"[0.26449200000206474, 0.5060018000076525, 0.747692700009793, 1.4312174000078812, 1.8730155000084778, 2.1478430000133812, 2.389604900003178, 2.6314190000121016, 2.9062180000037188, 3.164552000002004, 3.3896827999997186, 3.8230422000051476, 4.264736200013431, 4.6647751000127755, 5.073037800000748, 5.398181700002169, 5.681348000012804, 5.906538300012471, 6.164752200013027, 6.498116200004006, 6.741083900007652, 7.189935000002151, 7.456583700011834]"	"[0.3976229000109015, 0.6141954000049736, 0.8559144000028027, 1.5725807000126224, 1.9643431000004057, 2.2643139000138035, 2.506000200010021, 2.764415400000871, 3.022718000007444, 3.272727000003215, 3.4893790000060108, 3.9561099000129616, 4.372778000004473, 4.831171700003324, 5.206173100013984, 5.5493420000129845, 5.781351300000097, 6.014666000002762, 6.272907200007467, 6.61459010001272, 6.856411900007515, 7.322972300011315, 7.4565883000032045]"	414.9406474999996	414.9462313999975	416.4381960000028	416.4463295000023								14	01	2024-02-07_15h12.12.677	BART_exp	2023.2.3	120.03476207327506	2024-02-07 15h12.20.654252 +0100	
																																														416.43823169999814	416.4463295000023	416.4463295000023	429.72270669999125	space	13.272549699991941	None	14	01	2024-02-07_15h12.12.677	BART_exp	2023.2.3	120.03476207327506	2024-02-07 15h12.20.654252 +0100	
