diceImage	d_number	dice_loop.thisRepN	dice_loop.thisTrialN	dice_loop.thisN	dice_loop.thisIndex	thisRow.t	notes	Start.started	text_start.started	continue_start.started	mouse_start.started	Start.stopped	mouse_start.x	mouse_start.y	mouse_start.leftButton	mouse_start.midButton	mouse_start.rightButton	mouse_start.time	trial.started	box_dice.started	text_dice_header.started	text_gain.started	value_gain.started	text_bank.started	value_bank.started	img_dice_1.started	img_dice_2.started	img_dice_3.started	img_dice_4.started	img_dice_5.started	img_dice_6.started	img_dice_1_2.started	img_dice_3_4.started	img_dice_5_6.started	img_dice_1_2_3.started	img_dice_4_5_6.started	img_dice_1_2_3_4.started	img_dice_2_3_4_5.started	img_dice_3_4_5_6.started	text_value_header.started	text_value_1000.started	text_value_500.started	text_value_200.started	text_value_100.started	mouse_task.started	loss_sound.started	img_dice_throw_trials.started	img_dice_throw_trials.stopped	trial.stopped	mouse_task.x	mouse_task.y	mouse_task.leftButton	mouse_task.midButton	mouse_task.rightButton	mouse_task.time	choice	gain	gain_sound.started	gain_sound.stopped	End.started	text_end.started	key_end.started	End.stopped	key_end.keys	key_end.rt	key_end.duration	participant	session	date	expName	psychopyVersion	frameRate	expStart	
								0.039405499992426485	0.05153519999294076	0.05153519999294076	0.03975570001057349	20.553924599997117	[0.7055555555555556]	[-0.4148148148148148]	[1]	[0]	[0]	[20.51332640000328]																																																	29	03	2024-02-19_16h04.16.123	GDT_exp	2023.2.3	119.9413247109665	2024-02-19 16h04.32.530377 +0100	
dice_6.png	6	0	0	0	5	20.636200499997358													20.55880129999423	20.636200499997358	20.636200499997358	20.636200499997358	20.636200499997358	20.636200499997358	20.636200499997358	20.636200499997358	20.636200499997358	20.636200499997358	20.636200499997358	20.636200499997358	20.636200499997358	20.636200499997358	20.636200499997358	20.636200499997358	20.636200499997358	20.636200499997358	20.636200499997358	20.636200499997358	20.636200499997358	20.636200499997358	20.636200499997358	20.636200499997358	20.636200499997358	20.636200499997358	0.022852900001453236	6.457652999990387	27.07830069999909	28.628412099991692	28.58082899999863	"[-0.4398148148148148, -0.09537037037037037]"	"[-0.25, -0.03611111111111111]"	"[1, 0]"	"[0, 0]"	"[0, 1]"	"[5.445446199999424, 6.4037687000090955]"	3	-200										29	03	2024-02-19_16h04.16.123	GDT_exp	2023.2.3	119.9413247109665	2024-02-19 16h04.32.530377 +0100	
dice_4.png	4	0	1	1	3	28.628412099991692													28.581617299991194	28.628412099991692	28.628412099991692	28.628412099991692	28.628412099991692	28.628412099991692	28.628412099991692	28.628412099991692	28.628412099991692	28.628412099991692	28.628412099991692	28.628412099991692	28.628412099991692	28.628412099991692	28.628412099991692	28.628412099991692	28.628412099991692	28.628412099991692	28.628412099991692	28.628412099991692	28.628412099991692	28.628412099991692	28.628412099991692	28.628412099991692	28.628412099991692	28.628412099991692	0.017485800010035746		31.853767099994002	33.42872609999904	33.38126270000066	"[-0.20185185185185187, -0.25]"	"[-0.3287037037037037, -0.24074074074074073]"	"[1, 0]"	"[0, 0]"	"[0, 1]"	"[2.104480300011346, 3.179628000012599]"	4	100	3.1971658999973442	4.730624200004968								29	03	2024-02-19_16h04.16.123	GDT_exp	2023.2.3	119.9413247109665	2024-02-19 16h04.32.530377 +0100	
dice_1.png	1	0	2	2	0	33.42872609999904													33.38178759999573	33.42872609999904	33.42872609999904	33.42872609999904	33.42872609999904	33.42872609999904	33.42872609999904	33.42872609999904	33.42872609999904	33.42872609999904	33.42872609999904	33.42872609999904	33.42872609999904	33.42872609999904	33.42872609999904	33.42872609999904	33.42872609999904	33.42872609999904	33.42872609999904	33.42872609999904	33.42872609999904	33.42872609999904	33.42872609999904	33.42872609999904	33.42872609999904	33.42872609999904	0.017929599998751655	1.5638578999933088	35.01229719999537	36.570628799992846	36.53149159999157	"[0.14629629629629629, 0.049074074074074076]"	"[-0.3490740740740741, -0.20555555555555555]"	"[1, 0]"	"[0, 0]"	"[0, 1]"	"[0.5874580000090646, 1.5458359000040218]"	4	-100										29	03	2024-02-19_16h04.16.123	GDT_exp	2023.2.3	119.9413247109665	2024-02-19 16h04.32.530377 +0100	
dice_5.png	5	0	3	3	4	36.570628799992846													36.53202269999019	36.570628799992846	36.570628799992846	36.570628799992846	36.570628799992846	36.570628799992846	36.570628799992846	36.570628799992846	36.570628799992846	36.570628799992846	36.570628799992846	36.570628799992846	36.570628799992846	36.570628799992846	36.570628799992846	36.570628799992846	36.570628799992846	36.570628799992846	36.570628799992846	36.570628799992846	36.570628799992846	36.570628799992846	36.570628799992846	36.570628799992846	36.570628799992846	36.570628799992846	0.014670499993371777	1.9221815999917453	38.529086700000335	40.09597899999062	40.04814709999482	"[-0.5796296296296296, -0.4203703703703704]"	"[-0.3453703703703704, -0.3148148148148148]"	"[1, 0]"	"[0, 0]"	"[0, 1]"	"[1.0989777999930084, 1.9072864000045229]"	4	-100										29	03	2024-02-19_16h04.16.123	GDT_exp	2023.2.3	119.9413247109665	2024-02-19 16h04.32.530377 +0100	
dice_2.png	2	0	4	4	1	40.09597899999062													40.048669099996914	40.09597899999062	40.09597899999062	40.09597899999062	40.09597899999062	40.09597899999062	40.09597899999062	40.09597899999062	40.09597899999062	40.09597899999062	40.09597899999062	40.09597899999062	40.09597899999062	40.09597899999062	40.09597899999062	40.09597899999062	40.09597899999062	40.09597899999062	40.09597899999062	40.09597899999062	40.09597899999062	40.09597899999062	40.09597899999062	40.09597899999062	40.09597899999062	40.09597899999062	0.017477000001235865		42.24601399998937	43.812897799987695	43.77346060000127	"[-0.29444444444444445, -0.29259259259259257]"	"[-0.32685185185185184, -0.2175925925925926]"	"[1, 0]"	"[0, 0]"	"[0, 1]"	"[0.8380701999994926, 2.1130262999940896]"	4	100	2.130817700002808	3.6559516999986954								29	03	2024-02-19_16h04.16.123	GDT_exp	2023.2.3	119.9413247109665	2024-02-19 16h04.32.530377 +0100	
dice_3.png	3	0	5	5	2	43.812897799987695													43.77403489999415	43.812897799987695	43.812897799987695	43.812897799987695	43.812897799987695	43.812897799987695	43.812897799987695	43.812897799987695	43.812897799987695	43.812897799987695	43.812897799987695	43.812897799987695	43.812897799987695	43.812897799987695	43.812897799987695	43.812897799987695	43.812897799987695	43.812897799987695	43.812897799987695	43.812897799987695	43.812897799987695	43.812897799987695	43.812897799987695	43.812897799987695	43.812897799987695	43.812897799987695	0.01450430000841152	3.38910840000608	47.229813999991165	48.796471499998006	48.757056199989165	"[-0.37962962962962965, -0.08333333333333333, -0.22592592592592592]"	"[-0.24074074074074073, -0.26296296296296295, -0.21388888888888888]"	"[1, 1, 0]"	"[0, 0, 0]"	"[0, 0, 1]"	"[1.3160805999941658, 2.6576666999899317, 3.3745278999995207]"	3	-200										29	03	2024-02-19_16h04.16.123	GDT_exp	2023.2.3	119.9413247109665	2024-02-19 16h04.32.530377 +0100	
dice_5.png	5	1	0	6	4	48.796471499998006													48.75764369999524	48.796471499998006	48.796471499998006	48.796471499998006	48.796471499998006	48.796471499998006	48.796471499998006	48.796471499998006	48.796471499998006	48.796471499998006	48.796471499998006	48.796471499998006	48.796471499998006	48.796471499998006	48.796471499998006	48.796471499998006	48.796471499998006	48.796471499998006	48.796471499998006	48.796471499998006	48.796471499998006	48.796471499998006	48.796471499998006	48.796471499998006	48.796471499998006	48.796471499998006	0.017395599992596544		51.65488339999865	53.2134156999964	53.174362999998266	"[-0.25833333333333336, -0.26481481481481484]"	"[-0.3314814814814815, -0.2490740740740741]"	"[1, 0]"	"[0, 0]"	"[0, 1]"	"[1.9214575000078185, 2.813149000008707]"	4	100	2.8307934000040404	4.355942499998491								29	03	2024-02-19_16h04.16.123	GDT_exp	2023.2.3	119.9413247109665	2024-02-19 16h04.32.530377 +0100	
dice_1.png	1	1	1	7	0	53.2134156999964													53.174940299999435	53.2134156999964	53.2134156999964	53.2134156999964	53.2134156999964	53.2134156999964	53.2134156999964	53.2134156999964	53.2134156999964	53.2134156999964	53.2134156999964	53.2134156999964	53.2134156999964	53.2134156999964	53.2134156999964	53.2134156999964	53.2134156999964	53.2134156999964	53.2134156999964	53.2134156999964	53.2134156999964	53.2134156999964	53.2134156999964	53.2134156999964	53.2134156999964	53.2134156999964	0.014529600011883304	4.688929400013876	57.93038419999357	59.48068179999245	59.43277839999064	"[-0.032407407407407406, -0.04814814814814815]"	"[-0.23425925925925925, -0.175]"	"[1, 0]"	"[0, 0]"	"[0, 1]"	"[3.7991901000059443, 4.674288200010778]"	3	-200										29	03	2024-02-19_16h04.16.123	GDT_exp	2023.2.3	119.9413247109665	2024-02-19 16h04.32.530377 +0100	
dice_2.png	2	1	2	8	1	59.48068179999245													59.4333617999946	59.48068179999245	59.48068179999245	59.48068179999245	59.48068179999245	59.48068179999245	59.48068179999245	59.48068179999245	59.48068179999245	59.48068179999245	59.48068179999245	59.48068179999245	59.48068179999245	59.48068179999245	59.48068179999245	59.48068179999245	59.48068179999245	59.48068179999245	59.48068179999245	59.48068179999245	59.48068179999245	59.48068179999245	59.48068179999245	59.48068179999245	59.48068179999245	59.48068179999245	0.0176694999972824	3.8392790000070818	63.34744199999841	64.89767589999246	64.85012959998858	"[-0.12777777777777777, -0.1175925925925926]"	"[-0.2324074074074074, -0.12777777777777777]"	"[1, 0]"	"[0, 0]"	"[0, 1]"	"[2.029633600002853, 3.8213914000079967]"	3	-200										29	03	2024-02-19_16h04.16.123	GDT_exp	2023.2.3	119.9413247109665	2024-02-19 16h04.32.530377 +0100	
dice_4.png	4	1	3	9	3	64.89767589999246													64.85070589999668	64.89767589999246	64.89767589999246	64.89767589999246	64.89767589999246	64.89767589999246	64.89767589999246	64.89767589999246	64.89767589999246	64.89767589999246	64.89767589999246	64.89767589999246	64.89767589999246	64.89767589999246	64.89767589999246	64.89767589999246	64.89767589999246	64.89767589999246	64.89767589999246	64.89767589999246	64.89767589999246	64.89767589999246	64.89767589999246	64.89767589999246	64.89767589999246	64.89767589999246	0.01753340000868775		67.18100289998983	68.74778469999728	68.70039259998885	"[-0.549074074074074, -0.5879629629629629]"	"[-0.3296296296296296, -0.24351851851851852]"	"[1, 0]"	"[0, 0]"	"[0, 1]"	"[1.2961886999983108, 2.2461804000049597]"	4	100	2.263789100004942	3.788923400003114								29	03	2024-02-19_16h04.16.123	GDT_exp	2023.2.3	119.9413247109665	2024-02-19 16h04.32.530377 +0100	
dice_6.png	6	1	4	10	5	68.74778469999728													68.70091939999838	68.74778469999728	68.74778469999728	68.74778469999728	68.74778469999728	68.74778469999728	68.74778469999728	68.74778469999728	68.74778469999728	68.74778469999728	68.74778469999728	68.74778469999728	68.74778469999728	68.74778469999728	68.74778469999728	68.74778469999728	68.74778469999728	68.74778469999728	68.74778469999728	68.74778469999728	68.74778469999728	68.74778469999728	68.74778469999728	68.74778469999728	68.74778469999728	68.74778469999728	0.017890300005092286	4.580636200000299	73.34822449999047	74.92334689998825	74.87572830000136	"[-0.41203703703703703, -0.24537037037037038]"	"[-0.25833333333333336, -0.23425925925925925]"	"[1, 0]"	"[0, 0]"	"[0, 1]"	"[3.5044742000027327, 4.562501299995347]"	3	-200										29	03	2024-02-19_16h04.16.123	GDT_exp	2023.2.3	119.9413247109665	2024-02-19 16h04.32.530377 +0100	
dice_3.png	3	1	5	11	2	74.92334689998825													74.87628109999059	74.92334689998825	74.92334689998825	74.92334689998825	74.92334689998825	74.92334689998825	74.92334689998825	74.92334689998825	74.92334689998825	74.92334689998825	74.92334689998825	74.92334689998825	74.92334689998825	74.92334689998825	74.92334689998825	74.92334689998825	74.92334689998825	74.92334689998825	74.92334689998825	74.92334689998825	74.92334689998825	74.92334689998825	74.92334689998825	74.92334689998825	74.92334689998825	74.92334689998825	0.017661699996097013		79.98201999999583	81.54044709999289	81.50089669998852	"[0.01574074074074074, -0.3055555555555556]"	"[-0.33240740740740743, -0.2064814814814815]"	"[1, 0]"	"[0, 0]"	"[0, 1]"	"[3.321262299999944, 5.012706599998637]"	4	100	5.030719599992153	6.530876199991326								29	03	2024-02-19_16h04.16.123	GDT_exp	2023.2.3	119.9413247109665	2024-02-19 16h04.32.530377 +0100	
dice_6.png	6	2	0	12	5	81.54044709999289													81.50145959999645	81.54044709999289	81.54044709999289	81.54044709999289	81.54044709999289	81.54044709999289	81.54044709999289	81.54044709999289	81.54044709999289	81.54044709999289	81.54044709999289	81.54044709999289	81.54044709999289	81.54044709999289	81.54044709999289	81.54044709999289	81.54044709999289	81.54044709999289	81.54044709999289	81.54044709999289	81.54044709999289	81.54044709999289	81.54044709999289	81.54044709999289	81.54044709999289	81.54044709999289	0.014538100003846921	4.12262880000344	85.69059549999656	87.25736199998937	87.21794039999077	"[-0.6037037037037037, -0.42407407407407405]"	"[-0.1537037037037037, -0.1675925925925926]"	"[1, 0]"	"[0, 0]"	"[0, 1]"	"[2.6831154999963474, 4.107858799994574]"	2	-500										29	03	2024-02-19_16h04.16.123	GDT_exp	2023.2.3	119.9413247109665	2024-02-19 16h04.32.530377 +0100	
dice_4.png	4	2	1	13	3	87.25736199998937													87.2184605999937	87.25736199998937	87.25736199998937	87.25736199998937	87.25736199998937	87.25736199998937	87.25736199998937	87.25736199998937	87.25736199998937	87.25736199998937	87.25736199998937	87.25736199998937	87.25736199998937	87.25736199998937	87.25736199998937	87.25736199998937	87.25736199998937	87.25736199998937	87.25736199998937	87.25736199998937	87.25736199998937	87.25736199998937	87.25736199998937	87.25736199998937	87.25736199998937	87.25736199998937	0.01605849999759812		91.52432129999215	93.09122989999014	93.05169409999507	"[-0.5444444444444444, -0.4027777777777778]"	"[-0.3296296296296296, -0.1537037037037037]"	"[1, 0]"	"[0, 0]"	"[0, 1]"	"[3.0147143000067445, 4.223238700011279]"	4	100	4.239342700006091	5.739472500004922								29	03	2024-02-19_16h04.16.123	GDT_exp	2023.2.3	119.9413247109665	2024-02-19 16h04.32.530377 +0100	
dice_1.png	1	2	2	14	0	93.09122989999014													93.05221429999801	93.09122989999014	93.09122989999014	93.09122989999014	93.09122989999014	93.09122989999014	93.09122989999014	93.09122989999014	93.09122989999014	93.09122989999014	93.09122989999014	93.09122989999014	93.09122989999014	93.09122989999014	93.09122989999014	93.09122989999014	93.09122989999014	93.09122989999014	93.09122989999014	93.09122989999014	93.09122989999014	93.09122989999014	93.09122989999014	93.09122989999014	93.09122989999014	93.09122989999014	0.014486000000033528	4.522673100000247	97.65820099999837	99.1998392999958	99.16043449999415	"[-0.06018518518518518, -0.11203703703703703]"	"[-0.262037037037037, -0.13055555555555556]"	"[1, 0]"	"[0, 0]"	"[0, 1]"	"[2.816378999996232, 4.508049600000959]"	3	-200										29	03	2024-02-19_16h04.16.123	GDT_exp	2023.2.3	119.9413247109665	2024-02-19 16h04.32.530377 +0100	
dice_2.png	2	2	3	15	1	99.1998392999958													99.16100310000184	99.1998392999958	99.1998392999958	99.1998392999958	99.1998392999958	99.1998392999958	99.1998392999958	99.1998392999958	99.1998392999958	99.1998392999958	99.1998392999958	99.1998392999958	99.1998392999958	99.1998392999958	99.1998392999958	99.1998392999958	99.1998392999958	99.1998392999958	99.1998392999958	99.1998392999958	99.1998392999958	99.1998392999958	99.1998392999958	99.1998392999958	99.1998392999958	99.1998392999958	0.014472100010607392	4.547625000006519	103.78348739999637	105.34202889999142	105.3027749999892	"[0.022222222222222223, -0.09074074074074075]"	"[-0.33796296296296297, -0.10277777777777777]"	"[1, 0]"	"[0, 0]"	"[0, 1]"	"[3.166254800002207, 4.532919100005529]"	4	-100										29	03	2024-02-19_16h04.16.123	GDT_exp	2023.2.3	119.9413247109665	2024-02-19 16h04.32.530377 +0100	
dice_3.png	3	2	4	16	2	105.34202889999142													105.30335069999273	105.34202889999142	105.34202889999142	105.34202889999142	105.34202889999142	105.34202889999142	105.34202889999142	105.34202889999142	105.34202889999142	105.34202889999142	105.34202889999142	105.34202889999142	105.34202889999142	105.34202889999142	105.34202889999142	105.34202889999142	105.34202889999142	105.34202889999142	105.34202889999142	105.34202889999142	105.34202889999142	105.34202889999142	105.34202889999142	105.34202889999142	105.34202889999142	105.34202889999142	0.014678499996080063		108.83388419999392	110.40072859999782	110.36142809999001	"[-0.20092592592592592, -0.25833333333333336]"	"[-0.3351851851851852, -0.225]"	"[1, 0]"	"[0, 0]"	"[0, 1]"	"[2.265746199991554, 3.4494626999949105]"	4	100	3.4639756999968085	4.964106599989464								29	03	2024-02-19_16h04.16.123	GDT_exp	2023.2.3	119.9413247109665	2024-02-19 16h04.32.530377 +0100	
dice_5.png	5	2	5	17	4	110.40072859999782													110.36200069999904	110.40072859999782	110.40072859999782	110.40072859999782	110.40072859999782	110.40072859999782	110.40072859999782	110.40072859999782	110.40072859999782	110.40072859999782	110.40072859999782	110.40072859999782	110.40072859999782	110.40072859999782	110.40072859999782	110.40072859999782	110.40072859999782	110.40072859999782	110.40072859999782	110.40072859999782	110.40072859999782	110.40072859999782	110.40072859999782	110.40072859999782	110.40072859999782	110.40072859999782	0.014411000011023134	5.155831000010949	115.58429009999963	117.10940000000119	117.09558749999269	"[-0.4185185185185185, -0.43425925925925923]"	"[-0.22777777777777777, -0.09537037037037037]"	"[1, 0]"	"[0, 0]"	"[0, 1]"	"[3.8660021999967285, 5.14117499999702]"	3	-200										29	03	2024-02-19_16h04.16.123	GDT_exp	2023.2.3	119.9413247109665	2024-02-19 16h04.32.530377 +0100	
																																																												117.09606050000002	117.10940000000119	117.10940000000119	126.65231469999708	space	9.539068600002793	None	29	03	2024-02-19_16h04.16.123	GDT_exp	2023.2.3	119.9413247109665	2024-02-19 16h04.32.530377 +0100	
