image	max_pumps	pump_loop.thisRepN	pump_loop.thisTrialN	pump_loop.thisN	pump_loop.thisIndex	thisRow.t	notes	Start.started	text_start.started	continue_start.started	mouse_start.started	Start.stopped	mouse_start.x	mouse_start.y	mouse_start.leftButton	mouse_start.midButton	mouse_start.rightButton	mouse_start.time	trials.started	stim_balloon.started	stim_balloon_burst.started	stim_balloon_burst.stopped	text_ballon_value.started	text_bank.started	mouse.started	sound_bang.started	sound_bang.stopped	button_balloon.started	trials.stopped	n_pumps	earnings	popped	mouse.x	mouse.y	mouse.leftButton	mouse.midButton	mouse.rightButton	mouse.time	button_balloon.numClicks	button_balloon.timesOn	button_balloon.timesOff	Feedback.started	text_feedback.started	Feedback.stopped	text_feedback.stopped	End.started	text_end.started	key_end.started	End.stopped	key_end.keys	key_end.rt	key_end.duration	participant	session	date	expName	psychopyVersion	frameRate	expStart	
								0.03823409997858107	0.04427940002642572	0.04427940002642572	0.03857169998809695	38.08097889996134	[0.725925925925926]	[-0.38796296296296295]	[1]	[0]	[0]	[38.04183040000498]																																			26	01	2024-02-16_15h07.41.012	BART_exp	2023.2.3	119.97787613465455	2024-02-16 15h07.49.916421 +0100	
balloon.png	84	0	0	0	19	38.14706820005085													38.08860639994964	38.14706820005085	38.14706820005085	38.14706820005085	38.14706820005085	38.14706820005085	0.009340799995698035	0.009340799995698035	0.009340799995698035	38.14706820005085	46.307668299996294	15	0.75	False	"[0.10462962962962963, 0.10462962962962963, 0.10462962962962963, 0.10462962962962963, 0.10462962962962963, 0.1037037037037037, 0.1037037037037037, 0.1037037037037037, 0.1037037037037037, 0.1037037037037037, 0.1037037037037037, 0.1037037037037037, 0.1037037037037037, 0.1037037037037037, 0.1037037037037037, 0.1037037037037037]"	"[-0.4, -0.4, -0.4, -0.4, -0.4, -0.39814814814814814, -0.39814814814814814, -0.39814814814814814, -0.39814814814814814, -0.39814814814814814, -0.39814814814814814, -0.39814814814814814, -0.39814814814814814, -0.39537037037037037, -0.39537037037037037, -0.39537037037037037]"	"[1, 1, 1, 1, 1, 1, 1, 1, 1, 1, 1, 1, 1, 1, 1, 0]"	"[0, 0, 0, 0, 0, 0, 0, 0, 0, 0, 0, 0, 0, 0, 0, 0]"	"[0, 0, 0, 0, 0, 0, 0, 0, 0, 0, 0, 0, 0, 0, 0, 1]"	"[1.2342109000310302, 1.7258708999725059, 2.3179317000322044, 2.8094265999970958, 3.26767720002681, 3.7846255999756977, 4.009503999957815, 4.217878499999642, 4.517839699983597, 4.817939399974421, 5.117738700006157, 5.459460300044157, 5.776292799971998, 6.676210599951446, 7.652710699941963, 8.218138800002635]"	16	"[1.1860147999832407, 1.6776562000159174, 2.269727800041437, 2.7612132999347523, 3.219469800009392, 3.73641370004043, 3.9612888999981806, 4.169664300046861, 4.469631399959326, 4.7697261000284925, 5.069555399939418, 5.411251200013794, 5.728083399939351, 6.627997900010087, 7.604685300029814, 8.169865899952129]"	"[1.2777866999385878, 1.7691804999485612, 2.377556800027378, 2.869224700029008, 3.3276014999719337, 3.8444906999357045, 4.069388799951412, 4.277687599998899, 4.586026899982244, 4.869374500005506, 5.177757899975404, 5.527893899939954, 5.861135600018315, 6.769504699972458, 7.736266299965791, 8.16987009998411]"	46.30900869995821	46.32253070001025	47.81443579995539									26	01	2024-02-16_15h07.41.012	BART_exp	2023.2.3	119.97787613465455	2024-02-16 15h07.49.916421 +0100	
balloon.png	5	0	1	1	1	47.831068599945866													47.814621299970895	47.831068599945866	47.831068599945866	47.831068599945866	47.831068599945866	47.831068599945866	0.006934199947863817	0.006934199947863817	0.006934199947863817	47.831068599945866	51.2083967999788	6	0.25	True	"[0.11388888888888889, 0.11388888888888889, 0.11388888888888889, 0.11388888888888889, 0.11388888888888889, 0.11388888888888889]"	"[-0.3888888888888889, -0.3888888888888889, -0.3888888888888889, -0.3888888888888889, -0.3888888888888889, -0.3888888888888889]"	"[1, 1, 1, 1, 1, 1]"	"[0, 0, 0, 0, 0, 0]"	"[0, 0, 0, 0, 0, 0]"	"[0.950487699941732, 1.734048999962397, 2.167210499988869, 2.4840947999618948, 2.942408200004138, 3.284161699935794]"	6	"[0.9477817000588402, 1.731342500075698, 2.164500000071712, 2.4813876000698656, 2.939701299997978, 3.2814582000719383]"	"[1.0559969000751153, 1.8408323000185192, 2.2477189999772236, 2.556155900005251, 3.022760200081393, 3.3811583999777213]"	51.20902930002194	51.22298339998815	52.71482999995351									26	01	2024-02-16_15h07.41.012	BART_exp	2023.2.3	119.97787613465455	2024-02-16 15h07.49.916421 +0100	
balloon.png	71	0	2	2	16	52.72305869997945													52.71501299994998	52.72305869997945	52.72305869997945	52.72305869997945	52.72305869997945	52.72305869997945	0.007217200007289648	0.007217200007289648	0.007217200007289648	52.72305869997945	58.541763499961235	9	0.45	False	"[0.09814814814814815, 0.09814814814814815, 0.09814814814814815, 0.09814814814814815, 0.09814814814814815, 0.09814814814814815, 0.09814814814814815, 0.09814814814814815, 0.09814814814814815, 0.09814814814814815]"	"[-0.39351851851851855, -0.39351851851851855, -0.39351851851851855, -0.39351851851851855, -0.39351851851851855, -0.39351851851851855, -0.39351851851851855, -0.39351851851851855, -0.39351851851851855, -0.39351851851851855]"	"[1, 1, 1, 1, 1, 1, 1, 1, 1, 0]"	"[0, 0, 0, 0, 0, 0, 0, 0, 0, 0]"	"[0, 0, 0, 0, 0, 0, 0, 0, 0, 1]"	"[0.717321899952367, 1.1837851000018418, 1.5339768000412732, 2.033869400038384, 2.458885099971667, 2.9592025000602007, 3.485539900022559, 4.13414920005016, 4.975768800009973, 5.82584169995971]"	10	"[0.7153208000818267, 1.1817908000666648, 1.5319726000307128, 2.0318616000004113, 2.456875800038688, 2.9571959000313655, 3.4836938000516966, 4.132147200056352, 4.9737622999819, 5.82377080002334]"	"[0.8315957000013441, 1.306625899975188, 1.6483385000610724, 2.1567322000628337, 2.573471700074151, 3.0734320000046864, 3.6151423000264913, 4.273552200058475, 5.081914099981077, 5.8237752000568435]"	58.542473100009374	58.54847999999765	60.04045630001929	60.056907000020146								26	01	2024-02-16_15h07.41.012	BART_exp	2023.2.3	119.97787613465455	2024-02-16 15h07.49.916421 +0100	
balloon.png	123	0	3	3	28	60.056907000020146													60.040641400031745	60.056907000020146	60.056907000020146	60.056907000020146	60.056907000020146	60.056907000020146	-0.00060889997985214	-0.00060889997985214	-0.00060889997985214	60.056907000020146	68.31746249995194	18	0.90	False	"[0.04722222222222222, 0.04722222222222222, 0.04722222222222222, 0.04722222222222222, 0.04722222222222222, 0.04722222222222222, 0.04722222222222222, 0.04722222222222222, 0.04722222222222222, 0.04722222222222222, 0.04722222222222222, 0.04722222222222222, 0.04722222222222222, 0.04722222222222222, 0.04722222222222222, 0.04722222222222222, 0.04722222222222222, 0.04722222222222222, 0.04722222222222222]"	"[-0.38425925925925924, -0.38425925925925924, -0.38425925925925924, -0.38425925925925924, -0.38425925925925924, -0.38425925925925924, -0.38425925925925924, -0.38425925925925924, -0.38425925925925924, -0.38425925925925924, -0.38425925925925924, -0.38425925925925924, -0.38425925925925924, -0.38425925925925924, -0.38425925925925924, -0.38425925925925924, -0.38425925925925924, -0.38425925925925924, -0.38425925925925924]"	"[1, 1, 1, 1, 1, 1, 1, 1, 1, 1, 1, 1, 1, 1, 1, 1, 1, 1, 0]"	"[0, 0, 0, 0, 0, 0, 0, 0, 0, 0, 0, 0, 0, 0, 0, 0, 0, 0, 0]"	"[0, 0, 0, 0, 0, 0, 0, 0, 0, 0, 0, 0, 0, 0, 0, 0, 0, 0, 1]"	"[1.2753312999848276, 1.6338622000766918, 1.875551600009203, 2.0753797000506893, 2.283737999969162, 2.4837495000101626, 2.708772800047882, 2.9004385999869555, 3.1338412000332028, 4.184072999982163, 4.42571510002017, 4.634079499985091, 4.825918300077319, 5.009187399991788, 6.459023199975491, 6.717373999999836, 6.9510006000055, 7.709204200073145, 8.275799700058997]"	19	"[1.2693067999789491, 1.627826499985531, 1.8695378999691457, 2.069341200054623, 2.2777015999890864, 2.477711800020188, 2.702737299958244, 2.894407100044191, 3.1278065000660717, 4.178044600063004, 4.419678100035526, 4.628043100005016, 4.8199488000245765, 5.003162299981341, 6.4529866999946535, 6.711337900022045, 6.944970799959265, 7.703171300003305, 8.269699800061062]"	"[1.3941779000451788, 1.735836899955757, 1.9525828000623733, 2.160862599965185, 2.352551299962215, 2.5692445000167936, 2.7609228000510484, 2.9942650999873877, 3.185940399998799, 4.311069600051269, 4.519370299996808, 4.702752799959853, 4.877770300023258, 5.069489300018176, 6.552843400044367, 6.827883000019938, 6.994554799981415, 7.811419200035743, 8.26970419997815]"	68.31835259997752	68.32418770005461	69.81612720002886	69.83259650005493								26	01	2024-02-16_15h07.41.012	BART_exp	2023.2.3	119.97787613465455	2024-02-16 15h07.49.916421 +0100	
balloon.png	36	0	4	4	8	69.83259650005493													69.8163087000139	69.83259650005493	69.83259650005493	69.83259650005493	69.83259650005493	69.83259650005493	-0.0008203999605029821	-0.0008203999605029821	-0.0008203999605029821	69.83259650005493	81.21842459996697	22	1.10	False	"[0.03888888888888889, 0.03888888888888889, 0.03888888888888889, 0.03888888888888889, 0.03888888888888889, 0.03888888888888889, 0.03888888888888889, 0.03888888888888889, 0.03888888888888889, 0.03888888888888889, 0.03888888888888889, 0.03888888888888889, 0.041666666666666664, 0.041666666666666664, 0.041666666666666664, 0.041666666666666664, 0.041666666666666664, 0.041666666666666664, 0.041666666666666664, 0.041666666666666664, 0.041666666666666664, 0.041666666666666664, 0.04259259259259259]"	"[-0.4083333333333333, -0.4083333333333333, -0.4083333333333333, -0.4083333333333333, -0.4083333333333333, -0.4083333333333333, -0.4083333333333333, -0.4083333333333333, -0.4083333333333333, -0.4083333333333333, -0.4083333333333333, -0.4083333333333333, -0.4046296296296296, -0.4046296296296296, -0.4046296296296296, -0.4046296296296296, -0.4046296296296296, -0.4046296296296296, -0.4046296296296296, -0.4046296296296296, -0.4046296296296296, -0.40370370370370373, -0.4027777777777778]"	"[1, 1, 1, 1, 1, 1, 1, 1, 1, 1, 1, 1, 1, 1, 1, 1, 1, 1, 1, 1, 1, 1, 0]"	"[0, 0, 0, 0, 0, 0, 0, 0, 0, 0, 0, 0, 0, 0, 0, 0, 0, 0, 0, 0, 0, 0, 0]"	"[0, 0, 0, 0, 0, 0, 0, 0, 0, 0, 0, 0, 0, 0, 0, 0, 0, 0, 0, 0, 0, 0, 1]"	"[0.975586700020358, 1.275519200018607, 1.48376900004223, 1.6753704000730067, 1.8670711000449955, 2.042207600083202, 2.2339572000782937, 2.4089211000828072, 2.5840493000578135, 3.7673294000560418, 4.200749900075607, 4.375792400096543, 6.100708400015719, 6.342384900082834, 6.592553500086069, 6.867402800009586, 7.700808200053871, 8.09249730000738, 8.684313400066458, 9.309242899995297, 9.859326900099404, 10.92609620001167, 11.401194600039162]"	23	"[0.9651243999833241, 1.2650677999481559, 1.473305999999866, 1.6649163999827579, 1.8566042999736965, 2.031744199921377, 2.223495899932459, 2.398455399903469, 2.5735878999112174, 3.7568652000045404, 4.190289899939671, 4.365328699932434, 6.0902429999550804, 6.3319171000039205, 6.582087699905969, 6.856948599917814, 7.690346899908036, 8.082029999932274, 8.673850699909963, 9.298773799906485, 9.848865099949762, 10.915636699995957, 11.390665499959141]"	"[1.1147078999783844, 1.3563976999139413, 1.5565340999746695, 1.7314287999179214, 1.923146199900657, 2.1148091999348253, 2.289806199958548, 2.498148399987258, 2.6982267999555916, 3.8150215999921784, 4.298273999942467, 4.481618299963884, 6.198416799888946, 6.440091499942355, 6.72354259993881, 6.948537399992347, 7.790363199892454, 8.173596299951896, 8.806981100002304, 9.415391799993813, 9.973681699950248, 11.090600099996664, 11.390669699991122]"	81.21943840000313	81.22506520000752	82.71702009998262	82.72519739996642								26	01	2024-02-16_15h07.41.012	BART_exp	2023.2.3	119.97787613465455	2024-02-16 15h07.49.916421 +0100	
balloon.png	118	0	5	5	27	82.72519739996642													82.71719510003459	82.72519739996642	82.72519739996642	82.72519739996642	82.72519739996642	82.72519739996642	0.0058231999864801764	0.0058231999864801764	0.0058231999864801764	82.72519739996642	95.26924149994738	37	1.85	False	"[0.06944444444444445, 0.06944444444444445, 0.06944444444444445, 0.06944444444444445, 0.06944444444444445, 0.06944444444444445, 0.06944444444444445, 0.06944444444444445, 0.06944444444444445, 0.06944444444444445, 0.06944444444444445, 0.06944444444444445, 0.06944444444444445, 0.06944444444444445, 0.06944444444444445, 0.06944444444444445, 0.06944444444444445, 0.06944444444444445, 0.06944444444444445, 0.06944444444444445, 0.06944444444444445, 0.06944444444444445, 0.06944444444444445, 0.06944444444444445, 0.06944444444444445, 0.06944444444444445, 0.06944444444444445, 0.06944444444444445, 0.06944444444444445, 0.06944444444444445, 0.06944444444444445, 0.06944444444444445, 0.06944444444444445, 0.06944444444444445, 0.06944444444444445, 0.06944444444444445, 0.06944444444444445, 0.06944444444444445]"	"[-0.4027777777777778, -0.4027777777777778, -0.40370370370370373, -0.40370370370370373, -0.40370370370370373, -0.40370370370370373, -0.40370370370370373, -0.40370370370370373, -0.40370370370370373, -0.40370370370370373, -0.40370370370370373, -0.40370370370370373, -0.40370370370370373, -0.40370370370370373, -0.40370370370370373, -0.40370370370370373, -0.40370370370370373, -0.40370370370370373, -0.40370370370370373, -0.40370370370370373, -0.40370370370370373, -0.40370370370370373, -0.40370370370370373, -0.40370370370370373, -0.40370370370370373, -0.40370370370370373, -0.40370370370370373, -0.40370370370370373, -0.40370370370370373, -0.40370370370370373, -0.40370370370370373, -0.40370370370370373, -0.40370370370370373, -0.40370370370370373, -0.40370370370370373, -0.40370370370370373, -0.40370370370370373, -0.40370370370370373]"	"[1, 1, 1, 1, 1, 1, 1, 1, 1, 1, 1, 1, 1, 1, 1, 1, 1, 1, 1, 1, 1, 1, 1, 1, 1, 1, 1, 1, 1, 1, 1, 1, 1, 1, 1, 1, 1, 0]"	"[0, 0, 0, 0, 0, 0, 0, 0, 0, 0, 0, 0, 0, 0, 0, 0, 0, 0, 0, 0, 0, 0, 0, 0, 0, 0, 0, 0, 0, 0, 0, 0, 0, 0, 0, 0, 0, 0]"	"[0, 0, 0, 0, 0, 0, 0, 0, 0, 0, 0, 0, 0, 0, 0, 0, 0, 0, 0, 0, 0, 0, 0, 0, 0, 0, 0, 0, 0, 0, 0, 0, 0, 0, 0, 0, 0, 1]"	"[1.008808600017801, 1.3587437000824139, 1.6755982000613585, 1.9754321000073105, 2.25894640001934, 2.5421467000851408, 2.867359400028363, 3.3173696000594646, 3.6172491000033915, 3.900752400048077, 4.1755942000309005, 4.484121100045741, 4.767300400068052, 5.017457700101659, 5.2508949000621215, 5.475840800092556, 5.684186700033024, 5.892548200092278, 6.101005500066094, 6.334196100011468, 6.6091062000487, 7.100996299996041, 7.617630799999461, 7.892671400099061, 8.226139300037175, 8.676129200030118, 8.950961800059304, 9.351112600066699, 9.584515199996531, 9.817643000045791, 10.009441700065508, 10.542811100021936, 10.709423499996774, 10.884539099992253, 11.02620660001412, 11.88463490002323, 12.059622900094837, 12.551146400044672]"	38	"[1.0070286999689415, 1.3569224999519065, 1.6737767000449821, 1.9736077999696136, 2.257128300028853, 2.5403297999873757, 2.865538500016555, 3.3155616000294685, 3.6154283999931067, 3.898933000047691, 4.173771900008433, 4.482302400050685, 4.765476600034162, 5.015643100021407, 5.249076999956742, 5.474024700000882, 5.682368900044821, 5.890731799998321, 6.099186799954623, 6.3323797000339255, 6.607285700039938, 7.099184000049718, 7.615810599992983, 7.890849299961701, 8.224317700020038, 8.674311200040393, 8.949142799945548, 9.349295499967411, 9.58270549995359, 9.815821300027892, 10.007625699974597, 10.541000199969858, 10.707607300020754, 10.882720299996436, 11.024383999989368, 11.88281800004188, 12.05780239996966, 12.549260600004345]"	"[1.1567503999685869, 1.4651197999482974, 1.7651243000291288, 2.0569520000135526, 2.34026059997268, 2.640213400009088, 2.9902297999942675, 3.4235804999480024, 3.7487386000575498, 4.015372999943793, 4.273622800013982, 4.606989399995655, 4.882015699986368, 5.123709199950099, 5.3570414000423625, 5.573821599944495, 5.773728900006972, 5.9904156000120565, 6.207115099998191, 6.432301199994981, 6.715467600035481, 7.223833100055344, 7.748912799987011, 8.04071460000705, 8.39891530002933, 8.832292499952018, 9.048958000028506, 9.457427100045606, 9.69908769999165, 9.890728699974716, 10.1156957000494, 10.63241169997491, 10.807434399961494, 10.982429299969226, 11.149107399978675, 11.974163400009274, 12.1158521999605, 12.549264900037088]"	95.27043949998915	95.27609339996707	96.76814689999446	96.78449200000614								26	01	2024-02-16_15h07.41.012	BART_exp	2023.2.3	119.97787613465455	2024-02-16 15h07.49.916421 +0100	
balloon.png	57	0	6	6	13	96.78449200000614													96.7683428999735	96.78449200000614	96.78449200000614	96.78449200000614	96.78449200000614	96.78449200000614	-0.0007174999918788671	-0.0007174999918788671	-0.0007174999918788671	96.78449200000614	105.83677850000095	33	1.65	False	"[0.07407407407407407, 0.07407407407407407, 0.07407407407407407, 0.07407407407407407, 0.07407407407407407, 0.07407407407407407, 0.07407407407407407, 0.07407407407407407, 0.07407407407407407, 0.07407407407407407, 0.07407407407407407, 0.07407407407407407, 0.07407407407407407, 0.07407407407407407, 0.07407407407407407, 0.07407407407407407, 0.07407407407407407, 0.07407407407407407, 0.07407407407407407, 0.07407407407407407, 0.07407407407407407, 0.07407407407407407, 0.07407407407407407, 0.07407407407407407, 0.07407407407407407, 0.07407407407407407, 0.07407407407407407, 0.07407407407407407, 0.07407407407407407, 0.07407407407407407, 0.07407407407407407, 0.07407407407407407, 0.07407407407407407, 0.07407407407407407]"	"[-0.4009259259259259, -0.4009259259259259, -0.4009259259259259, -0.4009259259259259, -0.4009259259259259, -0.4009259259259259, -0.4009259259259259, -0.4009259259259259, -0.4009259259259259, -0.4009259259259259, -0.4009259259259259, -0.4009259259259259, -0.4009259259259259, -0.4009259259259259, -0.4009259259259259, -0.4009259259259259, -0.4009259259259259, -0.4009259259259259, -0.4009259259259259, -0.4009259259259259, -0.4009259259259259, -0.4009259259259259, -0.4009259259259259, -0.4009259259259259, -0.4009259259259259, -0.4009259259259259, -0.4009259259259259, -0.4009259259259259, -0.4009259259259259, -0.4009259259259259, -0.4009259259259259, -0.4009259259259259, -0.4009259259259259, -0.4009259259259259]"	"[1, 1, 1, 1, 1, 1, 1, 1, 1, 1, 1, 1, 1, 1, 1, 1, 1, 1, 1, 1, 1, 1, 1, 1, 1, 1, 1, 1, 1, 1, 1, 1, 1, 0]"	"[0, 0, 0, 0, 0, 0, 0, 0, 0, 0, 0, 0, 0, 0, 0, 0, 0, 0, 0, 0, 0, 0, 0, 0, 0, 0, 0, 0, 0, 0, 0, 0, 0, 0]"	"[0, 0, 0, 0, 0, 0, 0, 0, 0, 0, 0, 0, 0, 0, 0, 0, 0, 0, 0, 0, 0, 0, 0, 0, 0, 0, 0, 0, 0, 0, 0, 0, 0, 1]"	"[0.8253314000321552, 1.0420193000463769, 1.2503219000063837, 1.4253613000037149, 1.6503509000176564, 1.8835563000757247, 2.1085603000828996, 2.3335858000209555, 2.550426200032234, 2.775419600075111, 2.9590592000167817, 3.1589438000228256, 3.358790799975395, 3.542114300071262, 3.7420189999975264, 3.933689899975434, 4.167177599971183, 4.450554799987003, 4.700414900085889, 5.025605199974962, 5.325496300007217, 5.609130900003947, 5.875585000030696, 6.075600099982694, 6.258985999971628, 6.467198700061999, 6.683882600045763, 6.909005900030024, 7.242440700065345, 7.817461800063029, 8.05915190000087, 8.2840162999928, 8.525721100042574, 9.067451699986123]"	34	"[0.8164879999822006, 1.0331771000055596, 1.2414800999686122, 1.4165108000161126, 1.641513100010343, 1.874705099966377, 2.0997080999659374, 2.324749800027348, 2.5415809999685735, 2.7665810000617057, 2.950232099974528, 3.1501002999721095, 3.3499449000228196, 3.5332690000068396, 3.7331715000327677, 3.924849700066261, 4.158329900004901, 4.441706600016914, 4.6915669000009075, 5.016753899981268, 5.316656299983151, 5.6002854000544176, 5.8667339000385255, 6.0667556000407785, 6.250144100049511, 6.458347500069067, 6.675037199980579, 6.900154100032523, 7.233599600032903, 7.808610300067812, 8.050337300053798, 8.275163599988446, 8.516871500061825, 9.058551499969326]"	"[0.8994671000400558, 1.1328548999736086, 1.3078392000170425, 1.4912053999723867, 1.749579800060019, 1.941264700028114, 2.149556600023061, 2.3995790999615565, 2.6412621999625117, 2.8579595000483096, 3.041489399969578, 3.232972100027837, 3.4413464000681415, 3.633017700049095, 3.8247123999753967, 4.033081899979152, 4.249702800065279, 4.524808699963614, 4.808108599972911, 5.124798299977556, 5.417900900007226, 5.733356200042181, 5.949913099990226, 6.133204199955799, 6.324853800004348, 6.5415566000156105, 6.783225300023332, 6.999922999995761, 7.333299200050533, 7.91663430002518, 8.158331000013277, 8.39999489998445, 8.658580100047402, 9.058555800002068]"	105.83811679994687	105.85181829996873	107.34365719999187									26	01	2024-02-16_15h07.41.012	BART_exp	2023.2.3	119.97787613465455	2024-02-16 15h07.49.916421 +0100	
balloon.png	53	0	7	7	12	107.36024399998132													107.34385800000746	107.36024399998132	107.36024399998132	107.36024399998132	107.36024399998132	107.36024399998132	0.006988400011323392	0.006988400011323392	0.006988400011323392	107.36024399998132	111.68705760000739	10	0.50	False	"[0.053703703703703705, 0.053703703703703705, 0.053703703703703705, 0.053703703703703705, 0.053703703703703705, 0.053703703703703705, 0.053703703703703705, 0.053703703703703705, 0.053703703703703705, 0.053703703703703705, 0.053703703703703705]"	"[-0.38425925925925924, -0.38425925925925924, -0.38425925925925924, -0.38425925925925924, -0.38425925925925924, -0.38425925925925924, -0.38425925925925924, -0.38425925925925924, -0.38425925925925924, -0.38425925925925924, -0.38425925925925924]"	"[1, 1, 1, 1, 1, 1, 1, 1, 1, 1, 0]"	"[0, 0, 0, 0, 0, 0, 0, 0, 0, 0, 0]"	"[0, 0, 0, 0, 0, 0, 0, 0, 0, 0, 1]"	"[0.6256247999845073, 0.8588813999667764, 1.1420753999846056, 1.4006401000078768, 1.742147299926728, 2.142167399986647, 2.6423689000075683, 3.2840304999845102, 3.5590593999950215, 3.809111100039445, 4.3422924999613315]"	11	"[0.6225798999657854, 0.8558284000027925, 1.1390285999514163, 1.3975946999853477, 1.739095599972643, 2.1391136000165716, 2.6393212999682873, 3.2809782000258565, 3.556008900050074, 3.806062399991788, 4.339177299989387]"	"[0.6971721999580041, 0.9639161999803036, 1.2305429000407457, 1.5055936999851838, 1.8639764999970794, 2.280750700039789, 2.780684099998325, 3.397581800003536, 3.6807669999543577, 3.9641119999578223, 4.339181700022891]"	111.68785830005072	111.69387039996218	113.18587919999845	113.21064259996638								26	01	2024-02-16_15h07.41.012	BART_exp	2023.2.3	119.97787613465455	2024-02-16 15h07.49.916421 +0100	
balloon.png	114	0	8	8	26	113.21064259996638													113.18606099998578	113.21064259996638	113.21064259996638	113.21064259996638	113.21064259996638	113.21064259996638	-0.0005901000695303082	-0.0005901000695303082	-0.0005901000695303082	113.21064259996638	129.85527349996846	37	1.85	False	"[0.05925925925925926, 0.05925925925925926, 0.05925925925925926, 0.05925925925925926, 0.05925925925925926, 0.05925925925925926, 0.05925925925925926, 0.05925925925925926, 0.05925925925925926, 0.05925925925925926, 0.05925925925925926, 0.05925925925925926, 0.05925925925925926, 0.05925925925925926, 0.05925925925925926, 0.05925925925925926, 0.05925925925925926, 0.05925925925925926, 0.05925925925925926, 0.05925925925925926, 0.05925925925925926, 0.05925925925925926, 0.05925925925925926, 0.05925925925925926, 0.05925925925925926, 0.05925925925925926, 0.05925925925925926, 0.05925925925925926, 0.05925925925925926, 0.05925925925925926, 0.05925925925925926, 0.05925925925925926, 0.05925925925925926, 0.05925925925925926, 0.05925925925925926, 0.05925925925925926, 0.05925925925925926, 0.05925925925925926]"	"[-0.41203703703703703, -0.41203703703703703, -0.41203703703703703, -0.41203703703703703, -0.41203703703703703, -0.41203703703703703, -0.41203703703703703, -0.41203703703703703, -0.41203703703703703, -0.41203703703703703, -0.41203703703703703, -0.41203703703703703, -0.41203703703703703, -0.41203703703703703, -0.41203703703703703, -0.41203703703703703, -0.41203703703703703, -0.41203703703703703, -0.41203703703703703, -0.41203703703703703, -0.41203703703703703, -0.41203703703703703, -0.41203703703703703, -0.41203703703703703, -0.41203703703703703, -0.41203703703703703, -0.41203703703703703, -0.41203703703703703, -0.41203703703703703, -0.41203703703703703, -0.41203703703703703, -0.41203703703703703, -0.41203703703703703, -0.41203703703703703, -0.41203703703703703, -0.41203703703703703, -0.41203703703703703, -0.41203703703703703]"	"[1, 1, 1, 1, 1, 1, 1, 1, 1, 1, 1, 1, 1, 1, 1, 1, 1, 1, 1, 1, 1, 1, 1, 1, 1, 1, 1, 1, 1, 1, 1, 1, 1, 1, 1, 1, 1, 0]"	"[0, 0, 0, 0, 0, 0, 0, 0, 0, 0, 0, 0, 0, 0, 0, 0, 0, 0, 0, 0, 0, 0, 0, 0, 0, 0, 0, 0, 0, 0, 0, 0, 0, 0, 0, 0, 0, 0]"	"[0, 0, 0, 0, 0, 0, 0, 0, 0, 0, 0, 0, 0, 0, 0, 0, 0, 0, 0, 0, 0, 0, 0, 0, 0, 0, 0, 0, 0, 0, 0, 0, 0, 0, 0, 0, 0, 1]"	"[1.7007508999668062, 2.042018999927677, 2.392197799985297, 2.6838368999306113, 3.0587600999278948, 3.425490199937485, 3.7423105998896062, 4.075507099973038, 4.3590224999934435, 4.658920799964108, 4.950796999968588, 5.192534999921918, 5.450722399982624, 5.69230679993052, 5.909125099889934, 6.11745769996196, 6.334239499992691, 6.55085020000115, 6.792532499996014, 7.09240189997945, 7.400933099910617, 7.68573489994742, 7.927452299976721, 8.200986199895851, 8.559318999992684, 9.292577899992466, 10.001063199946657, 10.417620799969882, 10.834306999924593, 11.267722599906847, 11.63436299993191, 12.21775539999362, 12.709587699966505, 13.842988399905153, 14.701376599958166, 15.501459599938244, 16.26804999995511, 16.66828529990744]"	38	"[1.6895995999220759, 2.0308405000250787, 2.3810166999464855, 2.6726597999222577, 3.0475758999818936, 3.4143069999990985, 3.731126799946651, 4.064323199912906, 4.347838599933311, 4.647737100021914, 4.939619899960235, 5.181353599997237, 5.439568599918857, 5.6811249000020325, 5.897940299939364, 6.106277099926956, 6.323067000019364, 6.539665599935688, 6.781354599981569, 7.081223199958913, 7.3897521999897435, 7.674723499920219, 7.916440499946475, 8.189816599944606, 8.548141499981284, 9.281393999932334, 9.989881800021976, 10.406438499921933, 10.823145299917087, 11.25654219998978, 11.623184299911372, 12.206571899936534, 12.698402700014412, 13.831806299975142, 14.690193900023587, 15.490273999981582, 16.2568679000251, 16.657042099977843]"	"[1.8640144999371842, 2.1807418999960646, 2.497446699999273, 2.80576439993456, 3.155776400002651, 3.5308525000000373, 3.847551599959843, 4.189231799915433, 4.489191300002858, 4.781055499915965, 5.055904599954374, 5.289259199984372, 5.556011799955741, 5.78929019998759, 6.01432560000103, 6.222793699940667, 6.43240509997122, 6.622732699965127, 6.839375599985942, 7.2143921999959275, 7.514444599975832, 7.797753299935721, 8.006121599930339, 8.289462500018999, 8.672827999922447, 9.389574899920262, 10.10630639991723, 10.531302399933338, 10.973061900003813, 11.373066799947992, 11.748101099976338, 12.323122899979353, 12.8398228000151, 13.939916200004518, 14.798295599990524, 15.606681899982505, 16.356693999958225, 16.657046400010586]"	129.8567223000573	129.86182450002525	131.35378620005213	131.3619628000306								26	01	2024-02-16_15h07.41.012	BART_exp	2023.2.3	119.97787613465455	2024-02-16 15h07.49.916421 +0100	
balloon.png	31	0	9	9	7	131.3619628000306													131.35396750003565	131.3619628000306	131.3619628000306	131.3619628000306	131.3619628000306	131.3619628000306	0.005303399986587465	0.005303399986587465	0.005303399986587465	131.3619628000306	142.0146715999581	32	1.55	True	"[0.06018518518518518, 0.06018518518518518, 0.06018518518518518, 0.06018518518518518, 0.06018518518518518, 0.06018518518518518, 0.06018518518518518, 0.06018518518518518, 0.06018518518518518, 0.06018518518518518, 0.06018518518518518, 0.06018518518518518, 0.06018518518518518, 0.06018518518518518, 0.06018518518518518, 0.06018518518518518, 0.06018518518518518, 0.06018518518518518, 0.06018518518518518, 0.06018518518518518, 0.06018518518518518, 0.06018518518518518, 0.06018518518518518, 0.06018518518518518, 0.06018518518518518, 0.06018518518518518, 0.06018518518518518, 0.06018518518518518, 0.06018518518518518, 0.06018518518518518, 0.06018518518518518, 0.06018518518518518]"	"[-0.3888888888888889, -0.3888888888888889, -0.3888888888888889, -0.3888888888888889, -0.3888888888888889, -0.3888888888888889, -0.3888888888888889, -0.3888888888888889, -0.3888888888888889, -0.3888888888888889, -0.3888888888888889, -0.3888888888888889, -0.3888888888888889, -0.3888888888888889, -0.3888888888888889, -0.3888888888888889, -0.3888888888888889, -0.3888888888888889, -0.3888888888888889, -0.3888888888888889, -0.3888888888888889, -0.3888888888888889, -0.3888888888888889, -0.3888888888888889, -0.3888888888888889, -0.3888888888888889, -0.3888888888888889, -0.3888888888888889, -0.3888888888888889, -0.3888888888888889, -0.3888888888888889, -0.3888888888888889]"	"[1, 1, 1, 1, 1, 1, 1, 1, 1, 1, 1, 1, 1, 1, 1, 1, 1, 1, 1, 1, 1, 1, 1, 1, 1, 1, 1, 1, 1, 1, 1, 1]"	"[0, 0, 0, 0, 0, 0, 0, 0, 0, 0, 0, 0, 0, 0, 0, 0, 0, 0, 0, 0, 0, 0, 0, 0, 0, 0, 0, 0, 0, 0, 0, 0]"	"[0, 0, 0, 0, 0, 0, 0, 0, 0, 0, 0, 0, 0, 0, 0, 0, 0, 0, 0, 0, 0, 0, 0, 0, 0, 0, 0, 0, 0, 0, 0, 0]"	"[0.9588404000969604, 1.2683682000497356, 1.625547100091353, 1.8837086000712588, 2.1090411000186577, 2.333919500000775, 2.550607500015758, 2.7506179000483826, 2.975617800024338, 3.217375300009735, 3.433828700101003, 3.8007267999928445, 4.167382400017232, 4.459144600084983, 4.750767100020312, 5.033998400089331, 5.3089603000553325, 5.575796000077389, 5.825680400012061, 6.035366200027056, 6.2673825999954715, 7.209244600031525, 8.334353300044313, 9.025882299989462, 9.201062300009653, 9.359413100057282, 9.542767800041474, 9.68443520006258, 9.875969600048847, 10.142865900066681, 10.334492000052705, 10.592996600084007]"	32	"[0.9570166000630707, 1.2667021000524983, 1.6237173000117764, 1.8818897000746801, 2.1072178999893367, 2.3320873000193387, 2.5487775000510737, 2.748782700044103, 2.973783200024627, 3.2155486000701785, 3.4319959999993443, 3.7988935000030324, 4.165552000049502, 4.457311699981801, 4.748935300041921, 5.032166099990718, 5.3071288000792265, 5.5739641999825835, 5.82385130005423, 6.033716700039804, 6.265548600000329, 7.207410000031814, 8.332525999983773, 9.024046699982136, 9.199236800079234, 9.357577000046149, 9.540935600060038, 9.682604199973866, 9.874140299973078, 10.14103060006164, 10.332664599991404, 10.591186900041066]"	"[1.081702800001949, 1.3652211000444368, 1.7317469000117853, 1.9818267000373453, 2.2152121000690386, 2.4401233000680804, 2.6498496000422165, 2.8651322000660002, 3.0901951000560075, 3.2901904999744147, 3.5568868999835104, 3.923597800079733, 4.282037200056948, 4.556928800069727, 4.856944800005294, 5.132181100081652, 5.415336700039916, 5.657009800081141, 5.898703900049441, 6.148700000019744, 6.373724500066601, 7.316882000071928, 8.923913500038907, 9.123916000011377, 9.265587800065987, 9.440591800026596, 9.598950600018725, 9.740852400078438, 9.924152499996126, 10.232331500039436, 10.457325199968182, 10.649055100046098]"	142.0157629000023	142.02104270004202	143.5129887999501	143.52111029997468								26	01	2024-02-16_15h07.41.012	BART_exp	2023.2.3	119.97787613465455	2024-02-16 15h07.49.916421 +0100	
balloon.png	27	0	10	10	6	143.52111029997468													143.51317159994505	143.52111029997468	143.52111029997468	143.52111029997468	143.52111029997468	143.52111029997468	0.005408099968917668			143.52111029997468	154.44056629994884	28	1.35	True	"[0.06018518518518518, 0.06018518518518518, 0.06018518518518518, 0.06018518518518518, 0.06018518518518518, 0.06018518518518518, 0.06018518518518518, 0.06018518518518518, 0.06018518518518518, 0.06018518518518518, 0.06018518518518518, 0.06018518518518518, 0.06018518518518518, 0.06018518518518518, 0.06018518518518518, 0.06018518518518518, 0.06018518518518518, 0.06018518518518518, 0.06018518518518518, 0.06018518518518518, 0.06018518518518518, 0.06018518518518518, 0.06018518518518518, 0.06018518518518518, 0.06018518518518518, 0.06018518518518518, 0.06018518518518518, 0.06018518518518518]"	"[-0.3888888888888889, -0.3888888888888889, -0.3888888888888889, -0.3888888888888889, -0.3888888888888889, -0.3888888888888889, -0.3888888888888889, -0.3888888888888889, -0.3888888888888889, -0.3888888888888889, -0.3888888888888889, -0.3888888888888889, -0.3888888888888889, -0.3888888888888889, -0.3888888888888889, -0.3888888888888889, -0.3888888888888889, -0.3888888888888889, -0.3888888888888889, -0.3888888888888889, -0.3888888888888889, -0.3888888888888889, -0.3888888888888889, -0.3888888888888889, -0.3888888888888889, -0.3888888888888889, -0.3888888888888889, -0.3888888888888889]"	"[1, 1, 1, 1, 1, 1, 1, 1, 1, 1, 1, 1, 1, 1, 1, 1, 1, 1, 1, 1, 1, 1, 1, 1, 1, 1, 1, 1]"	"[0, 0, 0, 0, 0, 0, 0, 0, 0, 0, 0, 0, 0, 0, 0, 0, 0, 0, 0, 0, 0, 0, 0, 0, 0, 0, 0, 0]"	"[0, 0, 0, 0, 0, 0, 0, 0, 0, 0, 0, 0, 0, 0, 0, 0, 0, 0, 0, 0, 0, 0, 0, 0, 0, 0, 0, 0]"	"[0.7671141000464559, 1.0503087999532, 1.5421614999650046, 2.208883099956438, 2.4671150000067428, 2.7506104999920353, 3.08378340001218, 3.4671666000504047, 4.017359200050123, 4.275569300050847, 4.5424496999476105, 4.7840683000395074, 5.033920399961062, 5.300603099982254, 5.642292200005613, 6.117321299971081, 6.500688500003889, 6.7675281999399886, 7.0260215000016615, 7.72576099995058, 8.592973800026812, 8.825857699965127, 9.026041400036775, 9.234355099964887, 9.49255720002111, 9.867644599988125, 10.326110500027426, 10.78448579995893]"	28	"[0.7652280000038445, 1.0484217000193894, 1.5402765000471845, 2.2069963000249118, 2.465232099988498, 2.7487356000347063, 3.0818984999787062, 3.46528440003749, 4.015476900036447, 4.27369110006839, 4.540566100040451, 4.782184700015932, 5.032035000040196, 5.29871370003093, 5.640408299979754, 6.107134300051257, 6.498808700009249, 6.76564470003359, 7.024138099979609, 7.723874800023623, 8.591096100048162, 8.823973800055683, 9.024153999984264, 9.232473900076002, 9.490676200017333, 9.865761000080965, 10.324227300006896, 10.78260360006243]"	"[0.8733066000277176, 1.1566228000447154, 1.6566574000753462, 2.323409100063145, 2.5733805000782013, 2.8651747000403702, 3.198448000010103, 3.5568788000382483, 4.131835800013505, 4.390172800049186, 4.656945400056429, 4.890199700021185, 5.148569300072268, 5.381888600066304, 5.756989000015892, 6.223668900085613, 6.590312000014819, 6.857039300026372, 7.10703499999363, 7.840425600064918, 8.698987500043586, 8.90720700006932, 9.082198500051163, 9.332181700039655, 9.53224329999648, 9.982434700010344, 10.432320900028571, 10.915927299996838]"	154.44157819997054	154.44690300000366	155.93884570000228	155.94704490003642								26	01	2024-02-16_15h07.41.012	BART_exp	2023.2.3	119.97787613465455	2024-02-16 15h07.49.916421 +0100	
balloon.png	110	0	11	11	25	155.94704490003642													155.93902669998351	155.94704490003642	155.94704490003642	155.94704490003642	155.94704490003642	155.94704490003642	0.00552950007840991			155.94704490003642	160.00720850005746	10	0.50	False	"[0.05185185185185185, 0.05185185185185185, 0.05185185185185185, 0.05185185185185185, 0.05185185185185185, 0.05185185185185185, 0.05185185185185185, 0.05185185185185185, 0.05185185185185185, 0.05185185185185185, 0.05185185185185185]"	"[-0.3907407407407407, -0.38981481481481484, -0.38981481481481484, -0.38981481481481484, -0.38981481481481484, -0.38981481481481484, -0.38981481481481484, -0.38981481481481484, -0.38981481481481484, -0.38981481481481484, -0.38981481481481484]"	"[1, 1, 1, 1, 1, 1, 1, 1, 1, 1, 0]"	"[0, 0, 0, 0, 0, 0, 0, 0, 0, 0, 0]"	"[0, 0, 0, 0, 0, 0, 0, 0, 0, 0, 1]"	"[0.8170003000413999, 1.2337255000602454, 1.467033699969761, 1.7671981999883428, 2.050401599961333, 2.375601000036113, 2.642246100003831, 3.0338045000098646, 3.400550900027156, 3.6505360000301152, 4.067253599991091]"	11	"[0.8151037999195978, 1.2318349999841303, 1.4651413999963552, 1.765312199946493, 2.0485040999483317, 2.373705899924971, 2.6403508000075817, 3.0319110999116674, 3.398653099895455, 3.6486386999022216, 4.06529599998612]"	"[0.9316083999583498, 1.3316462999209762, 1.5399901999626309, 1.8483401999110356, 2.1484194999793544, 2.4733796999789774, 2.7483935999916866, 3.106759599992074, 3.5151255999226123, 3.756790499901399, 4.0653004999039695]"	160.00809959997423	160.0139961000532	161.50593540002592	161.53072829998564								26	01	2024-02-16_15h07.41.012	BART_exp	2023.2.3	119.97787613465455	2024-02-16 15h07.49.916421 +0100	
balloon.png	40	0	12	12	9	161.53072829998564													161.50611019995995	161.53072829998564	161.53072829998564	161.53072829998564	161.53072829998564	161.53072829998564	-0.0007425000658258796	-0.0007425000658258796	-0.0007425000658258796	161.53072829998564	169.4329506000504	20	1.00	False	"[0.046296296296296294, 0.046296296296296294, 0.046296296296296294, 0.046296296296296294, 0.046296296296296294, 0.046296296296296294, 0.046296296296296294, 0.046296296296296294, 0.046296296296296294, 0.046296296296296294, 0.046296296296296294, 0.046296296296296294, 0.046296296296296294, 0.046296296296296294, 0.046296296296296294, 0.046296296296296294, 0.046296296296296294, 0.046296296296296294, 0.046296296296296294, 0.046296296296296294, 0.046296296296296294]"	"[-0.39537037037037037, -0.39537037037037037, -0.39537037037037037, -0.39537037037037037, -0.39537037037037037, -0.39537037037037037, -0.39537037037037037, -0.39537037037037037, -0.39537037037037037, -0.39537037037037037, -0.39537037037037037, -0.39537037037037037, -0.39537037037037037, -0.39537037037037037, -0.39537037037037037, -0.39537037037037037, -0.39537037037037037, -0.39537037037037037, -0.39537037037037037, -0.39537037037037037, -0.39537037037037037]"	"[1, 1, 1, 1, 1, 1, 1, 1, 1, 1, 1, 1, 1, 1, 1, 1, 1, 1, 1, 1, 0]"	"[0, 0, 0, 0, 0, 0, 0, 0, 0, 0, 0, 0, 0, 0, 0, 0, 0, 0, 0, 0, 0]"	"[0, 0, 0, 0, 0, 0, 0, 0, 0, 0, 0, 0, 0, 0, 0, 0, 0, 0, 0, 0, 1]"	"[0.48363989999052137, 0.742136999964714, 1.0171578000299633, 1.242031899979338, 1.6670365000609308, 1.9255362000549212, 2.1922717000124976, 2.633796100039035, 3.042128200060688, 3.3674704000586644, 3.5673691000556573, 3.792353600030765, 4.025564200012013, 4.258934200042859, 4.900575099978596, 5.300757899996825, 5.559145500068553, 5.87567159999162, 6.142576899961568, 7.242426899960265, 7.925954899983481]"	21	"[0.4726063000271097, 0.7310943000484258, 1.0061120999744162, 1.2309863000409678, 1.655992200016044, 1.9144873999757692, 2.18122490006499, 2.622751499991864, 3.0310799999861047, 3.356429500039667, 3.5563235000008717, 3.7813079999759793, 4.014518800075166, 4.24788909999188, 4.881236399989575, 5.289715899969451, 5.548101900028996, 5.864623000030406, 6.131539499969222, 7.231383300037123, 7.914845600025728]"	"[0.5724454000592232, 0.8474579000612721, 1.0891502000158653, 1.305820900015533, 1.7641849999781698, 2.0392227000556886, 2.3227766000200063, 2.7309180999873206, 3.197621100000106, 3.4644965999759734, 3.6560656999936327, 3.8727017000783235, 4.114346100017428, 4.356037300080061, 5.056100400048308, 5.422856400022283, 5.6895648000063375, 5.997945300070569, 6.272839199984446, 7.364615399972536, 7.914849900058471]"	169.43392059998587	169.43959910003468	170.9315842000069	170.9480387000367								26	01	2024-02-16_15h07.41.012	BART_exp	2023.2.3	119.97787613465455	2024-02-16 15h07.49.916421 +0100	
balloon.png	75	0	13	13	17	170.9480387000367													170.931763999979	170.9480387000367	170.9480387000367	170.9480387000367	170.9480387000367	170.9480387000367	-0.0008963999571278691	-0.0008963999571278691	-0.0008963999571278691	170.9480387000367	182.4672098000301	32	1.60	False	"[0.05277777777777778, 0.05277777777777778, 0.05277777777777778, 0.053703703703703705, 0.053703703703703705, 0.053703703703703705, 0.053703703703703705, 0.053703703703703705, 0.053703703703703705, 0.053703703703703705, 0.053703703703703705, 0.053703703703703705, 0.053703703703703705, 0.053703703703703705, 0.053703703703703705, 0.053703703703703705, 0.053703703703703705, 0.053703703703703705, 0.053703703703703705, 0.053703703703703705, 0.053703703703703705, 0.053703703703703705, 0.053703703703703705, 0.053703703703703705, 0.053703703703703705, 0.053703703703703705, 0.053703703703703705, 0.053703703703703705, 0.053703703703703705, 0.053703703703703705, 0.053703703703703705, 0.053703703703703705, 0.053703703703703705]"	"[-0.4, -0.4, -0.4, -0.4009259259259259, -0.4009259259259259, -0.4009259259259259, -0.4009259259259259, -0.4009259259259259, -0.4009259259259259, -0.4009259259259259, -0.4009259259259259, -0.4009259259259259, -0.4009259259259259, -0.4009259259259259, -0.4009259259259259, -0.4009259259259259, -0.4009259259259259, -0.4009259259259259, -0.4009259259259259, -0.4009259259259259, -0.4009259259259259, -0.4009259259259259, -0.4009259259259259, -0.4009259259259259, -0.4009259259259259, -0.4009259259259259, -0.4009259259259259, -0.4009259259259259, -0.4009259259259259, -0.4009259259259259, -0.4009259259259259, -0.4009259259259259, -0.4009259259259259]"	"[1, 1, 1, 1, 1, 1, 1, 1, 1, 1, 1, 1, 1, 1, 1, 1, 1, 1, 1, 1, 1, 1, 1, 1, 1, 1, 1, 1, 1, 1, 1, 1, 0]"	"[0, 0, 0, 0, 0, 0, 0, 0, 0, 0, 0, 0, 0, 0, 0, 0, 0, 0, 0, 0, 0, 0, 0, 0, 0, 0, 0, 0, 0, 0, 0, 0, 0]"	"[0, 0, 0, 0, 0, 0, 0, 0, 0, 0, 0, 0, 0, 0, 0, 0, 0, 0, 0, 0, 0, 0, 0, 0, 0, 0, 0, 0, 0, 0, 0, 0, 1]"	"[0.8254801000002772, 1.2921449000714347, 1.583691900013946, 1.858752500033006, 2.125546899973415, 2.3839181000366807, 2.667231500032358, 2.958969800034538, 3.258827800047584, 3.700671900063753, 3.934019900043495, 4.284025400062092, 4.633900200016797, 4.825568799977191, 5.042291400022805, 5.284215199993923, 5.567456900025718, 5.80066639999859, 6.075850100023672, 6.325862700003199, 6.625704500009306, 6.950916000059806, 7.375756600056775, 7.751075400039554, 8.084389899973758, 8.442510100081563, 8.809246700024232, 9.151108900085092, 9.501146199996583, 9.852561500039883, 10.284610799979419, 10.817656500032172, 11.534530600067228]"	33	"[0.8200928000733256, 1.286761400057003, 1.5783028000732884, 1.8533632000908256, 2.120159100042656, 2.378535300027579, 2.6618472000118345, 2.953584300004877, 3.253448100062087, 3.695280499989167, 3.9286306001013145, 4.278635499998927, 4.628510700073093, 4.820175300003029, 5.036904400098138, 5.278830000082962, 5.5620654000667855, 5.795277500059456, 6.070469100028276, 6.320473000057973, 6.620317300083116, 6.945531300036237, 7.370369300013408, 7.745687299990095, 8.079002400045283, 8.437122600036673, 8.803855300066061, 9.145723600056954, 9.49575460003689, 9.847341100103222, 10.279231199994683, 10.812263500061817, 11.52908100001514]"	"[0.9281069000717252, 1.3448173000942916, 1.653155600070022, 1.944830600055866, 2.2032184000127017, 2.4532550000585616, 2.7783216000534594, 3.053296300000511, 3.361753100063652, 3.7866524000419304, 4.020028500002809, 4.370016100001521, 4.688283700030297, 4.8867045000661165, 5.103451500064693, 5.361813700059429, 5.636856600060128, 5.9284672000212595, 6.12848010007292, 6.4201858000596985, 6.753530899994075, 7.0618644000496715, 7.486923600081354, 7.887000699993223, 8.195273200049996, 8.570452800020576, 8.870320499991067, 9.26204850000795, 9.612079000100493, 9.903739200090058, 10.395435400074348, 10.912150399992242, 11.529085100046359]"	182.46837220003363	182.47387440002058	183.9658082999522	183.97398809995502								26	01	2024-02-16_15h07.41.012	BART_exp	2023.2.3	119.97787613465455	2024-02-16 15h07.49.916421 +0100	
balloon.png	88	0	14	14	20	183.97398809995502													183.96598229999654	183.97398809995502	183.97398809995502	183.97398809995502	183.97398809995502	183.97398809995502	0.005676800035871565	0.005676800035871565	0.005676800035871565	183.97398809995502	200.81852620001882	42	2.10	False	"[0.05925925925925926, 0.05925925925925926, 0.05925925925925926, 0.05925925925925926, 0.05925925925925926, 0.05925925925925926, 0.05925925925925926, 0.05925925925925926, 0.05925925925925926, 0.05925925925925926, 0.05925925925925926, 0.05925925925925926, 0.05925925925925926, 0.05925925925925926, 0.05925925925925926, 0.05925925925925926, 0.05925925925925926, 0.05925925925925926, 0.05925925925925926, 0.05925925925925926, 0.05925925925925926, 0.05925925925925926, 0.05925925925925926, 0.05925925925925926, 0.05925925925925926, 0.05925925925925926, 0.05925925925925926, 0.05925925925925926, 0.05925925925925926, 0.05925925925925926, 0.05925925925925926, 0.05925925925925926, 0.05925925925925926, 0.05925925925925926, 0.05925925925925926, 0.05925925925925926, 0.05925925925925926, 0.05925925925925926, 0.05925925925925926, 0.05925925925925926, 0.05925925925925926, 0.05925925925925926, 0.05925925925925926]"	"[-0.4, -0.4, -0.4, -0.4, -0.4, -0.4, -0.4, -0.4, -0.4, -0.4, -0.4, -0.4, -0.4, -0.4, -0.4, -0.4, -0.4, -0.4, -0.4, -0.4, -0.4, -0.4, -0.4, -0.4, -0.4, -0.4, -0.4, -0.4, -0.4, -0.4, -0.4, -0.4, -0.4, -0.4, -0.4, -0.4, -0.4, -0.4, -0.4, -0.4, -0.4, -0.4, -0.4]"	"[1, 1, 1, 1, 1, 1, 1, 1, 1, 1, 1, 1, 1, 1, 1, 1, 1, 1, 1, 1, 1, 1, 1, 1, 1, 1, 1, 1, 1, 1, 1, 1, 1, 1, 1, 1, 1, 1, 1, 1, 1, 1, 0]"	"[0, 0, 0, 0, 0, 0, 0, 0, 0, 0, 0, 0, 0, 0, 0, 0, 0, 0, 0, 0, 0, 0, 0, 0, 0, 0, 0, 0, 0, 0, 0, 0, 0, 0, 0, 0, 0, 0, 0, 0, 0, 0, 0]"	"[0, 0, 0, 0, 0, 0, 0, 0, 0, 0, 0, 0, 0, 0, 0, 0, 0, 0, 0, 0, 0, 0, 0, 0, 0, 0, 0, 0, 0, 0, 0, 0, 0, 0, 0, 0, 0, 0, 0, 0, 0, 0, 1]"	"[0.5836975999409333, 0.9005401999456808, 1.1336867999052629, 1.400377199985087, 1.6589052999624982, 2.03411339991726, 2.29227139998693, 2.5505391999613494, 2.808854899951257, 3.0506534999003634, 3.392179499962367, 3.6521329999668524, 3.950576899922453, 4.367285699932836, 4.567260299925692, 4.758937899954617, 5.100871299975552, 5.392320799990557, 5.759028499945998, 6.309217499918304, 6.584072199999355, 6.792413199902512, 6.959106699912809, 7.650965299922973, 8.192546300007962, 8.734318099915981, 8.992768199997954, 9.209385499940254, 9.776162099908106, 10.242843099986203, 10.734394199913368, 11.08457449998241, 11.509598199976608, 11.926118499948643, 12.209698399994522, 12.559503099997528, 13.126196699915454, 13.6430873000063, 14.126264299964532, 14.518017399939708, 14.951323799905367, 15.976410700008273, 16.85163409996312]"	43	"[0.5818628000561148, 0.898706000065431, 1.131849700002931, 1.3985469000181183, 1.6570700999582186, 2.0322815000545233, 2.290432400070131, 2.548708299989812, 2.807022799970582, 3.0488158999942243, 3.390338800032623, 3.650464400066994, 3.9487408000277355, 4.365447800024413, 4.565419899998233, 4.757101900060661, 5.099039299995638, 5.38221720000729, 5.757191000040621, 6.307389199966565, 6.582231500069611, 6.790576500003226, 6.957273600040935, 7.649127700016834, 8.190705999964848, 8.732491899980232, 8.990931199979968, 9.207548200036399, 9.77432269998826, 10.241011900012381, 10.732560600037687, 11.082737699965946, 11.507758200052194, 11.924284999957308, 12.207864600000903, 12.557669000001624, 13.124362000031397, 13.641252300003543, 14.124425700050779, 14.516190700000152, 14.94948359997943, 15.97457590000704, 16.849736400065012]"	"[0.673543700017035, 0.9900396000593901, 1.2317634000210091, 1.4568570000119507, 1.7317567999707535, 2.1484672999940813, 2.3984679999994114, 2.623504600021988, 2.9068677000468597, 3.165210000006482, 3.515207599964924, 3.765236100065522, 4.023592400015332, 4.465276699978858, 4.665286400006153, 4.840361300040968, 5.198708100011572, 5.473721400019713, 5.848705200012773, 6.432091800030321, 6.673747400054708, 6.848807199974544, 7.032210899982601, 7.7821866000304, 8.298870100057684, 8.8489609999815, 9.098940500058234, 9.323996299994178, 9.890663300058804, 10.382445700000972, 10.865751800010912, 11.232409200049005, 11.657451300066896, 12.05747830006294, 12.315835100016557, 12.665923599968664, 13.249237600015476, 13.774265600019135, 14.232619100017473, 14.6160076999804, 15.074396700016223, 16.10780820006039, 16.849740499979816]"	200.81983219995163	200.83347419998609	202.3252784999786									26	01	2024-02-16_15h07.41.012	BART_exp	2023.2.3	119.97787613465455	2024-02-16 15h07.49.916421 +0100	
balloon.png	92	0	15	15	21	202.33357310004067													202.32545769994613	202.33357310004067	202.33357310004067	202.33357310004067	202.33357310004067	202.33357310004067	0.006867100019007921	0.006867100019007921	0.006867100019007921	202.33357310004067	210.64402989996597	21	1.05	False	"[0.044444444444444446, 0.044444444444444446, 0.044444444444444446, 0.044444444444444446, 0.044444444444444446, 0.044444444444444446, 0.044444444444444446, 0.044444444444444446, 0.044444444444444446, 0.044444444444444446, 0.044444444444444446, 0.044444444444444446, 0.044444444444444446, 0.044444444444444446, 0.044444444444444446, 0.044444444444444446, 0.044444444444444446, 0.044444444444444446, 0.044444444444444446, 0.044444444444444446, 0.044444444444444446, 0.044444444444444446]"	"[-0.39444444444444443, -0.39444444444444443, -0.39444444444444443, -0.39444444444444443, -0.39444444444444443, -0.39444444444444443, -0.39444444444444443, -0.39444444444444443, -0.39444444444444443, -0.39444444444444443, -0.39444444444444443, -0.39444444444444443, -0.39444444444444443, -0.39444444444444443, -0.39444444444444443, -0.39444444444444443, -0.39444444444444443, -0.39444444444444443, -0.39444444444444443, -0.39444444444444443, -0.39444444444444443, -0.39444444444444443]"	"[1, 1, 1, 1, 1, 1, 1, 1, 1, 1, 1, 1, 1, 1, 1, 1, 1, 1, 1, 1, 1, 0]"	"[0, 0, 0, 0, 0, 0, 0, 0, 0, 0, 0, 0, 0, 0, 0, 0, 0, 0, 0, 0, 0, 0]"	"[0, 0, 0, 0, 0, 0, 0, 0, 0, 0, 0, 0, 0, 0, 0, 0, 0, 0, 0, 0, 0, 1]"	"[1.142230199999176, 1.5422398999799043, 1.7672446999931708, 2.0090403999201953, 2.208940799930133, 2.4271788999903947, 3.042497899965383, 3.534251599921845, 3.8592941999668255, 4.100933299981989, 4.359095799969509, 4.792445199913345, 5.259327000007033, 5.550859299954027, 5.8008631999837235, 6.0427293999819085, 6.284383499994874, 6.501222099992447, 6.742849599919282, 7.00972789991647, 7.367644799989648, 8.31769269995857]"	22	"[1.1402345000533387, 1.5402387999929488, 1.7652424999978393, 2.007036600029096, 2.20694090006873, 2.425339400069788, 3.0405024000210688, 3.5322500000474975, 3.8573068000841886, 4.098930799984373, 4.357091100071557, 4.790439100004733, 5.2573226999957114, 5.548856500070542, 5.798862199997529, 6.040730100008659, 6.28238250000868, 6.499226200045086, 6.740851400070824, 7.007908500032499, 7.365639300085604, 8.315625200048089]"	"[1.2484065000899136, 1.6067508000414819, 1.8734494000673294, 2.0734783000079915, 2.306812299997546, 2.4901412000181153, 3.1651956000132486, 3.6736444000853226, 3.9652391000417992, 4.206936600035988, 4.423600799986161, 4.898767800070345, 5.382018000003882, 5.607040100032464, 5.882084500044584, 6.14874500001315, 6.390475000021979, 6.607086000032723, 6.857120500062592, 7.132299700053409, 7.482198700075969, 8.315629500080831]"	210.64505869999994	210.6508271000348	212.14279249997344	212.15930539998226								26	01	2024-02-16_15h07.41.012	BART_exp	2023.2.3	119.97787613465455	2024-02-16 15h07.49.916421 +0100	
balloon.png	18	0	16	16	4	212.15930539998226													212.14297249994706	212.15930539998226	212.15930539998226	212.15930539998226	212.15930539998226	212.15930539998226	-0.0008319999324157834	-0.0008319999324157834	-0.0008319999324157834	212.15930539998226	218.2699816999957	19	0.90	True	"[0.03888888888888889, 0.03888888888888889, 0.03888888888888889, 0.03888888888888889, 0.03888888888888889, 0.03888888888888889, 0.03888888888888889, 0.03888888888888889, 0.03888888888888889, 0.03888888888888889, 0.03888888888888889, 0.03888888888888889, 0.03888888888888889, 0.03888888888888889, 0.03888888888888889, 0.03888888888888889, 0.03888888888888889, 0.03888888888888889, 0.03888888888888889]"	"[-0.39537037037037037, -0.39537037037037037, -0.39537037037037037, -0.39537037037037037, -0.39537037037037037, -0.39537037037037037, -0.39537037037037037, -0.39537037037037037, -0.39537037037037037, -0.39537037037037037, -0.39537037037037037, -0.39537037037037037, -0.39537037037037037, -0.39537037037037037, -0.39537037037037037, -0.39537037037037037, -0.39537037037037037, -0.39537037037037037, -0.39537037037037037]"	"[1, 1, 1, 1, 1, 1, 1, 1, 1, 1, 1, 1, 1, 1, 1, 1, 1, 1, 1]"	"[0, 0, 0, 0, 0, 0, 0, 0, 0, 0, 0, 0, 0, 0, 0, 0, 0, 0, 0]"	"[0, 0, 0, 0, 0, 0, 0, 0, 0, 0, 0, 0, 0, 0, 0, 0, 0, 0, 0]"	"[1.092048199963756, 1.4255530999507755, 1.7837230999721214, 2.125505100004375, 2.483937200042419, 2.7838720999425277, 2.975568399997428, 3.700545600033365, 3.917299999971874, 4.350660199997947, 4.5255942000076175, 4.742289799964055, 4.925621400005184, 5.108954699942842, 5.300861099967733, 5.484182300046086, 5.667494100052863, 5.834227900020778, 6.059219200047664]"	19	"[1.0880766999907792, 1.4215814999770373, 1.7715184999397025, 2.121531100012362, 2.479963699937798, 2.7799103999277577, 2.9715926999924704, 3.6965750999515876, 3.9133348999312147, 4.3466890999116, 4.521620500017889, 4.738317199982703, 4.921654399950057, 5.104981299955398, 5.296888999990188, 5.480213199974969, 5.663520099944435, 5.830259899958037, 6.055249099968933]"	"[1.2546124999644235, 1.4964737999252975, 1.9129389999434352, 2.221306200022809, 2.6213265999685973, 2.8546688000205904, 3.0296904999995604, 3.779789499938488, 3.963122099987231, 4.388167699915357, 4.6048181999940425, 4.788200799957849, 4.979823499917984, 5.17987270001322, 5.371544499997981, 5.554891499923542, 5.7548993999371305, 5.9299523999216035, 6.113286799984053]"	218.2709491000278	218.27636490005534	219.7683525000466	219.77647190005518								26	01	2024-02-16_15h07.41.012	BART_exp	2023.2.3	119.97787613465455	2024-02-16 15h07.49.916421 +0100	
balloon.png	14	0	17	17	3	219.77647190005518													219.76853140001185	219.77647190005518	219.77647190005518	219.77647190005518	219.77647190005518	219.77647190005518	0.005587900057435036			219.77647190005518	225.7038061999483	15	0.70	True	"[0.03518518518518519, 0.03518518518518519, 0.03518518518518519, 0.03518518518518519, 0.03518518518518519, 0.03518518518518519, 0.03518518518518519, 0.03518518518518519, 0.03518518518518519, 0.03518518518518519, 0.03518518518518519, 0.03518518518518519, 0.03518518518518519, 0.03518518518518519, 0.03518518518518519]"	"[-0.3925925925925926, -0.3925925925925926, -0.3925925925925926, -0.3925925925925926, -0.3925925925925926, -0.3925925925925926, -0.3925925925925926, -0.3925925925925926, -0.3925925925925926, -0.3925925925925926, -0.3925925925925926, -0.3925925925925926, -0.3925925925925926, -0.3925925925925926, -0.3925925925925926]"	"[1, 1, 1, 1, 1, 1, 1, 1, 1, 1, 1, 1, 1, 1, 1]"	"[0, 0, 0, 0, 0, 0, 0, 0, 0, 0, 0, 0, 0, 0, 0]"	"[0, 0, 0, 0, 0, 0, 0, 0, 0, 0, 0, 0, 0, 0, 0]"	"[0.5087865999666974, 0.825594799942337, 1.1253864999162033, 1.4422264999011531, 1.7588755999458954, 2.0587358999764547, 2.3672265999484807, 2.6837700998876244, 3.075487699941732, 3.5423027999931946, 3.900507599930279, 4.734070299891755, 5.034193099942058, 5.43410699989181, 5.784134599962272]"	15	"[0.5068976000184193, 0.8237164000747725, 1.1234944000607356, 1.4403354000533, 1.7569917000364512, 2.056845900020562, 2.365330900065601, 2.6818786000367254, 3.0735939000733197, 3.540412600035779, 3.898619499988854, 4.73218250006903, 5.032297000056133, 5.432216300047003, 5.782240899978206]"	"[0.6151708000106737, 0.9316830000607297, 1.2316127000376582, 1.5316492000129074, 1.8566483000759035, 2.131777000031434, 2.423415799974464, 2.7901055000256747, 3.1900978999910876, 3.665138000040315, 4.006802599993534, 4.865191500051878, 5.090300500043668, 5.540287300013006, 5.923664600006305]"	225.7047524000518	225.71023900003638	227.2021809000289	227.210329500027								26	01	2024-02-16_15h07.41.012	BART_exp	2023.2.3	119.97787613465455	2024-02-16 15h07.49.916421 +0100	
balloon.png	127	0	18	18	29	227.210329500027													227.2023544999538	227.210329500027	227.210329500027	227.210329500027	227.210329500027	227.210329500027	0.005635799956507981			227.210329500027	232.22894800000358	9	0.45	False	"[0.013888888888888888, 0.013888888888888888, 0.013888888888888888, 0.013888888888888888, 0.013888888888888888, 0.013888888888888888, 0.013888888888888888, 0.013888888888888888, 0.013888888888888888, 0.013888888888888888]"	"[-0.3962962962962963, -0.3962962962962963, -0.3962962962962963, -0.3962962962962963, -0.3962962962962963, -0.3962962962962963, -0.3962962962962963, -0.3962962962962963, -0.3962962962962963, -0.3962962962962963]"	"[1, 1, 1, 1, 1, 1, 1, 1, 1, 0]"	"[0, 0, 0, 0, 0, 0, 0, 0, 0, 0]"	"[0, 0, 0, 0, 0, 0, 0, 0, 0, 1]"	"[0.867016899981536, 1.3088426999747753, 1.5922270000446588, 1.8337481999769807, 2.1090104000177234, 2.592318700044416, 2.8600888999644667, 3.8842349000042304, 4.125799700035714, 5.025664199958555]"	10	"[0.8651393000036478, 1.3069558000424877, 1.5903388999868184, 1.8318608000408858, 2.1071268999949098, 2.5904431000817567, 2.8581994000123814, 3.8823490000795573, 4.123910200083628, 5.023714000009932]"	"[0.956651100073941, 1.456723100040108, 1.6983595000347123, 1.9233795000473037, 2.2067416000645608, 2.6984333000145853, 2.9901065999874845, 4.015379999997094, 4.241627600044012, 5.023718300042674]"	232.22970479994547	232.23567920003552	233.72766299999785	233.74415789998602								26	01	2024-02-16_15h07.41.012	BART_exp	2023.2.3	119.97787613465455	2024-02-16 15h07.49.916421 +0100	
balloon.png	101	0	19	19	23	233.74415789998602													233.72784439998213	233.74415789998602	233.74415789998602	233.74415789998602	233.74415789998602	233.74415789998602	-0.0006203000666573644	-0.0006203000666573644	-0.0006203000666573644	233.74415789998602	240.9963296999922	17	0.85	False	"[0.017592592592592594, 0.017592592592592594, 0.017592592592592594, 0.017592592592592594, 0.017592592592592594, 0.017592592592592594, 0.017592592592592594, 0.017592592592592594, 0.017592592592592594, 0.017592592592592594, 0.017592592592592594, 0.017592592592592594, 0.017592592592592594, 0.017592592592592594, 0.017592592592592594, 0.017592592592592594, 0.017592592592592594, 0.017592592592592594]"	"[-0.39166666666666666, -0.39166666666666666, -0.39166666666666666, -0.39166666666666666, -0.39166666666666666, -0.39166666666666666, -0.39166666666666666, -0.39166666666666666, -0.39166666666666666, -0.39166666666666666, -0.39166666666666666, -0.39166666666666666, -0.39166666666666666, -0.39166666666666666, -0.39166666666666666, -0.39166666666666666, -0.39166666666666666, -0.39166666666666666]"	"[1, 1, 1, 1, 1, 1, 1, 1, 1, 1, 1, 1, 1, 1, 1, 1, 1, 0]"	"[0, 0, 0, 0, 0, 0, 0, 0, 0, 0, 0, 0, 0, 0, 0, 0, 0, 0]"	"[0, 0, 0, 0, 0, 0, 0, 0, 0, 0, 0, 0, 0, 0, 0, 0, 0, 1]"	"[0.7671044999733567, 1.0088693000143394, 1.3336883999872953, 1.6505348000209779, 1.9756672999355942, 2.442261099931784, 2.883817399968393, 3.3255239999853075, 3.7005396999884397, 4.325575500028208, 4.6007391000166535, 4.975761899957433, 5.209160899976268, 5.600818099919707, 5.8008591999532655, 6.00088720000349, 6.209225099999458, 7.267596399993636]"	18	"[0.7576133999973536, 0.9993757000193, 1.3241947999922559, 1.6410414000274613, 1.9661760000744835, 2.432764400029555, 2.8743255001027137, 3.316036400035955, 3.691045999992639, 4.316078700008802, 4.591248300042935, 4.96626490005292, 5.199668699991889, 5.591322000022046, 5.7913634000578895, 5.991393500007689, 6.199734300025739, 7.258041599998251]"	"[0.8323451000032946, 1.132371800020337, 1.4407710999948904, 1.7490798000944778, 2.049191200057976, 2.5408429000526667, 3.0241580000147223, 3.4491900000721216, 3.790883200010285, 4.424286400084384, 4.707673400058411, 5.042004100047052, 5.284064200008288, 5.674362700083293, 5.891037499997765, 6.099551400053315, 6.282840400002897, 7.25804570002947]"	240.99717200000305	241.0030015000375	242.49492720002308	242.5030689999694								26	01	2024-02-16_15h07.41.012	BART_exp	2023.2.3	119.97787613465455	2024-02-16 15h07.49.916421 +0100	
balloon.png	44	0	20	20	10	242.5030689999694													242.4951040999731	242.5030689999694	242.5030689999694	242.5030689999694	242.5030689999694	242.5030689999694	-0.0008101999992504716	-0.0008101999992504716	-0.0008101999992504716	242.5030689999694	252.34721210005227	30	1.50	False	"[0.012962962962962963, 0.012962962962962963, 0.012962962962962963, 0.012962962962962963, 0.012962962962962963, 0.012962962962962963, 0.012962962962962963, 0.012962962962962963, 0.012962962962962963, 0.012962962962962963, 0.012962962962962963, 0.012962962962962963, 0.012962962962962963, 0.012962962962962963, 0.012962962962962963, 0.012962962962962963, 0.012962962962962963, 0.012962962962962963, 0.012962962962962963, 0.012962962962962963, 0.012962962962962963, 0.012962962962962963, 0.012962962962962963, 0.012962962962962963, 0.012962962962962963, 0.012962962962962963, 0.012962962962962963, 0.012962962962962963, 0.012962962962962963, 0.012962962962962963, 0.012962962962962963]"	"[-0.39166666666666666, -0.39166666666666666, -0.39166666666666666, -0.39166666666666666, -0.39166666666666666, -0.39166666666666666, -0.39166666666666666, -0.39166666666666666, -0.39166666666666666, -0.39166666666666666, -0.39166666666666666, -0.39166666666666666, -0.39166666666666666, -0.39166666666666666, -0.39166666666666666, -0.39166666666666666, -0.39166666666666666, -0.39166666666666666, -0.39166666666666666, -0.39166666666666666, -0.39166666666666666, -0.39166666666666666, -0.39166666666666666, -0.39166666666666666, -0.39166666666666666, -0.39166666666666666, -0.39166666666666666, -0.39166666666666666, -0.39166666666666666, -0.39166666666666666, -0.39166666666666666]"	"[1, 1, 1, 1, 1, 1, 1, 1, 1, 1, 1, 1, 1, 1, 1, 1, 1, 1, 1, 1, 1, 1, 1, 1, 1, 1, 1, 1, 1, 1, 0]"	"[0, 0, 0, 0, 0, 0, 0, 0, 0, 0, 0, 0, 0, 0, 0, 0, 0, 0, 0, 0, 0, 0, 0, 0, 0, 0, 0, 0, 0, 0, 0]"	"[0, 0, 0, 0, 0, 0, 0, 0, 0, 0, 0, 0, 0, 0, 0, 0, 0, 0, 0, 0, 0, 0, 0, 0, 0, 0, 0, 0, 0, 0, 1]"	"[0.8755481999833137, 1.133691000053659, 1.3254515000153333, 1.5503827000502497, 1.775405199965462, 1.950537099968642, 2.167304700007662, 2.37544740003068, 2.5755818999605253, 2.809005600051023, 3.2671784999547526, 3.742206900031306, 4.11724689998664, 4.342246499960311, 4.525586899952032, 4.6923094999510795, 4.867440899950452, 5.150647000060417, 5.475832200027071, 5.792521700030193, 6.0592604000121355, 6.292375499964692, 6.492445999989286, 6.684191699954681, 6.935672500054352, 7.534132000058889, 7.809319899999537, 8.076047100010328, 8.500871199998073, 8.95091869996395, 9.851163399987854]"	31	"[0.8734086999902502, 1.1315497999312356, 1.323311600019224, 1.5482428999384865, 1.7732689999975264, 1.9483966999687254, 2.1651631999993697, 2.3733072999166325, 2.5734485000139102, 2.806870099972002, 3.2650401999708265, 3.740070499945432, 4.11511180002708, 4.340107799973339, 4.523443199926987, 4.690168299945071, 4.86530289996881, 5.148509799968451, 5.473690400016494, 5.790378000005148, 6.0571232999209315, 6.290235599968582, 6.490303999977186, 6.682058000005782, 6.93369689991232, 7.531993099953979, 7.807182800024748, 8.07391179993283, 8.49873549991753, 8.948776299948804, 9.848959799972363]"	"[0.9814348999643698, 1.1980686999158934, 1.4147570999339223, 1.598147299955599, 1.8064645000267774, 2.0564542999491096, 2.2648031000280753, 2.43983859999571, 2.6231772999744862, 2.864875699975528, 3.3732396999839693, 3.8982991999946535, 4.223320799996145, 4.399734199978411, 4.581635299953632, 4.765004199929535, 4.956683599972166, 5.240021399920806, 5.573377099935897, 5.923400799976662, 6.165072400006466, 6.381772799999453, 6.565179499913938, 6.748505000025034, 7.0734955000225455, 7.656864200020209, 7.948590499931015, 8.181896799942479, 8.6236214999808, 9.106963599915616, 9.848963900003582]"	252.3483617999591	252.35376179998275	253.8457180999685	253.8538719000062								26	01	2024-02-16_15h07.41.012	BART_exp	2023.2.3	119.97787613465455	2024-02-16 15h07.49.916421 +0100	
balloon.png	97	0	21	21	22	253.8538719000062													253.84589730005246	253.8538719000062	253.8538719000062	253.8538719000062	253.8538719000062	253.8538719000062	0.005582799902185798	0.005582799902185798	0.005582799902185798	253.8538719000062	267.2146804999793	45	2.25	False	"[0.023148148148148147, 0.023148148148148147, 0.023148148148148147, 0.023148148148148147, 0.023148148148148147, 0.023148148148148147, 0.023148148148148147, 0.023148148148148147, 0.023148148148148147, 0.023148148148148147, 0.023148148148148147, 0.023148148148148147, 0.023148148148148147, 0.023148148148148147, 0.023148148148148147, 0.023148148148148147, 0.023148148148148147, 0.023148148148148147, 0.023148148148148147, 0.023148148148148147, 0.023148148148148147, 0.023148148148148147, 0.023148148148148147, 0.023148148148148147, 0.023148148148148147, 0.023148148148148147, 0.023148148148148147, 0.023148148148148147, 0.023148148148148147, 0.023148148148148147, 0.023148148148148147, 0.023148148148148147, 0.023148148148148147, 0.023148148148148147, 0.023148148148148147, 0.023148148148148147, 0.023148148148148147, 0.023148148148148147, 0.023148148148148147, 0.023148148148148147, 0.023148148148148147, 0.023148148148148147, 0.023148148148148147, 0.023148148148148147, 0.023148148148148147, 0.023148148148148147]"	"[-0.39444444444444443, -0.39444444444444443, -0.39444444444444443, -0.39444444444444443, -0.39444444444444443, -0.39444444444444443, -0.39444444444444443, -0.39444444444444443, -0.39444444444444443, -0.39444444444444443, -0.39444444444444443, -0.39444444444444443, -0.39444444444444443, -0.39444444444444443, -0.39444444444444443, -0.39444444444444443, -0.39444444444444443, -0.39444444444444443, -0.39444444444444443, -0.39444444444444443, -0.39444444444444443, -0.39444444444444443, -0.39444444444444443, -0.39444444444444443, -0.39444444444444443, -0.39444444444444443, -0.39444444444444443, -0.39444444444444443, -0.39444444444444443, -0.39444444444444443, -0.39444444444444443, -0.39444444444444443, -0.39444444444444443, -0.39444444444444443, -0.39444444444444443, -0.39444444444444443, -0.39444444444444443, -0.39444444444444443, -0.39444444444444443, -0.39444444444444443, -0.39444444444444443, -0.39444444444444443, -0.39444444444444443, -0.39444444444444443, -0.39444444444444443, -0.39444444444444443]"	"[1, 1, 1, 1, 1, 1, 1, 1, 1, 1, 1, 1, 1, 1, 1, 1, 1, 1, 1, 1, 1, 1, 1, 1, 1, 1, 1, 1, 1, 1, 1, 1, 1, 1, 1, 1, 1, 1, 1, 1, 1, 1, 1, 1, 1, 0]"	"[0, 0, 0, 0, 0, 0, 0, 0, 0, 0, 0, 0, 0, 0, 0, 0, 0, 0, 0, 0, 0, 0, 0, 0, 0, 0, 0, 0, 0, 0, 0, 0, 0, 0, 0, 0, 0, 0, 0, 0, 0, 0, 0, 0, 0, 0]"	"[0, 0, 0, 0, 0, 0, 0, 0, 0, 0, 0, 0, 0, 0, 0, 0, 0, 0, 0, 0, 0, 0, 0, 0, 0, 0, 0, 0, 0, 0, 0, 0, 0, 0, 0, 0, 0, 0, 0, 0, 0, 0, 0, 0, 0, 1]"	"[0.8422415999229997, 1.3005629000253975, 1.5587410000152886, 1.7921291999518871, 2.0255973000312224, 2.2339565999573097, 2.4673060999484733, 2.758835899992846, 2.9921826999634504, 3.217900099931285, 3.425697600003332, 3.6673832000233233, 3.90058539994061, 4.175662499968894, 4.425839100033045, 4.667608299991116, 4.892571200034581, 5.13408150000032, 5.38402929995209, 5.625837299972773, 5.8675451999297366, 6.0926551999291405, 6.334094799938612, 6.592478899983689, 6.800952299963683, 6.994046499952674, 7.150804799981415, 7.325865300022997, 7.967530100024305, 8.159202500013635, 8.451067699934356, 8.659430400002748, 8.867751799989492, 9.334288400015794, 9.576008099946193, 9.759395599947311, 10.05116279993672, 10.59272770001553, 10.792724199942313, 10.95944469992537, 11.20112360001076, 12.251240900019184, 12.459712799987756, 12.626327099977061, 12.801320799975656, 13.367905399994925]"	46	"[0.8403929000487551, 1.298707399982959, 1.5568857999751344, 1.7902723000152037, 2.023742499994114, 2.2320976000046358, 2.4654538000468165, 2.7569795000599697, 2.9903250000206754, 3.216211699997075, 3.4238418999593705, 3.665529499994591, 3.8987316000275314, 4.173807000042871, 4.424001800012775, 4.665754899964668, 4.890714599983767, 5.132221300038509, 5.382175000035204, 5.62397980003152, 5.865688699996099, 6.090801100013778, 6.332240000017919, 6.590621100040153, 6.799099100055173, 6.9923606000375, 7.148944700020365, 7.32400849997066, 7.965678000007756, 8.157345399959013, 8.449213500018232, 8.65757499996107, 8.865910500055179, 9.332432899973355, 9.574151000007987, 9.757544300053269, 10.049306600005366, 10.582658000057563, 10.790864299982786, 10.957587599987164, 11.199269499978982, 12.2493849999737, 12.457860099966638, 12.624470900045708, 12.799468799959868, 13.365989099955186]"	"[0.9733578000450507, 1.4067835999885574, 1.656745700049214, 1.9067632999503985, 2.106794400024228, 2.3401625000406057, 2.5986605000216514, 2.8651497999671847, 3.098534499993548, 3.298567699966952, 3.531883600051515, 3.7818983000470325, 4.048579900059849, 4.29026270005852, 4.556979099987075, 4.782001900020987, 4.998656700015999, 5.231998100061901, 5.490452200057916, 5.749344100011513, 5.97380170004908, 6.19875320000574, 6.440410800045356, 6.682109500048682, 6.882195999962278, 7.048785499995574, 7.198828499997035, 7.373883899999782, 8.023873400059529, 8.20720139995683, 8.532287299982272, 8.748892699950375, 8.957285900018178, 9.448988800053485, 9.657363599981181, 9.857375400024466, 10.174007900059223, 10.699196800007485, 10.874088800046593, 11.057434899965301, 11.282474300009198, 12.365824199980125, 12.532533599995077, 12.699188800062984, 12.907587100053206, 13.365993199986406]"	267.21616389998235	267.2215125999646	268.7135016999673	268.7216138000367								26	01	2024-02-16_15h07.41.012	BART_exp	2023.2.3	119.97787613465455	2024-02-16 15h07.49.916421 +0100	
balloon.png	1	0	22	22	0	268.7216138000367													268.71368140005507	268.7216138000367	268.7216138000367	268.7216138000367	268.7216138000367	268.7216138000367	0.0055136000737547874	0.0055136000737547874	0.0055136000737547874	268.7216138000367	270.09870209998917	2	0.05	True	"[0.023148148148148147, 0.023148148148148147]"	"[-0.39444444444444443, -0.39444444444444443]"	"[1, 1]"	"[0, 0]"	"[0, 0]"	"[0.8671319999266416, 1.2337868999456987]"	2	"[0.8652724999701604, 1.2319209999404848]"	"[1.023248599958606, 1.3732629999285564]"	270.09929259994533	270.1050105999457	271.596963900025	271.6134829999646								26	01	2024-02-16_15h07.41.012	BART_exp	2023.2.3	119.97787613465455	2024-02-16 15h07.49.916421 +0100	
balloon.png	23	0	23	23	5	271.6134829999646													271.59714329999406	271.6134829999646	271.6134829999646	271.6134829999646	271.6134829999646	271.6134829999646	-0.0008674000855535269	-0.0008674000855535269	-0.0008674000855535269	271.6134829999646	278.8656302000163	22	1.10	False	"[0.025, 0.025, 0.025, 0.025, 0.025, 0.025, 0.025, 0.025, 0.025, 0.025, 0.025, 0.025, 0.025, 0.025, 0.025, 0.025, 0.025, 0.025, 0.025, 0.025, 0.025, 0.025, 0.025]"	"[-0.3972222222222222, -0.3972222222222222, -0.3972222222222222, -0.3972222222222222, -0.3972222222222222, -0.3972222222222222, -0.3972222222222222, -0.3972222222222222, -0.3972222222222222, -0.3972222222222222, -0.3972222222222222, -0.3972222222222222, -0.3972222222222222, -0.3972222222222222, -0.3972222222222222, -0.3972222222222222, -0.3972222222222222, -0.3972222222222222, -0.3972222222222222, -0.3972222222222222, -0.3972222222222222, -0.3972222222222222, -0.3972222222222222]"	"[1, 1, 1, 1, 1, 1, 1, 1, 1, 1, 1, 1, 1, 1, 1, 1, 1, 1, 1, 1, 1, 1, 0]"	"[0, 0, 0, 0, 0, 0, 0, 0, 0, 0, 0, 0, 0, 0, 0, 0, 0, 0, 0, 0, 0, 0, 0]"	"[0, 0, 0, 0, 0, 0, 0, 0, 0, 0, 0, 0, 0, 0, 0, 0, 0, 0, 0, 0, 0, 0, 1]"	"[0.7088536999654025, 1.059030200005509, 1.3255690999794751, 1.542114399955608, 1.7671089000068605, 2.20046129997354, 2.4255192999262363, 2.8171665999107063, 3.017276500002481, 3.2172345999861136, 3.44220900000073, 3.6423492999747396, 4.0590949999168515, 4.300806099898182, 4.734133699908853, 4.967307599959895, 5.20064299996011, 5.4256671000039205, 5.659221599926241, 5.934052299940959, 6.1507388999452814, 6.867653299937956, 7.267598899896257]"	23	"[0.6990580999990925, 1.0492299000034109, 1.3157645999453962, 1.5323079000227153, 1.7573115000268444, 2.190656700055115, 2.415716400020756, 2.807377199991606, 3.0074716999661177, 3.2074300999520347, 3.424200000008568, 3.6325434000464156, 4.04929270001594, 4.291002599988133, 4.7243349000345916, 4.957500700023957, 5.190838300040923, 5.4158625999698415, 5.649418400018476, 5.924245500005782, 6.140934200026095, 6.857847300008871, 7.257729599950835]"	"[0.8153927000239491, 1.173778000054881, 1.3821111000142992, 1.5821754999924451, 1.807162299985066, 2.2738290999550372, 2.4988959999755025, 2.898865700000897, 3.082245499943383, 3.265567100024782, 3.507281400030479, 3.7072550000157207, 4.1573148999596015, 4.365793399978429, 4.8240299000171944, 5.0656789999920875, 5.274060699972324, 5.5157208000309765, 5.782406199956313, 6.032443500007503, 6.249118400039151, 6.974333700025454, 7.2577336999820545]"	278.8665987000568	278.8723587000277	280.36426820000634	280.3807383000385								26	01	2024-02-16_15h07.41.012	BART_exp	2023.2.3	119.97787613465455	2024-02-16 15h07.49.916421 +0100	
balloon.png	66	0	24	24	15	280.3807383000385													280.3644470999716	280.3807383000385	280.3807383000385	280.3807383000385	280.3807383000385	280.3807383000385	-0.0008956000674515963	-0.0008956000674515963	-0.0008956000674515963	280.3807383000385	303.0509285000153	67	3.30	True	"[0.03518518518518519, 0.03518518518518519, 0.03518518518518519, 0.03518518518518519, 0.03518518518518519, 0.03518518518518519, 0.03518518518518519, 0.03518518518518519, 0.03518518518518519, 0.03518518518518519, 0.03518518518518519, 0.03518518518518519, 0.03518518518518519, 0.03518518518518519, 0.03518518518518519, 0.03518518518518519, 0.03518518518518519, 0.03518518518518519, 0.03518518518518519, 0.03518518518518519, 0.03518518518518519, 0.03518518518518519, 0.03518518518518519, 0.03518518518518519, 0.03518518518518519, 0.03518518518518519, 0.03518518518518519, 0.03518518518518519, 0.03518518518518519, 0.03518518518518519, 0.03518518518518519, 0.03518518518518519, 0.03518518518518519, 0.03518518518518519, 0.03518518518518519, 0.03518518518518519, 0.03518518518518519, 0.03518518518518519, 0.03518518518518519, 0.03518518518518519, 0.03518518518518519, 0.03518518518518519, 0.03518518518518519, 0.03518518518518519, 0.03518518518518519, 0.03518518518518519, 0.03518518518518519, 0.03518518518518519, 0.03518518518518519, 0.03518518518518519, 0.03518518518518519, 0.03518518518518519, 0.03518518518518519, 0.03518518518518519, 0.03518518518518519, 0.03518518518518519, 0.03518518518518519, 0.03518518518518519, 0.03518518518518519, 0.03518518518518519, 0.03518518518518519, 0.03518518518518519, 0.03518518518518519, 0.03518518518518519, 0.03518518518518519, 0.03518518518518519, 0.03518518518518519]"	"[-0.39351851851851855, -0.39351851851851855, -0.39351851851851855, -0.39351851851851855, -0.39351851851851855, -0.39351851851851855, -0.39351851851851855, -0.39351851851851855, -0.39351851851851855, -0.39351851851851855, -0.39351851851851855, -0.39351851851851855, -0.39351851851851855, -0.39351851851851855, -0.39351851851851855, -0.39351851851851855, -0.39351851851851855, -0.39351851851851855, -0.39351851851851855, -0.39351851851851855, -0.39351851851851855, -0.39351851851851855, -0.39351851851851855, -0.39351851851851855, -0.39351851851851855, -0.39351851851851855, -0.39351851851851855, -0.39351851851851855, -0.39351851851851855, -0.39351851851851855, -0.39351851851851855, -0.39351851851851855, -0.39351851851851855, -0.39351851851851855, -0.39351851851851855, -0.39351851851851855, -0.39351851851851855, -0.39351851851851855, -0.39351851851851855, -0.39351851851851855, -0.39351851851851855, -0.39351851851851855, -0.39351851851851855, -0.39351851851851855, -0.39351851851851855, -0.39351851851851855, -0.39351851851851855, -0.39351851851851855, -0.39351851851851855, -0.39351851851851855, -0.39351851851851855, -0.39351851851851855, -0.39351851851851855, -0.39351851851851855, -0.39351851851851855, -0.39351851851851855, -0.39351851851851855, -0.39351851851851855, -0.39351851851851855, -0.39351851851851855, -0.39351851851851855, -0.39351851851851855, -0.39351851851851855, -0.39351851851851855, -0.39351851851851855, -0.39351851851851855, -0.39351851851851855]"	"[1, 1, 1, 1, 1, 1, 1, 1, 1, 1, 1, 1, 1, 1, 1, 1, 1, 1, 1, 1, 1, 1, 1, 1, 1, 1, 1, 1, 1, 1, 1, 1, 1, 1, 1, 1, 1, 1, 1, 1, 1, 1, 1, 1, 1, 1, 1, 1, 1, 1, 1, 1, 1, 1, 1, 1, 1, 1, 1, 1, 1, 1, 1, 1, 1, 1, 1]"	"[0, 0, 0, 0, 0, 0, 0, 0, 0, 0, 0, 0, 0, 0, 0, 0, 0, 0, 0, 0, 0, 0, 0, 0, 0, 0, 0, 0, 0, 0, 0, 0, 0, 0, 0, 0, 0, 0, 0, 0, 0, 0, 0, 0, 0, 0, 0, 0, 0, 0, 0, 0, 0, 0, 0, 0, 0, 0, 0, 0, 0, 0, 0, 0, 0, 0, 0]"	"[0, 0, 0, 0, 0, 0, 0, 0, 0, 0, 0, 0, 0, 0, 0, 0, 0, 0, 0, 0, 0, 0, 0, 0, 0, 0, 0, 0, 0, 0, 0, 0, 0, 0, 0, 0, 0, 0, 0, 0, 0, 0, 0, 0, 0, 0, 0, 0, 0, 0, 0, 0, 0, 0, 0, 0, 0, 0, 0, 0, 0, 0, 0, 0, 0, 0, 0]"	"[0.5104133000131696, 0.8086663000285625, 1.06713540002238, 1.542247400037013, 1.8004529000027105, 2.0589169999584556, 2.250436699949205, 2.467316100024618, 2.742269800044596, 2.9934850999852642, 3.2004985000239685, 3.4090410999488086, 3.6089109999593347, 3.792191799962893, 3.9433547999942675, 4.158914100029506, 4.7839742000214756, 4.992278999998234, 6.425746700027958, 6.684268899960443, 6.909271299955435, 7.35078690003138, 7.617467500036582, 8.576040599960834, 8.901125299977139, 9.14274589996785, 9.375929999980144, 9.642729199957103, 9.834414500044659, 10.084487200016156, 10.567660799948499, 10.792708600056358, 11.026163000031374, 11.284538300009444, 11.567736699944362, 12.45138510002289, 12.69307509995997, 13.318020400009118, 13.626330099999905, 14.018005999969319, 14.484764500055462, 14.93480930000078, 15.226454899995588, 15.551363499951549, 15.843287899973802, 16.24322820000816, 16.659949699998833, 16.94313459994737, 17.209806700004265, 17.48500009998679, 17.726554400054738, 18.12669459998142, 18.40991569997277, 18.82671010005288, 19.534983200021088, 19.81831979996059, 20.043503700057045, 20.23514690005686, 20.44354350003414, 20.626902800053358, 20.81018569995649, 21.276870799949393, 21.518598700058647, 21.81865240004845, 22.051966900005937, 22.285317500005476, 22.56017830001656]"	67	"[0.5077516000019386, 0.8058319999836385, 1.0643022999865934, 1.5394098999677226, 1.7976129000307992, 2.0560781999956816, 2.2475995999993756, 2.464486000011675, 2.7394353999989107, 2.990815300028771, 3.1976682000095025, 3.4062029999913648, 3.6060723999980837, 3.7893525999970734, 3.9406903999624774, 4.15608660003636, 4.7811356000602245, 4.989443500060588, 6.422910699970089, 6.681430399999954, 6.906439500045963, 7.347947200061753, 7.614634300000034, 8.573206900036894, 8.898294899961911, 9.139907800010405, 9.37309460004326, 9.639892900013365, 9.831575199961662, 10.08165139995981, 10.564825000008568, 10.789873700006865, 11.02332869998645, 11.28169880004134, 11.564901900012046, 12.448550999979489, 12.6902583000483, 13.315184900071472, 13.623488800018094, 14.015167900011875, 14.481924999970943, 14.931975099956617, 15.223621299955994, 15.54852569999639, 15.840450700023212, 16.240389700047672, 16.657126200036146, 16.940297599998303, 17.206968200043775, 17.482161900028586, 17.723721500020474, 18.123859100043774, 18.40708050003741, 18.823875000001863, 19.532147099962458, 19.815484100021422, 20.040671900031157, 20.232311200001277, 20.440706599969417, 20.624085300019942, 20.80735320004169, 21.27403209998738, 21.515766700031236, 21.815819600014947, 22.049127600039355, 22.282477000029758, 22.557338700047694]"	"[0.6557744999881834, 0.9390840000705793, 1.1556991999968886, 1.6390661000041291, 1.9474253000225872, 2.1390999000286683, 2.3474415000528097, 2.5724622000707313, 2.7891491999616846, 3.105827199993655, 3.330843499978073, 3.4975251000141725, 3.6808829000219703, 3.872568399994634, 4.0475619999924675, 4.2142457000445575, 4.914323800010607, 5.105975199956447, 6.564406599965878, 6.797865199972875, 7.006103100022301, 7.439481899957173, 7.68950900004711, 8.70621640002355, 8.964612400042824, 9.189720400027, 9.431357700028457, 9.698178500053473, 9.931322799995542, 10.181329900049604, 10.67315290006809, 10.914703999995254, 11.139722099993378, 11.423064599977806, 11.656469600042328, 12.58983219997026, 12.848315699957311, 13.464879099978134, 13.78157920006197, 14.164944599964656, 14.63171870005317, 15.048458500066772, 15.340015799971297, 15.656716600060463, 15.956729899975471, 16.356950400047936, 16.756799099966884, 17.065140699967742, 17.3068740000017, 17.615188300027512, 17.87352090002969, 18.256918400060385, 18.50699020002503, 18.906939100008458, 19.63198129995726, 19.915405499981716, 20.157222100067884, 20.340410500066355, 20.540387599961832, 20.715398999978788, 20.890425299992785, 21.382107199984603, 21.640521500026807, 21.940494399983436, 22.140537800034508, 22.38218139996752, 22.673881000024267]"	303.05267580004875	303.0656802000012	304.55749020003714									26	01	2024-02-16_15h07.41.012	BART_exp	2023.2.3	119.97787613465455	2024-02-16 15h07.49.916421 +0100	
balloon.png	10	0	25	25	2	304.57410810003057													304.557674700045	304.57410810003057	304.57410810003057	304.57410810003057	304.57410810003057	304.57410810003057	0.006392400013282895	0.006392400013282895	0.006392400013282895	304.57410810003057	307.3178340999875	11	0.50	True	"[0.002777777777777778, 0.002777777777777778, 0.002777777777777778, 0.002777777777777778, 0.002777777777777778, 0.002777777777777778, 0.002777777777777778, 0.002777777777777778, 0.002777777777777778, 0.002777777777777778, 0.002777777777777778]"	"[-0.3888888888888889, -0.3888888888888889, -0.3888888888888889, -0.3888888888888889, -0.3888888888888889, -0.3888888888888889, -0.3888888888888889, -0.3888888888888889, -0.3888888888888889, -0.3888888888888889, -0.3888888888888889]"	"[1, 1, 1, 1, 1, 1, 1, 1, 1, 1, 1]"	"[0, 0, 0, 0, 0, 0, 0, 0, 0, 0, 0]"	"[0, 0, 0, 0, 0, 0, 0, 0, 0, 0, 0]"	"[0.39213179994840175, 0.6840063999406993, 0.9007117999717593, 1.133988399989903, 1.3173754999879748, 1.600573999923654, 1.8423938999185339, 2.0840401999885216, 2.3092337999260053, 2.4924136999761686, 2.6841042999876663]"	11	"[0.3821575000183657, 0.6740324000129476, 0.8907429000828415, 1.1240145000629127, 1.3073985000373796, 1.5905936000635847, 1.8324148000683635, 2.0740597000112757, 2.2992855000775307, 2.482435500016436, 2.674129900056869]"	"[0.4988021000754088, 0.7903638000134379, 0.9987620000028983, 1.207029000041075, 1.3904236000962555, 1.6987597000552341, 1.9487416000338271, 2.182115500094369, 2.382266700034961, 2.5571297000860795, 2.7405059000011533]"	307.3185660999734	307.32429210003465	308.8162537999451	308.8410813000519								26	01	2024-02-16_15h07.41.012	BART_exp	2023.2.3	119.97787613465455	2024-02-16 15h07.49.916421 +0100	
balloon.png	105	0	26	26	24	308.8410813000519													308.81642599997576	308.8410813000519	308.8410813000519	308.8410813000519	308.8410813000519	308.8410813000519	-0.0008437000215053558	-0.0008437000215053558	-0.0008437000215053558	308.8410813000519	315.01830500003416	20	1.00	False	"[0.002777777777777778, 0.002777777777777778, 0.002777777777777778, 0.002777777777777778, 0.002777777777777778, 0.002777777777777778, 0.002777777777777778, 0.002777777777777778, 0.002777777777777778, 0.002777777777777778, 0.002777777777777778, 0.002777777777777778, 0.002777777777777778, 0.002777777777777778, 0.002777777777777778, 0.002777777777777778, 0.002777777777777778, 0.002777777777777778, 0.002777777777777778, 0.002777777777777778, 0.002777777777777778]"	"[-0.39444444444444443, -0.39444444444444443, -0.39444444444444443, -0.39444444444444443, -0.39444444444444443, -0.39444444444444443, -0.39444444444444443, -0.39444444444444443, -0.39444444444444443, -0.39444444444444443, -0.39444444444444443, -0.39444444444444443, -0.39444444444444443, -0.39444444444444443, -0.39444444444444443, -0.39444444444444443, -0.39444444444444443, -0.39444444444444443, -0.39444444444444443, -0.39444444444444443, -0.39444444444444443]"	"[1, 1, 1, 1, 1, 1, 1, 1, 1, 1, 1, 1, 1, 1, 1, 1, 1, 1, 1, 1, 0]"	"[0, 0, 0, 0, 0, 0, 0, 0, 0, 0, 0, 0, 0, 0, 0, 0, 0, 0, 0, 0, 0]"	"[0, 0, 0, 0, 0, 0, 0, 0, 0, 0, 0, 0, 0, 0, 0, 0, 0, 0, 0, 0, 1]"	"[0.35031779995188117, 0.5838935000356287, 0.7756371999857947, 0.9755092000123113, 1.1838485000189394, 1.3672085999278352, 1.5588522999314591, 1.9420893000205979, 2.175721099949442, 2.4172870999900624, 2.617344700032845, 2.8173025000141934, 3.1171956999460235, 3.367348099942319, 3.5673523999284953, 3.7757044000318274, 4.017376499949023, 4.542285699979402, 4.742312700022012, 5.776082299998961, 6.200951699982397]"	21	"[0.3393407000694424, 0.5729148000245914, 0.7646594000980258, 0.9645285999868065, 1.172871800023131, 1.3562300000339746, 1.5478750000474975, 1.931114500039257, 2.164747500093654, 2.4063075000885874, 2.606365100014955, 2.806321799987927, 3.1062143000308424, 3.3563693000469357, 3.5563775000628084, 3.76472570002079, 4.006396800046787, 4.531307900091633, 4.731340300058946, 5.765108200022951, 6.1899142999900505]"	"[0.46418130001984537, 0.6392005000961944, 0.8558803000487387, 1.0558968000113964, 1.2393656000494957, 1.4225825000321493, 1.6227089000167325, 1.9893441000021994, 2.2491207000566646, 2.4976811000378802, 2.7228122000815347, 2.9393470000941306, 3.2310564999934286, 3.472732500056736, 3.6644120001001284, 3.881193600012921, 4.089442800031975, 4.62281620001886, 4.831188400043175, 5.897947399993427, 6.18991840002127]"	315.0192376000341	315.02483989996836	316.51679969998077	316.5333653000416								26	01	2024-02-16_15h07.41.012	BART_exp	2023.2.3	119.97787613465455	2024-02-16 15h07.49.916421 +0100	
balloon.png	62	0	27	27	14	316.5333653000416													316.516977100051	316.5333653000416	316.5333653000416	316.5333653000416	316.5333653000416	316.5333653000416	-0.0009877999546006322	-0.0009877999546006322	-0.0009877999546006322	316.5333653000416	327.10222470003646	31	1.55	False	"[0.002777777777777778, 0.002777777777777778, 0.002777777777777778, 0.002777777777777778, 0.002777777777777778, 0.002777777777777778, 0.002777777777777778, 0.002777777777777778, 0.002777777777777778, 0.002777777777777778, 0.002777777777777778, 0.002777777777777778, 0.002777777777777778, 0.002777777777777778, 0.002777777777777778, 0.002777777777777778, 0.002777777777777778, 0.002777777777777778, 0.002777777777777778, 0.002777777777777778, 0.002777777777777778, 0.002777777777777778, 0.002777777777777778, 0.002777777777777778, 0.002777777777777778, 0.002777777777777778, 0.002777777777777778, 0.002777777777777778, 0.002777777777777778, 0.002777777777777778, 0.002777777777777778, 0.002777777777777778]"	"[-0.39444444444444443, -0.39444444444444443, -0.39444444444444443, -0.39444444444444443, -0.39444444444444443, -0.39444444444444443, -0.39444444444444443, -0.39444444444444443, -0.39444444444444443, -0.39444444444444443, -0.39444444444444443, -0.39444444444444443, -0.39444444444444443, -0.39444444444444443, -0.39444444444444443, -0.39444444444444443, -0.39444444444444443, -0.39444444444444443, -0.39444444444444443, -0.39444444444444443, -0.39444444444444443, -0.39444444444444443, -0.39444444444444443, -0.39444444444444443, -0.39444444444444443, -0.39444444444444443, -0.39444444444444443, -0.39444444444444443, -0.39444444444444443, -0.39444444444444443, -0.39444444444444443, -0.39444444444444443]"	"[1, 1, 1, 1, 1, 1, 1, 1, 1, 1, 1, 1, 1, 1, 1, 1, 1, 1, 1, 1, 1, 1, 1, 1, 1, 1, 1, 1, 1, 1, 1, 0]"	"[0, 0, 0, 0, 0, 0, 0, 0, 0, 0, 0, 0, 0, 0, 0, 0, 0, 0, 0, 0, 0, 0, 0, 0, 0, 0, 0, 0, 0, 0, 0, 0]"	"[0, 0, 0, 0, 0, 0, 0, 0, 0, 0, 0, 0, 0, 0, 0, 0, 0, 0, 0, 0, 0, 0, 0, 0, 0, 0, 0, 0, 0, 0, 0, 1]"	"[0.7088664000621065, 1.0338890000712126, 1.3088386000599712, 1.5338725000619888, 1.8255801000632346, 2.083894900046289, 2.3089080000063404, 2.5339384000981227, 2.7587805000366643, 3.108990600099787, 3.5006539000896737, 4.067436800105497, 4.375574300065637, 4.675779500044882, 5.142315300065093, 5.592329100007191, 5.867543500033207, 6.159033400006592, 6.392386300023645, 6.642581199994311, 6.909357900032774, 7.2342362001072615, 7.417461600038223, 7.609124000067823, 8.00917160010431, 8.509355699992739, 8.709378500003368, 8.934226000099443, 9.167662300053053, 9.42591650004033, 9.734295600093901, 10.58433100010734]"	32	"[0.6984561999561265, 1.02346789999865, 1.2984165999805555, 1.5234481999650598, 1.8151593999937177, 2.0734771999996156, 2.298490699962713, 2.5235201999312267, 2.748361299978569, 3.0985693999100477, 3.490233299904503, 4.057017399929464, 4.365152399986982, 4.66536189999897, 5.131893099984154, 5.581908399937674, 5.857122599962167, 6.148609199910425, 6.381965499953367, 6.632164299953729, 6.898947299923748, 7.223821699968539, 7.407042599981651, 7.598705499898642, 7.998753799940459, 8.498938599950634, 8.698956599924713, 8.923808399937116, 9.157246299902909, 9.415495199966244, 9.723873899900354, 10.573846599902026]"	"[0.8065086998976767, 1.114858299959451, 1.3981616999953985, 1.631481199990958, 1.9232020999770612, 2.164877299917862, 2.389879799913615, 2.631545199896209, 2.856568899936974, 3.2649363999953493, 3.606608499889262, 4.231681799981743, 4.490011199959554, 4.798348899930716, 5.240072199958377, 5.731762899900787, 5.990243399981409, 6.2401754999300465, 6.506809099926613, 6.715176999918185, 6.965180899947882, 7.273566499934532, 7.4661963999969885, 7.656991899944842, 8.056961299967952, 8.573697699932382, 8.79865529993549, 9.007044899975881, 9.248711099964567, 9.490371199906804, 9.832042899914086, 10.573850799934007]"	327.1035074000247	327.1090168999508	328.60102269996423	328.6091223000549								26	01	2024-02-16_15h07.41.012	BART_exp	2023.2.3	119.97787613465455	2024-02-16 15h07.49.916421 +0100	
balloon.png	79	0	28	28	18	328.6091223000549													328.60121330001857	328.6091223000549	328.6091223000549	328.6091223000549	328.6091223000549	328.6091223000549	0.00568060006480664	0.00568060006480664	0.00568060006480664	328.6091223000549	345.0368236999493	52	2.60	False	"[0.011111111111111112, 0.011111111111111112, 0.011111111111111112, 0.011111111111111112, 0.011111111111111112, 0.011111111111111112, 0.011111111111111112, 0.011111111111111112, 0.011111111111111112, 0.011111111111111112, 0.011111111111111112, 0.011111111111111112, 0.011111111111111112, 0.011111111111111112, 0.011111111111111112, 0.011111111111111112, 0.011111111111111112, 0.011111111111111112, 0.011111111111111112, 0.011111111111111112, 0.011111111111111112, 0.011111111111111112, 0.011111111111111112, 0.011111111111111112, 0.011111111111111112, 0.011111111111111112, 0.011111111111111112, 0.011111111111111112, 0.011111111111111112, 0.011111111111111112, 0.011111111111111112, 0.011111111111111112, 0.011111111111111112, 0.011111111111111112, 0.011111111111111112, 0.011111111111111112, 0.011111111111111112, 0.011111111111111112, 0.011111111111111112, 0.011111111111111112, 0.011111111111111112, 0.011111111111111112, 0.011111111111111112, 0.011111111111111112, 0.011111111111111112, 0.011111111111111112, 0.011111111111111112, 0.011111111111111112, 0.011111111111111112, 0.011111111111111112, 0.011111111111111112, 0.011111111111111112, 0.011111111111111112]"	"[-0.3907407407407407, -0.3907407407407407, -0.3907407407407407, -0.3907407407407407, -0.3907407407407407, -0.3907407407407407, -0.3907407407407407, -0.3907407407407407, -0.3907407407407407, -0.3907407407407407, -0.3907407407407407, -0.3907407407407407, -0.3907407407407407, -0.3907407407407407, -0.3907407407407407, -0.3907407407407407, -0.3907407407407407, -0.3907407407407407, -0.3907407407407407, -0.3907407407407407, -0.3907407407407407, -0.3907407407407407, -0.3907407407407407, -0.3907407407407407, -0.3907407407407407, -0.3907407407407407, -0.3907407407407407, -0.3907407407407407, -0.3907407407407407, -0.3907407407407407, -0.3907407407407407, -0.3907407407407407, -0.3907407407407407, -0.3907407407407407, -0.3907407407407407, -0.3907407407407407, -0.3907407407407407, -0.3907407407407407, -0.3907407407407407, -0.3907407407407407, -0.3907407407407407, -0.3907407407407407, -0.3907407407407407, -0.3907407407407407, -0.3907407407407407, -0.3907407407407407, -0.3907407407407407, -0.3907407407407407, -0.3907407407407407, -0.3907407407407407, -0.3907407407407407, -0.3907407407407407, -0.3907407407407407]"	"[1, 1, 1, 1, 1, 1, 1, 1, 1, 1, 1, 1, 1, 1, 1, 1, 1, 1, 1, 1, 1, 1, 1, 1, 1, 1, 1, 1, 1, 1, 1, 1, 1, 1, 1, 1, 1, 1, 1, 1, 1, 1, 1, 1, 1, 1, 1, 1, 1, 1, 1, 1, 0]"	"[0, 0, 0, 0, 0, 0, 0, 0, 0, 0, 0, 0, 0, 0, 0, 0, 0, 0, 0, 0, 0, 0, 0, 0, 0, 0, 0, 0, 0, 0, 0, 0, 0, 0, 0, 0, 0, 0, 0, 0, 0, 0, 0, 0, 0, 0, 0, 0, 0, 0, 0, 0, 0]"	"[0, 0, 0, 0, 0, 0, 0, 0, 0, 0, 0, 0, 0, 0, 0, 0, 0, 0, 0, 0, 0, 0, 0, 0, 0, 0, 0, 0, 0, 0, 0, 0, 0, 0, 0, 0, 0, 0, 0, 0, 0, 0, 0, 0, 0, 0, 0, 0, 0, 0, 0, 0, 1]"	"[0.7336343999486417, 0.942159799975343, 1.1671347999945283, 1.392233100021258, 1.675397599930875, 1.9505957999499515, 2.283873699954711, 2.7339027000125498, 3.0671294999774545, 3.3673886000178754, 3.6673269999446347, 3.9255141000030562, 4.3257028999505565, 4.559102299972437, 4.842398299952038, 5.150765499914996, 5.475832599913701, 5.834005399956368, 6.0924024999840185, 6.550892999977805, 6.9925603999290615, 7.342655399930663, 7.525954499957152, 7.750932800001465, 7.967738599982113, 8.217664900003001, 8.54266389994882, 8.95107690000441, 9.384459399967454, 9.717694999999367, 10.042613399913535, 10.834388599963859, 11.176249700016342, 11.39292559993919, 11.801287799957208, 11.992970499908552, 12.192912800004706, 12.409687399980612, 12.809719600016251, 13.051155299996026, 13.276168399956077, 13.476184899918735, 13.667881099972874, 13.859540099976584, 14.060906699975021, 14.242915699956939, 14.451252599945292, 14.626285000005737, 14.918131500016898, 15.226330599980429, 15.451401199912652, 15.684749600011855, 16.43472549994476]"	52	"[0.731743499985896, 0.94027219992131, 1.1652487999526784, 1.3903400999261066, 1.6735070999711752, 1.9487069000024348, 2.28198450000491, 2.732014499953948, 3.0652554999105632, 3.365520099992864, 3.6654345999704674, 4.323815200012177, 4.557215299922973, 4.840511999907903, 5.148873799946159, 5.473941799951717, 5.832118000020273, 6.090513599920087, 6.54900939995423, 6.990674100001343, 7.340774899930693, 7.52406039997004, 7.749044899945147, 7.965847000014037, 8.215775699936785, 8.540778699913062, 8.949187899939716, 9.382568200002424, 9.715804899926297, 10.040726599982008, 10.83250609994866, 11.174359199940227, 11.39103990001604, 11.799401099910028, 11.991080699954182, 12.191023099934682, 12.40779849991668, 12.807832299964502, 13.049260100000538, 13.274275599978864, 13.474293199949898, 13.665997099946253, 13.8576502999058, 14.059181699994951, 14.241020699962974, 14.449364300002344, 14.624394799931906, 14.916242999956012, 15.22444189991802, 15.449506299919449, 15.682863299967721, 16.432772399974056]"	"[0.8149130999809131, 1.0149607999483123, 1.2568049000110477, 1.5067192999413237, 1.7650014999089763, 2.0651416999753565, 2.390065399929881, 2.84842029993888, 3.181770999915898, 3.465152299962938, 4.065171499969438, 4.431837199954316, 4.656901499954984, 4.907033299910836, 5.256918899947777, 5.615340499905869, 5.9402678000042215, 6.165311699965969, 6.6069920000154525, 7.0820210999809206, 7.3821518999757245, 7.61564939992968, 7.8405862000072375, 8.048946399940178, 8.323913499945775, 8.6655273999786, 9.090505099971779, 9.5072054999182, 9.840572899905965, 10.148964199936017, 10.965638299938291, 11.265661699930206, 11.457347300020047, 11.890685399994254, 12.090884299948812, 12.290725099970587, 12.499369299970567, 12.916050600004382, 13.132475099992007, 13.349167499924079, 13.557479099952616, 13.749164299922995, 13.93250180000905, 14.140872000018135, 14.341846099938266, 14.532591699971817, 14.724306899937801, 15.007622399949469, 15.307625799905509, 15.55762859992683, 15.766090199933387, 16.432776700006798]"	345.0384140999522	345.0436123999534	346.53560970001854	346.54375309997704								26	01	2024-02-16_15h07.41.012	BART_exp	2023.2.3	119.97787613465455	2024-02-16 15h07.49.916421 +0100	
balloon.png	49	0	29	29	11	346.54375309997704													346.5357879999792	346.54375309997704	346.54375309997704	346.54375309997704	346.54375309997704	346.54375309997704	0.005401499918662012	0.005401499918662012	0.005401499918662012	346.54375309997704	355.49604989995714	31	1.55	False	"[0.011111111111111112, 0.011111111111111112, 0.011111111111111112, 0.011111111111111112, 0.011111111111111112, 0.011111111111111112, 0.011111111111111112, 0.011111111111111112, 0.011111111111111112, 0.011111111111111112, 0.011111111111111112, 0.011111111111111112, 0.011111111111111112, 0.011111111111111112, 0.011111111111111112, 0.011111111111111112, 0.011111111111111112, 0.011111111111111112, 0.011111111111111112, 0.011111111111111112, 0.011111111111111112, 0.011111111111111112, 0.011111111111111112, 0.011111111111111112, 0.011111111111111112, 0.011111111111111112, 0.011111111111111112, 0.011111111111111112, 0.011111111111111112, 0.011111111111111112, 0.011111111111111112, 0.011111111111111112]"	"[-0.3907407407407407, -0.3907407407407407, -0.3907407407407407, -0.3907407407407407, -0.3907407407407407, -0.3907407407407407, -0.3907407407407407, -0.3907407407407407, -0.3907407407407407, -0.3907407407407407, -0.3907407407407407, -0.3907407407407407, -0.3907407407407407, -0.3907407407407407, -0.3907407407407407, -0.3907407407407407, -0.3907407407407407, -0.3907407407407407, -0.3907407407407407, -0.3907407407407407, -0.3907407407407407, -0.3907407407407407, -0.3907407407407407, -0.3907407407407407, -0.3907407407407407, -0.3907407407407407, -0.3907407407407407, -0.3907407407407407, -0.3907407407407407, -0.3907407407407407, -0.3907407407407407, -0.3907407407407407]"	"[1, 1, 1, 1, 1, 1, 1, 1, 1, 1, 1, 1, 1, 1, 1, 1, 1, 1, 1, 1, 1, 1, 1, 1, 1, 1, 1, 1, 1, 1, 1, 0]"	"[0, 0, 0, 0, 0, 0, 0, 0, 0, 0, 0, 0, 0, 0, 0, 0, 0, 0, 0, 0, 0, 0, 0, 0, 0, 0, 0, 0, 0, 0, 0, 0]"	"[0, 0, 0, 0, 0, 0, 0, 0, 0, 0, 0, 0, 0, 0, 0, 0, 0, 0, 0, 0, 0, 0, 0, 0, 0, 0, 0, 0, 0, 0, 0, 1]"	"[0.5003728999290615, 0.8337726999307051, 1.2004464999772608, 1.51700280001387, 1.8006024999776855, 2.008875999948941, 2.2672070999396965, 2.4672122999327257, 2.667263100040145, 2.8754714999813586, 3.1171433000126854, 3.350456799962558, 3.5839739999501035, 3.8339936999836937, 4.067368999938481, 4.300534100038931, 4.500548699987121, 4.700559600023553, 4.925771999987774, 5.142239999957383, 5.375750000006519, 5.617441499955021, 5.917386399931274, 6.159124199999496, 6.417495799949393, 6.709029100020416, 6.9925522999837995, 7.234219099977054, 7.567560600000434, 8.034286099951714, 8.342468100017868, 8.959325099946]"	32	"[0.49851209996268153, 0.8319106999551877, 1.1985781999537721, 1.5151380999013782, 1.79874099988956, 2.0070089999353513, 2.2653391999192536, 2.4653510999633, 2.6654015999520198, 2.873606799985282, 3.1152753999922425, 3.3485922999680042, 3.5821122999768704, 3.832132599898614, 4.065501899924129, 4.298670599935576, 4.498685300000943, 4.698698899941519, 4.923911599908024, 5.140375699964352, 5.373881199979223, 5.615580099984072, 5.91552049992606, 6.157262499909848, 6.415626899921335, 6.707162999897264, 6.990687699988484, 7.232357299886644, 7.565704199951142, 8.032426999998279, 8.340607699938118, 8.957395399920642]"	"[0.5984735999954864, 0.9732992999488488, 1.3149886999744922, 1.623341399943456, 1.8567281999858096, 2.0900271999416873, 2.331755599938333, 2.5400960999540985, 2.7484505999600515, 2.948420599917881, 3.2150980998994783, 3.4567994999233633, 3.706836099969223, 3.9402007999597117, 4.181844199891202, 4.37351789989043, 4.5985270999372005, 4.790218299953267, 4.998592199990526, 5.215251299901865, 5.448591999942437, 5.715385599993169, 6.006962999934331, 6.26531339995563, 6.523679499980062, 6.815347299911082, 7.098696599947289, 7.348778699990362, 7.673748799948953, 8.148766899947077, 8.448813599999994, 8.957399599952623]"	355.4973313000519	355.50267539999913	356.9946982000256	357.0028038000455								26	01	2024-02-16_15h07.41.012	BART_exp	2023.2.3	119.97787613465455	2024-02-16 15h07.49.916421 +0100	
																																														356.9947326000547	357.0028038000455	357.0028038000455	368.11233679996803	space	11.107792499940842	None	26	01	2024-02-16_15h07.41.012	BART_exp	2023.2.3	119.97787613465455	2024-02-16 15h07.49.916421 +0100	
