image	max_pumps	pump_loop.thisRepN	pump_loop.thisTrialN	pump_loop.thisN	pump_loop.thisIndex	thisRow.t	notes	Start.started	text_start.started	continue_start.started	mouse_start.started	Start.stopped	mouse_start.x	mouse_start.y	mouse_start.leftButton	mouse_start.midButton	mouse_start.rightButton	mouse_start.time	trials.started	stim_balloon.started	stim_balloon_burst.started	stim_balloon_burst.stopped	text_ballon_value.started	text_bank.started	mouse.started	sound_bang.started	sound_bang.stopped	button_balloon.started	trials.stopped	n_pumps	earnings	popped	mouse.x	mouse.y	mouse.leftButton	mouse.midButton	mouse.rightButton	mouse.time	button_balloon.numClicks	button_balloon.timesOn	button_balloon.timesOff	Feedback.started	text_feedback.started	Feedback.stopped	text_feedback.stopped	End.started	text_end.started	key_end.started	End.stopped	key_end.keys	key_end.rt	key_end.duration	participant	session	date	expName	psychopyVersion	frameRate	expStart	
								0.001218300000346062	0.0074891000003844965	0.0074891000003844965	0.0015179000001808163	51.47878120000041	[0.6981481481481482]	[-0.39537037037037037]	[1]	[0]	[0]	[51.47645509999984]																																			30	02	2024-02-21_09h19.18.952	BART_exp	2023.2.3	122.11801484930795	2024-02-21 09h19.29.936713 +0100	
balloon.png	105	0	0	0	24	51.54415640000025													51.486450100000184	51.54415640000025	51.54415640000025	51.54415640000025	51.54415640000025	51.54415640000025	0.009465199999795004	0.009465199999795004	0.009465199999795004	51.54415640000025	56.588494600000104	5	0.25	False	"[0.012037037037037037, 0.012037037037037037, 0.012037037037037037, 0.012037037037037037, 0.012037037037037037, 0.012037037037037037]"	"[-0.39166666666666666, -0.39166666666666666, -0.39166666666666666, -0.39166666666666666, -0.39166666666666666, -0.39166666666666666]"	"[1, 1, 1, 1, 1, 0]"	"[0, 0, 0, 0, 0, 0]"	"[0, 0, 0, 0, 0, 1]"	"[1.992059799999879, 3.0339429000000564, 3.551992700000028, 3.8757368999999926, 4.36733490000006, 5.1009524999999485]"	6	"[1.9404586000000563, 2.9823394000000008, 3.5003952000001846, 3.8241501000002245, 4.315729400000237, 5.0493060000003425]"	"[2.098776000000271, 3.123703900000237, 3.657129200000327, 3.9655611000002864, 4.490563300000304, 5.049310600000354]"	56.58966420000024	56.599489800000356	58.095050000000356									30	02	2024-02-21_09h19.18.952	BART_exp	2023.2.3	122.11801484930795	2024-02-21 09h19.29.936713 +0100	
balloon.png	14	0	1	1	3	58.103600500000084													58.09526440000036	58.103600500000084	58.103600500000084	58.103600500000084	58.103600500000084	58.103600500000084	0.006988999999975931	0.006988999999975931	0.006988999999975931	58.103600500000084	59.68869730000006	5	0.25	False	"[0.012037037037037037, 0.012037037037037037, 0.012037037037037037, 0.012037037037037037, 0.012037037037037037, 0.012037037037037037]"	"[-0.39166666666666666, -0.39166666666666666, -0.39166666666666666, -0.39166666666666666, -0.39166666666666666, -0.39166666666666666]"	"[1, 1, 1, 1, 1, 0]"	"[0, 0, 0, 0, 0, 0]"	"[0, 0, 0, 0, 0, 1]"	"[0.40027469999995446, 0.6258983000002445, 0.8426709000000301, 1.0761136000000988, 1.2838980000001357, 1.5922641000001931]"	6	"[0.39716390000012325, 0.622811300000194, 0.8395880000002762, 1.0730607000000418, 1.2807842000001983, 1.5891002000003027]"	"[0.5224928000002365, 0.7637659000001804, 0.9804231000002801, 1.2061088000000382, 1.413819599999897, 1.5891049000001658]"	59.689417100000355	59.694944000000305	61.18924270000025	61.20330110000032								30	02	2024-02-21_09h19.18.952	BART_exp	2023.2.3	122.11801484930795	2024-02-21 09h19.29.936713 +0100	
balloon.png	23	0	2	2	5	61.20330110000032													61.189803700000084	61.20330110000032	61.20330110000032	61.20330110000032	61.20330110000032	61.20330110000032	0.001963799999884941	0.001963799999884941	0.001963799999884941	61.20330110000032	62.93869490000043	7	0.35	False	"[0.012037037037037037, 0.012037037037037037, 0.011111111111111112, 0.011111111111111112, 0.011111111111111112, 0.011111111111111112, 0.011111111111111112, 0.011111111111111112]"	"[-0.39166666666666666, -0.39166666666666666, -0.39166666666666666, -0.39166666666666666, -0.39166666666666666, -0.39166666666666666, -0.39166666666666666, -0.39166666666666666]"	"[1, 1, 1, 1, 1, 1, 1, 0]"	"[0, 0, 0, 0, 0, 0, 0, 0]"	"[0, 0, 0, 0, 0, 0, 0, 1]"	"[0.3310663000002023, 0.5394067000001996, 0.7392347999998492, 0.9392747000001691, 1.1410783999999694, 1.3310581000000639, 1.4976305000000139, 1.7477340000000368]"	8	"[0.3227705999997852, 0.5310983999997916, 0.7309174999995776, 0.9309537999997701, 1.13277029999972, 1.3227468999998564, 1.4893116999996892, 1.7393521999997574]"	"[0.4224147999998422, 0.6641492999997354, 0.8724060999998073, 1.0475289999999404, 1.2475234999997156, 1.4475321999998414, 1.6475951999996141, 1.7393562999995993]"	62.93949810000004	62.94512410000016	64.43740740000021	64.45344950000026								30	02	2024-02-21_09h19.18.952	BART_exp	2023.2.3	122.11801484930795	2024-02-21 09h19.29.936713 +0100	
balloon.png	127	0	3	3	29	64.45344950000026													64.43762250000009	64.45344950000026	64.45344950000026	64.45344950000026	64.45344950000026	64.45344950000026	-0.000426400000378635	-0.000426400000378635	-0.000426400000378635	64.45344950000026	65.73903070000006	4	0.20	False	"[0.011111111111111112, 0.011111111111111112, 0.011111111111111112, 0.011111111111111112, 0.011111111111111112]"	"[-0.39166666666666666, -0.39166666666666666, -0.39166666666666666, -0.39166666666666666, -0.39166666666666666]"	"[1, 1, 1, 1, 0]"	"[0, 0, 0, 0, 0]"	"[0, 0, 0, 0, 1]"	"[0.29192890000012994, 0.55026480000015, 0.7669049000000996, 0.9502769000000626, 1.3003028000002814]"	5	"[0.2818904000000657, 0.5402093000002424, 0.7568446000000222, 0.9402079999999842, 1.2901778000000377]"	"[0.4565866000002643, 0.6482644000002438, 0.8483098000001519, 1.0399185999999645, 1.2901823000001968]"	65.73977410000043	65.74529640000037	67.23762780000015	67.25341270000035								30	02	2024-02-21_09h19.18.952	BART_exp	2023.2.3	122.11801484930795	2024-02-21 09h19.29.936713 +0100	
balloon.png	36	0	4	4	8	67.25341270000035													67.23784140000043	67.25341270000035	67.25341270000035	67.25341270000035	67.25341270000035	67.25341270000035	-0.0004621999996743398	-0.0004621999996743398	-0.0004621999996743398	67.25341270000035	68.48108980000006	4	0.20	False	"[0.011111111111111112, 0.011111111111111112, 0.011111111111111112, 0.011111111111111112, 0.011111111111111112]"	"[-0.39166666666666666, -0.39166666666666666, -0.39166666666666666, -0.39166666666666666, -0.39166666666666666]"	"[1, 1, 1, 1, 0]"	"[0, 0, 0, 0, 0]"	"[0, 0, 0, 0, 1]"	"[0.3335124000000178, 0.5589071999997941, 0.7756159999998999, 0.9590446000001975, 1.242058100000122]"	5	"[0.323089600000003, 0.5484802000000855, 0.7651951000002555, 0.9486431000000266, 1.2315782000000581]"	"[0.4394154999999955, 0.6561782000003404, 0.8561403000003338, 1.0817853000003197, 1.231583000000228]"	68.48177150000038	68.48718560000043	69.98173570000017	69.9933817000001								30	02	2024-02-21_09h19.18.952	BART_exp	2023.2.3	122.11801484930795	2024-02-21 09h19.29.936713 +0100	
balloon.png	62	0	5	5	14	69.9933817000001													69.98201170000038	69.9933817000001	69.9933817000001	69.9933817000001	69.9933817000001	69.9933817000001	0.001875700000255165	0.001875700000255165	0.001875700000255165	69.9933817000001	71.32269470000028	5	0.25	False	"[0.011111111111111112, 0.011111111111111112, 0.011111111111111112, 0.011111111111111112, 0.011111111111111112, 0.011111111111111112]"	"[-0.39166666666666666, -0.39166666666666666, -0.39166666666666666, -0.39166666666666666, -0.39166666666666666, -0.39166666666666666]"	"[1, 1, 1, 1, 1, 0]"	"[0, 0, 0, 0, 0, 0]"	"[0, 0, 0, 0, 0, 1]"	"[0.35616669999990336, 0.5560955999999351, 0.7560966000000917, 0.9476331999999275, 1.1307940000001508, 1.3393945000002532]"	6	"[0.350115299999743, 0.5500546999996914, 0.7500354999997398, 0.9415697999997974, 1.1165710000000217, 1.3332728000000316]"	"[0.48302639999974417, 0.6745671999997285, 0.8497161999998752, 1.0330257999999048, 1.2246577999999317, 1.333277199999884]"	71.32341870000027	71.32901000000038	72.82126690000041	72.83293460000004								30	02	2024-02-21_09h19.18.952	BART_exp	2023.2.3	122.11801484930795	2024-02-21 09h19.29.936713 +0100	
balloon.png	110	0	6	6	25	72.83293460000004													72.82148030000008	72.83293460000004	72.83293460000004	72.83293460000004	72.83293460000004	72.83293460000004	-0.0004205000000183645	-0.0004205000000183645	-0.0004205000000183645	72.83293460000004	74.94810720000032	7	0.35	False	"[0.011111111111111112, 0.011111111111111112, 0.011111111111111112, 0.011111111111111112, 0.011111111111111112, 0.011111111111111112, 0.011111111111111112, 0.011111111111111112]"	"[-0.39166666666666666, -0.39166666666666666, -0.39166666666666666, -0.39166666666666666, -0.39166666666666666, -0.39166666666666666, -0.39166666666666666, -0.39166666666666666]"	"[1, 1, 1, 1, 1, 1, 1, 0]"	"[0, 0, 0, 0, 0, 0, 0, 0]"	"[0, 0, 0, 0, 0, 0, 0, 1]"	"[0.32530780000024606, 0.5336497000002964, 0.7504259000002094, 0.9420451000000867, 1.1753317000002426, 1.375328300000092, 1.6084826999999677, 2.1254781000002367]"	8	"[0.3188682999998491, 0.5272157999997944, 0.7439981000002263, 0.9356155000000399, 1.1688970999998674, 1.368885599999885, 1.60204049999993, 2.1189884999998867]"	"[0.4117503000002216, 0.6269725000001927, 0.8517691000001832, 1.0602798999998413, 1.2687224999999671, 1.4852959999998347, 1.7186550999999781, 2.118993000000046]"	74.94892000000027	74.9542964000002	76.44658040000013	76.46312290000014								30	02	2024-02-21_09h19.18.952	BART_exp	2023.2.3	122.11801484930795	2024-02-21 09h19.29.936713 +0100	
balloon.png	27	0	7	7	6	76.46312290000014													76.4468036000003	76.46312290000014	76.46312290000014	76.46312290000014	76.46312290000014	76.46312290000014	-0.0006389000000126543	-0.0006389000000126543	-0.0006389000000126543	76.46312290000014	79.85637480000014	11	0.55	False	"[0.011111111111111112, 0.011111111111111112, 0.011111111111111112, 0.011111111111111112, 0.011111111111111112, 0.011111111111111112, 0.011111111111111112, 0.011111111111111112, 0.011111111111111112, 0.011111111111111112, 0.011111111111111112, 0.011111111111111112]"	"[-0.39166666666666666, -0.39166666666666666, -0.39166666666666666, -0.39166666666666666, -0.39166666666666666, -0.39166666666666666, -0.39166666666666666, -0.39166666666666666, -0.39166666666666666, -0.39166666666666666, -0.39166666666666666, -0.39166666666666666]"	"[1, 1, 1, 1, 1, 1, 1, 1, 1, 1, 1, 0]"	"[0, 0, 0, 0, 0, 0, 0, 0, 0, 0, 0, 0]"	"[0, 0, 0, 0, 0, 0, 0, 0, 0, 0, 0, 1]"	"[0.283603100000164, 0.5001840999998421, 0.7093988000001445, 0.9254953999998179, 1.158789600000091, 1.3834258000001682, 1.5834156000000803, 1.7918449999997392, 2.00842079999984, 2.266943799999808, 2.8168556000000535, 3.4084610999998404]"	12	"[0.27247269999998025, 0.4890479000000596, 0.6984920999998394, 0.9143825000001016, 1.1476803000000473, 1.3722861000001103, 1.572280800000044, 1.780733500000224, 1.99732559999984, 2.2558060000001205, 2.805733600000167, 3.39728150000019]"	"[0.4054197000000386, 0.6221028999998452, 0.8221161999999822, 1.0221814999999879, 1.2554780000000392, 1.4805937000000995, 1.6810553999998774, 1.8972152999999707, 2.105513500000143, 2.363988000000063, 2.9556092000002536, 3.397286200000053]"	79.85761960000036	79.86291170000004	81.35691510000015	81.37290660000008								30	02	2024-02-21_09h19.18.952	BART_exp	2023.2.3	122.11801484930795	2024-02-21 09h19.29.936713 +0100	
balloon.png	101	0	8	8	23	81.37290660000008													81.35717150000028	81.37290660000008	81.37290660000008	81.37290660000008	81.37290660000008	81.37290660000008	0.0014326999998957035	0.0014326999998957035	0.0014326999998957035	81.37290660000008	84.6153218000004	9	0.45	False	"[0.011111111111111112, 0.011111111111111112, 0.011111111111111112, 0.011111111111111112, 0.011111111111111112, 0.011111111111111112, 0.011111111111111112, 0.011111111111111112, 0.011111111111111112, 0.011111111111111112]"	"[-0.39166666666666666, -0.39166666666666666, -0.39166666666666666, -0.39166666666666666, -0.39166666666666666, -0.39166666666666666, -0.39166666666666666, -0.39166666666666666, -0.39166666666666666, -0.39166666666666666]"	"[1, 1, 1, 1, 1, 1, 1, 1, 1, 0]"	"[0, 0, 0, 0, 0, 0, 0, 0, 0, 0]"	"[0, 0, 0, 0, 0, 0, 0, 0, 0, 1]"	"[0.324615200000153, 0.7900327000002108, 1.0399069000000054, 1.2649263000002975, 1.5568191000002116, 1.8151004999999714, 2.0815857000002325, 2.3652007999999114, 2.64829570000029, 3.2568888000000698]"	10	"[0.31421610000006694, 0.7796518999998625, 1.0295117000000573, 1.2545266000001902, 1.5464450999998007, 1.8047163000001092, 2.071181599999818, 2.3548123999999007, 2.63789480000014, 3.246429100000114]"	"[0.6960051000000931, 0.9126799999999093, 1.1293408999999883, 1.3543665000001965, 1.6627988000000187, 1.921054500000082, 2.179534700000204, 2.487833900000169, 2.7878043999999136, 3.246433799999977]"	84.61623280000003	84.62172510000028	86.11424920000036	86.12346500000012								30	02	2024-02-21_09h19.18.952	BART_exp	2023.2.3	122.11801484930795	2024-02-21 09h19.29.936713 +0100	
balloon.png	10	0	9	9	2	86.12346500000012													86.11453160000019	86.12346500000012	86.12346500000012	86.12346500000012	86.12346500000012	86.12346500000012	-8.739999975659885e-05	-8.739999975659885e-05	-8.739999975659885e-05	86.12346500000012	88.6659096000003	11	0.50	True	"[0.011111111111111112, 0.011111111111111112, 0.011111111111111112, 0.011111111111111112, 0.011111111111111112, 0.011111111111111112, 0.011111111111111112, 0.011111111111111112, 0.011111111111111112, 0.011111111111111112, 0.011111111111111112]"	"[-0.39166666666666666, -0.39166666666666666, -0.39166666666666666, -0.39166666666666666, -0.39166666666666666, -0.39166666666666666, -0.39166666666666666, -0.39166666666666666, -0.39166666666666666, -0.39166666666666666, -0.39166666666666666]"	"[1, 1, 1, 1, 1, 1, 1, 1, 1, 1, 1]"	"[0, 0, 0, 0, 0, 0, 0, 0, 0, 0, 0]"	"[0, 0, 0, 0, 0, 0, 0, 0, 0, 0, 0]"	"[0.2832228999996005, 0.5078780999997434, 0.7497057999999015, 1.1414350999998533, 1.3413096999997833, 1.5246754999998302, 1.7080359999999928, 1.891464399999677, 2.0666036999996322, 2.2580691999996816, 2.449882799999614]"	11	"[0.27952529999993203, 0.5041661000000204, 0.7461626999997861, 1.1377198999998654, 1.3375983000000815, 1.5209614999998848, 1.7043212999997195, 1.887751599999774, 2.0629361999999674, 2.2543525000000955, 2.4461725999999544]"	"[0.40406419999999343, 0.6209470999997393, 0.8207643999999163, 1.2540733999999247, 1.4459555999997065, 1.6291612999998506, 1.8124867999999879, 1.9894429000000855, 2.154353099999753, 2.345825800000057, 2.537619299999733]"	88.66711550000036	88.67431940000006	90.17223850000028									30	02	2024-02-21_09h19.18.952	BART_exp	2023.2.3	122.11801484930795	2024-02-21 09h19.29.936713 +0100	
balloon.png	123	0	10	10	28	90.18331160000025													90.1724578000003	90.18331160000025	90.18331160000025	90.18331160000025	90.18331160000025	90.18331160000025	0.006775800000013987	0.006775800000013987	0.006775800000013987	90.18331160000025	92.07402400000001	6	0.30	False	"[0.011111111111111112, 0.011111111111111112, 0.011111111111111112, 0.011111111111111112, 0.011111111111111112, 0.011111111111111112, 0.011111111111111112]"	"[-0.39166666666666666, -0.39166666666666666, -0.39166666666666666, -0.39166666666666666, -0.39166666666666666, -0.39166666666666666, -0.39166666666666666]"	"[1, 1, 1, 1, 1, 1, 0]"	"[0, 0, 0, 0, 0, 0, 0]"	"[0, 0, 0, 0, 0, 0, 1]"	"[0.3339239000001726, 0.7671924999999646, 1.0005684000002475, 1.200616600000103, 1.3921964999999545, 1.5839617000001454, 1.9005099000000882]"	7	"[0.32827839999981734, 0.7615226999996594, 0.9949086999999963, 1.194955200000095, 1.3865345999997771, 1.5783010000000104, 1.8947755999997753]"	"[0.6778627999997298, 0.8695275999998557, 1.0862899999997353, 1.2612544999997226, 1.4613070999998854, 1.6946090999999797, 1.8947801999997864]"	92.07472280000002	92.08041200000025	93.5727296	93.5829877000001								30	02	2024-02-21_09h19.18.952	BART_exp	2023.2.3	122.11801484930795	2024-02-21 09h19.29.936713 +0100	
balloon.png	114	0	11	11	26	93.5829877000001													93.5729653000003	93.5829877000001	93.5829877000001	93.5829877000001	93.5829877000001	93.5829877000001	-0.00032710000004954054	-0.00032710000004954054	-0.00032710000004954054	93.5829877000001	95.54929360000006	8	0.40	False	"[0.011111111111111112, 0.011111111111111112, 0.011111111111111112, 0.011111111111111112, 0.011111111111111112, 0.011111111111111112, 0.011111111111111112, 0.011111111111111112, 0.011111111111111112]"	"[-0.39166666666666666, -0.39166666666666666, -0.39166666666666666, -0.39166666666666666, -0.39166666666666666, -0.39166666666666666, -0.39166666666666666, -0.39166666666666666, -0.39166666666666666]"	"[1, 1, 1, 1, 1, 1, 1, 1, 0]"	"[0, 0, 0, 0, 0, 0, 0, 0, 0]"	"[0, 0, 0, 0, 0, 0, 0, 0, 1]"	"[0.26681939999980386, 0.4835361999998895, 0.7015640999998141, 0.9085264999998799, 1.108578999999736, 1.3178432999998222, 1.5175209999997605, 1.6917430999997123, 1.975264899999729]"	9	"[0.2618758999997226, 0.4785917999997764, 0.6967754999996032, 0.9035863999997673, 1.1036538999996992, 1.3129743999998027, 1.512606699999651, 1.6868046999998114, 1.9702681999997367]"	"[0.37000159999979587, 0.5785276999999951, 0.7866326999997, 1.0033509999998387, 1.2200510999996368, 1.4121549999999843, 1.5954787999999098, 1.811968799999704, 1.9702724999997372]"	95.55007960000012	95.55565920000026	97.04799150000008	97.06322440000031								30	02	2024-02-21_09h19.18.952	BART_exp	2023.2.3	122.11801484930795	2024-02-21 09h19.29.936713 +0100	
balloon.png	84	0	12	12	19	97.06322440000031													97.04820290000043	97.06322440000031	97.06322440000031	97.06322440000031	97.06322440000031	97.06322440000031	-0.00045450000015989644	-0.00045450000015989644	-0.00045450000015989644	97.06322440000031	98.89123230000041	7	0.35	False	"[0.011111111111111112, 0.011111111111111112, 0.011111111111111112, 0.011111111111111112, 0.011111111111111112, 0.011111111111111112, 0.011111111111111112, 0.011111111111111112]"	"[-0.39166666666666666, -0.39166666666666666, -0.39166666666666666, -0.39166666666666666, -0.39166666666666666, -0.39166666666666666, -0.39166666666666666, -0.39166666666666666]"	"[1, 1, 1, 1, 1, 1, 1, 0]"	"[0, 0, 0, 0, 0, 0, 0, 0]"	"[0, 0, 0, 0, 0, 0, 0, 1]"	"[0.38334050000003117, 0.6082671999997729, 0.8166808999999375, 1.0418470999998135, 1.2250278000001344, 1.4502557999999226, 1.6504374000001008, 1.8419114999996964]"	8	"[0.3735882999999376, 0.5985273999999663, 0.8069298000000344, 1.032101700000112, 1.2152776000002632, 1.4405162000002747, 1.6407274000002872, 1.832108800000242]"	"[0.47351030000027095, 0.6983032000002822, 0.9068683999998939, 1.0817910999999185, 1.3150433999999223, 1.5402263999999377, 1.7402666000002682, 1.832113400000253]"	98.89223660000016	98.89754840000023	100.3898752	100.40320270000029								30	02	2024-02-21_09h19.18.952	BART_exp	2023.2.3	122.11801484930795	2024-02-21 09h19.29.936713 +0100	
balloon.png	92	0	13	13	21	100.40320270000029													100.39008850000027	100.40320270000029	100.40320270000029	100.40320270000029	100.40320270000029	100.40320270000029	-0.0006667000002380519	-0.0006667000002380519	-0.0006667000002380519	100.40320270000029	102.6915011000001	9	0.45	False	"[0.011111111111111112, 0.011111111111111112, 0.011111111111111112, 0.011111111111111112, 0.011111111111111112, 0.011111111111111112, 0.011111111111111112, 0.011111111111111112, 0.011111111111111112, 0.011111111111111112]"	"[-0.39166666666666666, -0.39166666666666666, -0.39166666666666666, -0.39166666666666666, -0.39166666666666666, -0.39166666666666666, -0.39166666666666666, -0.39166666666666666, -0.39166666666666666, -0.39166666666666666]"	"[1, 1, 1, 1, 1, 1, 1, 1, 1, 0]"	"[0, 0, 0, 0, 0, 0, 0, 0, 0, 0]"	"[0, 0, 0, 0, 0, 0, 0, 0, 0, 1]"	"[0.3086342000001423, 0.5502234000000499, 0.7668640000001687, 0.991765100000066, 1.2168147000002136, 1.4585322000002634, 1.675223200000346, 1.8834062000000813, 2.0836444000001393, 2.3002959000000374]"	10	"[0.3006408000001102, 0.5422208999998475, 0.7588600999997652, 0.9837532999999894, 1.2088057999999364, 1.4505272000001241, 1.6672153999998045, 1.8753934999999728, 2.075640999999905, 2.292229899999711]"	"[0.4251915999998346, 0.6503312999998343, 0.8669942999999876, 1.0670635000001312, 1.317030700000032, 1.533719099999871, 1.7504243999997016, 1.9670808000000761, 2.1753297000000202, 2.29223439999987]"	102.69228840000005	102.69788330000029	104.19015220000028	104.20348860000013								30	02	2024-02-21_09h19.18.952	BART_exp	2023.2.3	122.11801484930795	2024-02-21 09h19.29.936713 +0100	
balloon.png	1	0	14	14	0	104.20348860000013													104.19036810000034	104.20348860000013	104.20348860000013	104.20348860000013	104.20348860000013	104.20348860000013	-0.00046840000004522153	-0.00046840000004522153	-0.00046840000004522153	104.20348860000013	104.7750744	2	0.05	True	"[0.011111111111111112, 0.011111111111111112]"	"[-0.39166666666666666, -0.39166666666666666]"	"[1, 1]"	"[0, 0]"	"[0, 0]"	"[0.24192660000016986, 0.46686769999996613]"	2	"[0.23399970000036774, 0.45892800000001444]"	"[0.383983900000203, 0.5671159000003172]"	104.77569310000035	104.78127020000011	106.27358760000016	106.28269380000029								30	02	2024-02-21_09h19.18.952	BART_exp	2023.2.3	122.11801484930795	2024-02-21 09h19.29.936713 +0100	
balloon.png	5	0	15	15	1	106.28269380000029													106.27380350000021	106.28269380000029	106.28269380000029	106.28269380000029	106.28269380000029	106.28269380000029	-0.00035509999997884734	-0.00035509999997884734	-0.00035509999997884734	106.28269380000029	108.85071440000002	6	0.25	True	"[0.011111111111111112, 0.011111111111111112, 0.011111111111111112, 0.011111111111111112, 0.011111111111111112, 0.011111111111111112]"	"[-0.39166666666666666, -0.39166666666666666, -0.39166666666666666, -0.39166666666666666, -0.39166666666666666, -0.39166666666666666]"	"[1, 1, 1, 1, 1, 1]"	"[0, 0, 0, 0, 0, 0]"	"[0, 0, 0, 0, 0, 0]"	"[0.9918642000002365, 1.6585569000003488, 1.8586754000002657, 2.0505018000003474, 2.275140200000351, 2.500168600000052]"	6	"[0.9880631000000903, 1.6547427000000425, 1.8548811999999089, 2.0467217999998866, 2.27132470000015, 2.4963717000000543]"	"[1.129513699999734, 1.7377894000001106, 1.9630241999998361, 2.1630205999999816, 2.379787800000031, 2.562951299999895]"	108.8514481000002	108.85663710000017	110.34886320000032	110.36294780000026								30	02	2024-02-21_09h19.18.952	BART_exp	2023.2.3	122.11801484930795	2024-02-21 09h19.29.936713 +0100	
balloon.png	79	0	16	16	18	110.36294780000026													110.34907600000042	110.36294780000026	110.36294780000026	110.36294780000026	110.36294780000026	110.36294780000026	-0.0008430999996562605	-0.0008430999996562605	-0.0008430999996562605	110.36294780000026	111.49232550000033	3	0.15	False	"[0.011111111111111112, 0.011111111111111112, 0.011111111111111112, 0.011111111111111112]"	"[-0.39166666666666666, -0.39166666666666666, -0.39166666666666666, -0.39166666666666666]"	"[1, 1, 1, 0]"	"[0, 0, 0, 0]"	"[0, 0, 0, 1]"	"[0.3586950000003526, 0.5753592000000936, 0.833527100000083, 1.1420768000002681]"	4	"[0.3499848000001293, 0.566659399999935, 0.8247995000001538, 1.1333180999999968]"	"[0.4746071999998094, 0.683000500000162, 0.9496997999999621, 1.133322700000008]"	111.49304640000037	111.5071439000003	112.99881450000021									30	02	2024-02-21_09h19.18.952	BART_exp	2023.2.3	122.11801484930795	2024-02-21 09h19.29.936713 +0100	
balloon.png	88	0	17	17	20	113.01286590000018													112.99904470000001	113.01286590000018	113.01286590000018	113.01286590000018	113.01286590000018	113.01286590000018	0.007404500000120606	0.007404500000120606	0.007404500000120606	113.01286590000018	114.90959170000042	6	0.30	False	"[0.011111111111111112, 0.011111111111111112, 0.011111111111111112, 0.011111111111111112, 0.011111111111111112, 0.011111111111111112, 0.011111111111111112]"	"[-0.39166666666666666, -0.39166666666666666, -0.39166666666666666, -0.39166666666666666, -0.39166666666666666, -0.39166666666666666, -0.39166666666666666]"	"[1, 1, 1, 1, 1, 1, 0]"	"[0, 0, 0, 0, 0, 0, 0]"	"[0, 0, 0, 0, 0, 0, 1]"	"[0.10044519999974, 0.3588356999998723, 0.5755427999997664, 0.7754497000000811, 0.9668748999997661, 1.4672412999998414, 1.9089329999997062]"	7	"[0.0917848000003687, 0.3501734999999826, 0.5669133999999758, 0.7668527000000722, 0.9582064000001083, 1.4586035000002084, 1.9002426000001833]"	"[0.2415396999999757, 0.4668786000002001, 0.6667251000003489, 0.8501820999999836, 1.0668562000000748, 1.5749330000003283, 1.9002472000001944]"	114.91057740000042	114.9153053	116.40943450000032	116.42269850000002								30	02	2024-02-21_09h19.18.952	BART_exp	2023.2.3	122.11801484930795	2024-02-21 09h19.29.936713 +0100	
balloon.png	71	0	18	18	16	116.42269850000002													116.40973760000043	116.42269850000002	116.42269850000002	116.42269850000002	116.42269850000002	116.42269850000002	0.0013976000000184285	0.0013976000000184285	0.0013976000000184285	116.42269850000002	120.09270620000007	11	0.55	False	"[0.011111111111111112, 0.011111111111111112, 0.011111111111111112, 0.011111111111111112, 0.011111111111111112, 0.011111111111111112, 0.011111111111111112, 0.011111111111111112, 0.011111111111111112, 0.011111111111111112, 0.011111111111111112, 0.011111111111111112]"	"[-0.39166666666666666, -0.39166666666666666, -0.39166666666666666, -0.39166666666666666, -0.39166666666666666, -0.39166666666666666, -0.39166666666666666, -0.39166666666666666, -0.39166666666666666, -0.39166666666666666, -0.39166666666666666, -0.39166666666666666]"	"[1, 1, 1, 1, 1, 1, 1, 1, 1, 1, 1, 0]"	"[0, 0, 0, 0, 0, 0, 0, 0, 0, 0, 0, 0]"	"[0, 0, 0, 0, 0, 0, 0, 0, 0, 0, 0, 1]"	"[0.31458669999983613, 0.539636900000005, 0.7562956000001577, 0.964435500000036, 1.1659855000002608, 1.3477570999998534, 1.7396119999998518, 1.9396356000002015, 2.231482600000163, 2.673514399999931, 3.1730799000001753, 3.681523300000208]"	12	"[0.3069980000000214, 0.5320520999998735, 0.748703199999909, 0.9568451000000096, 1.1584099000001515, 1.3401628000001438, 1.7320177999999942, 1.9320431999999528, 2.2239063000001806, 2.6659700999998677, 3.165495600000213, 3.6738789999999426]"	"[0.448471900000186, 0.6734519999999975, 0.8733692000000701, 1.0652934999998251, 1.265295000000151, 1.465179199999966, 1.8402369999998882, 2.0402109000001474, 2.332009400000061, 2.8153385000000526, 3.306997700000011, 3.67388340000025]"	120.09371530000044	120.09904720000031	121.59135390000029	121.60343610000018								30	02	2024-02-21_09h19.18.952	BART_exp	2023.2.3	122.11801484930795	2024-02-21 09h19.29.936713 +0100	
balloon.png	49	0	19	19	11	121.60343610000018													121.5915716000004	121.60343610000018	121.60343610000018	121.60343610000018	121.60343610000018	121.60343610000018	-0.0006821000001764332	-0.0006821000001764332	-0.0006821000001764332	121.60343610000018	124.03445530000045	8	0.40	False	"[0.011111111111111112, 0.011111111111111112, 0.011111111111111112, 0.011111111111111112, 0.011111111111111112, 0.011111111111111112, 0.011111111111111112, 0.011111111111111112, 0.011111111111111112]"	"[-0.39166666666666666, -0.39166666666666666, -0.39166666666666666, -0.39166666666666666, -0.39166666666666666, -0.39166666666666666, -0.39166666666666666, -0.39166666666666666, -0.39166666666666666]"	"[1, 1, 1, 1, 1, 1, 1, 1, 0]"	"[0, 0, 0, 0, 0, 0, 0, 0, 0]"	"[0, 0, 0, 0, 0, 0, 0, 0, 1]"	"[0.2757035999998152, 0.49226599999974496, 0.6924589999998716, 0.8921277999997983, 1.0922513999998955, 1.283574999999928, 1.5088519000000815, 2.1334388999998737, 2.4416928000000553]"	9	"[0.2694015000001855, 0.48595620000014605, 0.6861802000003081, 0.885825300000306, 1.0859771000000364, 1.2772351000003255, 1.5026969000000463, 2.1270988999999645, 2.4353046999999606]"	"[0.4356382000000849, 0.6103379000001041, 0.810116200000266, 1.0021615000000565, 1.1935777000003327, 1.3936533000000964, 1.6187557000002926, 2.2790439000000333, 2.4353095999999823]"	124.03552560000026	124.04094730000043	125.53488450000032	125.55359240000007								30	02	2024-02-21_09h19.18.952	BART_exp	2023.2.3	122.11801484930795	2024-02-21 09h19.29.936713 +0100	
balloon.png	57	0	20	20	13	125.55359240000007													125.53516230000014	125.55359240000007	125.55359240000007	125.55359240000007	125.55359240000007	125.55359240000007	0.0020808999997825595	0.0020808999997825595	0.0020808999997825595	125.55359240000007	133.01016290000007	16	0.80	False	"[0.011111111111111112, 0.011111111111111112, 0.011111111111111112, 0.011111111111111112, 0.011111111111111112, 0.011111111111111112, 0.011111111111111112, 0.011111111111111112, 0.011111111111111112, 0.011111111111111112, 0.011111111111111112, 0.011111111111111112, 0.011111111111111112, 0.011111111111111112, 0.011111111111111112, 0.011111111111111112, 0.011111111111111112]"	"[-0.39166666666666666, -0.39166666666666666, -0.39166666666666666, -0.39166666666666666, -0.39166666666666666, -0.39166666666666666, -0.39166666666666666, -0.39166666666666666, -0.39166666666666666, -0.39166666666666666, -0.39166666666666666, -0.39166666666666666, -0.39166666666666666, -0.39166666666666666, -0.39166666666666666, -0.39166666666666666, -0.39166666666666666]"	"[1, 1, 1, 1, 1, 1, 1, 1, 1, 1, 1, 1, 1, 1, 1, 1, 0]"	"[0, 0, 0, 0, 0, 0, 0, 0, 0, 0, 0, 0, 0, 0, 0, 0, 0]"	"[0, 0, 0, 0, 0, 0, 0, 0, 0, 0, 0, 0, 0, 0, 0, 0, 1]"	"[0.298033900000064, 0.548259500000313, 0.8066612000002351, 1.0900019000000611, 1.39009440000018, 1.6984098000002632, 1.990002700000332, 2.323590200000126, 3.0234634000003098, 3.3237127000002147, 3.7485446000000593, 4.206927500000347, 4.840442100000018, 5.38177160000032, 6.1153455000003305, 6.674780000000283, 7.47358370000029]"	17	"[0.2855181999998422, 0.5357303000000684, 0.7941342999997687, 1.0774772999998277, 1.377579699999842, 1.6858925999999883, 1.9774751999998443, 2.3110806999998204, 3.0109349999997903, 3.311202399999729, 3.7360203999996884, 4.194406399999934, 4.827919800000018, 5.369241200000033, 6.102817699999832, 6.662474299999758, 7.4610170999999355]"	"[0.46880129999999554, 0.6521821999999702, 0.9021484999998393, 1.1688959999996769, 1.51074779999999, 1.8273454000000129, 2.0940812999997434, 2.4440779999999904, 3.1523471000000427, 3.4523988999999347, 3.8524493999998413, 4.344354399999702, 4.96917859999985, 5.511352999999872, 6.261193699999694, 6.802603299999646, 7.4610218999996505]"	133.01145620000034	133.01679250000007	134.51051310000003	134.52302800000007								30	02	2024-02-21_09h19.18.952	BART_exp	2023.2.3	122.11801484930795	2024-02-21 09h19.29.936713 +0100	
balloon.png	18	0	21	21	4	134.52302800000007													134.51077420000001	134.52302800000007	134.52302800000007	134.52302800000007	134.52302800000007	134.52302800000007	0.0017295000002377492	0.0017295000002377492	0.0017295000002377492	134.52302800000007	137.4103339000003	11	0.55	False	"[0.011111111111111112, 0.011111111111111112, 0.011111111111111112, 0.011111111111111112, 0.011111111111111112, 0.011111111111111112, 0.011111111111111112, 0.011111111111111112, 0.011111111111111112, 0.011111111111111112, 0.011111111111111112, 0.011111111111111112]"	"[-0.39166666666666666, -0.39166666666666666, -0.39166666666666666, -0.39166666666666666, -0.39166666666666666, -0.39166666666666666, -0.39166666666666666, -0.39166666666666666, -0.39166666666666666, -0.39166666666666666, -0.39166666666666666, -0.39166666666666666]"	"[1, 1, 1, 1, 1, 1, 1, 1, 1, 1, 1, 0]"	"[0, 0, 0, 0, 0, 0, 0, 0, 0, 0, 0, 0]"	"[0, 0, 0, 0, 0, 0, 0, 0, 0, 0, 0, 1]"	"[0.3567785999998705, 0.5899638000000778, 0.8233445999999276, 1.0735157999997682, 1.2900704999997288, 1.4984561999999642, 1.6985028999997667, 1.9151302000000214, 2.1152102999999443, 2.290251200000057, 2.5068358999997145, 2.8983250999999655]"	12	"[0.34978610000007393, 0.5829546999998456, 0.8163334000000759, 1.066683600000033, 1.283061799999814, 1.491452499999923, 1.6915048999999271, 1.908125999999811, 2.1082047999998395, 2.283262299999933, 2.4998249000000214, 2.891249699999662]"	"[0.47430439999970986, 0.690999599999941, 0.9410533000000214, 1.1744588999999905, 1.3994830999999976, 1.5994983999999022, 1.8077857999996922, 1.9995573999999579, 2.217583199999808, 2.4245341000000735, 2.6009235999999873, 2.891254299999673]"	137.41115910000008	137.4169450000004	138.9091830000002	138.9232903000002								30	02	2024-02-21_09h19.18.952	BART_exp	2023.2.3	122.11801484930795	2024-02-21 09h19.29.936713 +0100	
balloon.png	66	0	22	22	15	138.9232903000002													138.9093981000001	138.9232903000002	138.9232903000002	138.9232903000002	138.9232903000002	138.9232903000002	-0.00014149999969959026	-0.00014149999969959026	-0.00014149999969959026	138.9232903000002	143.98594110000022	16	0.80	False	"[0.011111111111111112, 0.011111111111111112, 0.011111111111111112, 0.011111111111111112, 0.011111111111111112, 0.011111111111111112, 0.011111111111111112, 0.011111111111111112, 0.011111111111111112, 0.011111111111111112, 0.011111111111111112, 0.011111111111111112, 0.011111111111111112, 0.011111111111111112, 0.011111111111111112, 0.011111111111111112]"	"[-0.39166666666666666, -0.39166666666666666, -0.39166666666666666, -0.39166666666666666, -0.39166666666666666, -0.39166666666666666, -0.39166666666666666, -0.39166666666666666, -0.39166666666666666, -0.39166666666666666, -0.39166666666666666, -0.39166666666666666, -0.39166666666666666, -0.39166666666666666, -0.39166666666666666, -0.39166666666666666]"	"[1, 1, 1, 1, 1, 1, 1, 1, 1, 1, 1, 1, 1, 1, 1, 1]"	"[0, 0, 0, 0, 0, 0, 0, 0, 0, 0, 0, 0, 0, 0, 0, 0]"	"[0, 0, 0, 0, 0, 0, 0, 0, 0, 0, 0, 0, 0, 0, 0, 0]"	"[0.47534459999997125, 0.717145900000105, 0.9668962999999167, 1.1922972000002119, 1.4253378000003067, 1.633409400000346, 2.0419949000001907, 2.2834579000000303, 2.483547400000134, 2.6918757000003097, 2.875265500000296, 3.083540500000254, 3.258551599999919, 3.4929494000002705, 3.95876219999991, 4.425226000000293]"	17	"[0.46660220000012487, 0.7084188000003451, 0.9581471999999849, 1.183602200000223, 1.4165901000001213, 1.624655900000107, 2.0332735000001776, 2.2747136000002683, 2.4747925000001487, 2.683152600000085, 2.8665521000002627, 3.074804000000313, 3.2498139000003903, 3.4846807000003537, 3.9500232000000324, 4.416471500000171, 5.066638799999964]"	"[0.6332762000001821, 0.8411945000002561, 1.0578988000002028, 1.291186700000253, 1.5245440000003327, 1.7245738000001438, 2.141270600000098, 2.357977099999971, 2.557949600000029, 2.7580026000000544, 2.9664317000001574, 3.183001500000046, 3.382961900000282, 3.6080501999999797, 4.116299799999979, 4.558181500000046, 5.066643800000293]"	143.98686130000033	143.99233660000027	145.48464470000044	145.4932748000001								30	02	2024-02-21_09h19.18.952	BART_exp	2023.2.3	122.11801484930795	2024-02-21 09h19.29.936713 +0100	
balloon.png	118	0	23	23	27	145.4932748000001													145.48485800000026	145.4932748000001	145.4932748000001	145.4932748000001	145.4932748000001	145.4932748000001	-0.00046030000021346495	-0.00046030000021346495	-0.00046030000021346495	145.4932748000001	148.5115721000002	10	0.50	False	"[0.011111111111111112, 0.011111111111111112, 0.011111111111111112, 0.011111111111111112, 0.011111111111111112, 0.011111111111111112, 0.011111111111111112, 0.011111111111111112, 0.011111111111111112, 0.011111111111111112, 0.011111111111111112]"	"[-0.39166666666666666, -0.39166666666666666, -0.39166666666666666, -0.39166666666666666, -0.39166666666666666, -0.39166666666666666, -0.39166666666666666, -0.39166666666666666, -0.39166666666666666, -0.39166666666666666, -0.39166666666666666]"	"[1, 1, 1, 1, 1, 1, 1, 1, 1, 1, 0]"	"[0, 0, 0, 0, 0, 0, 0, 0, 0, 0, 0]"	"[0, 0, 0, 0, 0, 0, 0, 0, 0, 0, 1]"	"[0.31690000000025975, 0.7587047000001803, 0.9767466000002969, 1.1836169000002883, 1.4003495000001749, 1.608514699999887, 1.8085611999999855, 2.0003560999998626, 2.192110500000126, 2.358850500000244, 3.0256121000002167]"	11	"[0.31375729999990654, 0.7555563999999322, 0.9735804000001735, 1.1804606000000604, 1.397204899999906, 1.6053460000002815, 1.8053944000002957, 1.9971966000002794, 2.188977100000102, 2.3557049999999435, 3.022390600000108]"	"[0.671876599999905, 0.8720032000001083, 1.0801265000000058, 1.2801481000001331, 1.4885834000001523, 1.7052722000003087, 1.8969145999999455, 2.088643900000079, 2.2802331000002596, 2.4720714000000044, 3.022395299999971]"	148.5124138000001	148.51763990000018	150.01181580000002	150.02287060000026								30	02	2024-02-21_09h19.18.952	BART_exp	2023.2.3	122.11801484930795	2024-02-21 09h19.29.936713 +0100	
balloon.png	97	0	24	24	22	150.02287060000026													150.0121476000004	150.02287060000026	150.02287060000026	150.02287060000026	150.02287060000026	150.02287060000026	0.0012898999998469662	0.0012898999998469662	0.0012898999998469662	150.02287060000026	153.14483830000017	12	0.60	False	"[0.011111111111111112, 0.011111111111111112, 0.011111111111111112, 0.011111111111111112, 0.011111111111111112, 0.011111111111111112, 0.011111111111111112, 0.011111111111111112, 0.011111111111111112, 0.011111111111111112, 0.011111111111111112, 0.011111111111111112, 0.011111111111111112]"	"[-0.39166666666666666, -0.39166666666666666, -0.39166666666666666, -0.39166666666666666, -0.39166666666666666, -0.39166666666666666, -0.39166666666666666, -0.39166666666666666, -0.39166666666666666, -0.39166666666666666, -0.39166666666666666, -0.39166666666666666, -0.39166666666666666]"	"[1, 1, 1, 1, 1, 1, 1, 1, 1, 1, 1, 1, 0]"	"[0, 0, 0, 0, 0, 0, 0, 0, 0, 0, 0, 0, 0]"	"[0, 0, 0, 0, 0, 0, 0, 0, 0, 0, 0, 0, 1]"	"[0.2979864999997517, 0.547967399999834, 0.7648552000000564, 0.9981929999999011, 1.1981689999997798, 1.4148408999999447, 1.6148588000000927, 1.8066137999999228, 1.989955099999861, 2.1815441999997347, 2.406644099999994, 2.7065434000001005, 3.1315331000000697]"	13	"[0.2924070999997639, 0.5423883999997088, 0.7593090999998822, 0.9926231999997981, 1.1925882000000456, 1.4092243999998573, 1.60925670000006, 1.8009984999998778, 1.984355300000061, 2.175932399999965, 2.401039800000035, 2.7009312000000136, 3.1258601999998064]"	"[0.4339205999999649, 0.6422996000001149, 0.8756026999999449, 1.0757418999996844, 1.292228199999954, 1.4840269000001172, 1.7256868999998005, 1.917377199999919, 2.100699099999929, 2.2923516000000745, 2.5174527999997736, 2.808992599999783, 3.1258646999999655]"	153.14586370000006	153.15126940000027	154.64360890000034	154.6529461								30	02	2024-02-21_09h19.18.952	BART_exp	2023.2.3	122.11801484930795	2024-02-21 09h19.29.936713 +0100	
balloon.png	40	0	25	25	9	154.6529461													154.64383140000018	154.6529461	154.6529461	154.6529461	154.6529461	154.6529461	-0.0005559000001085224	-0.0005559000001085224	-0.0005559000001085224	154.6529461	158.1788372000001	12	0.60	False	"[0.011111111111111112, 0.011111111111111112, 0.011111111111111112, 0.011111111111111112, 0.011111111111111112, 0.011111111111111112, 0.011111111111111112, 0.011111111111111112, 0.011111111111111112, 0.011111111111111112, 0.011111111111111112, 0.011111111111111112, 0.011111111111111112]"	"[-0.39166666666666666, -0.39166666666666666, -0.39166666666666666, -0.39166666666666666, -0.39166666666666666, -0.39166666666666666, -0.39166666666666666, -0.39166666666666666, -0.39166666666666666, -0.39166666666666666, -0.39166666666666666, -0.39166666666666666, -0.39166666666666666]"	"[1, 1, 1, 1, 1, 1, 1, 1, 1, 1, 1, 1, 0]"	"[0, 0, 0, 0, 0, 0, 0, 0, 0, 0, 0, 0, 0]"	"[0, 0, 0, 0, 0, 0, 0, 0, 0, 0, 0, 0, 1]"	"[0.03350739999996222, 0.2917757000000165, 0.5167295999999624, 0.7502423000000817, 0.9835883999999169, 1.2253832999999759, 1.4500546999997823, 1.650072800000089, 1.8500927000000047, 2.133654799999931, 2.5836942999999337, 3.050174099999822, 3.5339162000000215]"	13	"[0.02965009999979884, 0.2879143000000113, 0.5128704999997353, 0.746393999999782, 0.979733899999701, 1.2215510000000904, 1.4461906000001363, 1.6462201999997887, 1.846239500000138, 2.129794099999799, 2.57983269999977, 3.046307699999943, 3.530002500000137]"	"[0.1877983999997923, 0.42112049999968804, 0.6375850999997965, 0.8628727000000254, 1.0712819000000309, 1.2879131999998208, 1.5128144999998767, 1.746189399999821, 1.9461774000001242, 2.2461687999998503, 2.7217814000000544, 3.188405099999727, 3.5300068999999894]"	158.17971920000036	158.1850959000003	159.67724270000008	159.69282010000006								30	02	2024-02-21_09h19.18.952	BART_exp	2023.2.3	122.11801484930795	2024-02-21 09h19.29.936713 +0100	
balloon.png	31	0	26	26	7	159.69282010000006													159.67745700000023	159.69282010000006	159.69282010000006	159.69282010000006	159.69282010000006	159.69282010000006	-0.0007469000001947279	-0.0007469000001947279	-0.0007469000001947279	159.69282010000006	161.73698100000001	8	0.40	False	"[0.011111111111111112, 0.011111111111111112, 0.011111111111111112, 0.011111111111111112, 0.011111111111111112, 0.011111111111111112, 0.011111111111111112, 0.011111111111111112, 0.011111111111111112]"	"[-0.39166666666666666, -0.39166666666666666, -0.39166666666666666, -0.39166666666666666, -0.39166666666666666, -0.39166666666666666, -0.39166666666666666, -0.39166666666666666, -0.39166666666666666]"	"[1, 1, 1, 1, 1, 1, 1, 1, 0]"	"[0, 0, 0, 0, 0, 0, 0, 0, 0]"	"[0, 0, 0, 0, 0, 0, 0, 0, 1]"	"[0.266733099999783, 0.4918150999997124, 0.7085434999999052, 0.9585754999998244, 1.1667873999999756, 1.39190249999956, 1.6084001999997781, 1.8083942999996907, 2.0584460999998555]"	9	"[0.25654420000000755, 0.48162060000004203, 0.6983469000001605, 0.9483629999999721, 1.1565917000002628, 1.3816854000001513, 1.598188299999947, 1.7981801000000814, 2.048203100000137]"	"[0.39805010000009133, 0.6065487000000758, 0.8231519000000844, 1.0231504000003042, 1.256549200000336, 1.4814156000002185, 1.6981156000001647, 1.9233177999999498, 2.0482078]"	161.73778380000022	161.74355400000013	163.23591670000042	163.2532940000001								30	02	2024-02-21_09h19.18.952	BART_exp	2023.2.3	122.11801484930795	2024-02-21 09h19.29.936713 +0100	
balloon.png	53	0	27	27	12	163.2532940000001													163.2361302000004	163.2532940000001	163.2532940000001	163.2532940000001	163.2532940000001	163.2532940000001	-3.220000007786439e-05	-3.220000007786439e-05	-3.220000007786439e-05	163.2532940000001	168.52971640000032	13	0.65	False	"[0.011111111111111112, 0.011111111111111112, 0.011111111111111112, 0.011111111111111112, 0.011111111111111112, 0.011111111111111112, 0.011111111111111112, 0.011111111111111112, 0.011111111111111112, 0.011111111111111112, 0.011111111111111112, 0.011111111111111112, 0.011111111111111112]"	"[-0.39166666666666666, -0.39166666666666666, -0.39166666666666666, -0.39166666666666666, -0.39166666666666666, -0.39166666666666666, -0.39166666666666666, -0.39166666666666666, -0.39166666666666666, -0.39166666666666666, -0.39166666666666666, -0.39166666666666666, -0.39166666666666666]"	"[1, 1, 1, 1, 1, 1, 1, 1, 1, 1, 1, 1, 0]"	"[0, 0, 0, 0, 0, 0, 0, 0, 0, 0, 0, 0, 0]"	"[0, 0, 0, 0, 0, 0, 0, 0, 0, 0, 0, 0, 1]"	"[0.3253330000002279, 0.5586121000001185, 0.8751409000001331, 1.1335557000002154, 1.4752562000003309, 1.7920567000001029, 2.1336497000002055, 2.508615600000212, 2.959094499999992, 3.433477800000219, 4.700214899999992, 4.8753169999999955, 5.292003000000022]"	13	"[0.3134875999999167, 0.5467717999999877, 0.8632708000000093, 1.1217024000002311, 1.4633908999999221, 1.7802471999998488, 2.1217805000001135, 2.4967467999999826, 2.94725120000021, 3.421609200000148, 4.688359199999923, 4.8635057000001325, 5.2800968999999895]"	"[0.4297756000000845, 0.6631616999998187, 0.9880695000001651, 1.2798729000001003, 1.6298815000000104, 1.9215659000001324, 2.2547945000001164, 2.6381360000000313, 3.080269099999896, 3.554862200000116, 4.763506899999811, 4.971623299999919, 5.280101299999842]"	168.53102940000008	168.5356729	170.02948230000038	170.04291490000014								30	02	2024-02-21_09h19.18.952	BART_exp	2023.2.3	122.11801484930795	2024-02-21 09h19.29.936713 +0100	
balloon.png	44	0	28	28	10	170.04291490000014													170.02975340000012	170.04291490000014	170.04291490000014	170.04291490000014	170.04291490000014	170.04291490000014	0.0012843000004068017	0.0012843000004068017	0.0012843000004068017	170.04291490000014	176.25519930000019	20	1.00	False	"[0.011111111111111112, 0.011111111111111112, 0.011111111111111112, 0.011111111111111112, 0.011111111111111112, 0.011111111111111112, 0.011111111111111112, 0.011111111111111112, 0.011111111111111112, 0.011111111111111112, 0.011111111111111112, 0.011111111111111112, 0.011111111111111112, 0.011111111111111112, 0.011111111111111112, 0.011111111111111112, 0.011111111111111112, 0.011111111111111112, 0.011111111111111112, 0.011111111111111112, 0.011111111111111112]"	"[-0.39166666666666666, -0.39166666666666666, -0.39166666666666666, -0.39166666666666666, -0.39166666666666666, -0.39166666666666666, -0.39166666666666666, -0.39166666666666666, -0.39166666666666666, -0.39166666666666666, -0.39166666666666666, -0.39166666666666666, -0.39166666666666666, -0.39166666666666666, -0.39166666666666666, -0.39166666666666666, -0.39166666666666666, -0.39166666666666666, -0.39166666666666666, -0.39166666666666666, -0.39166666666666666]"	"[1, 1, 1, 1, 1, 1, 1, 1, 1, 1, 1, 1, 1, 1, 1, 1, 1, 1, 1, 1, 0]"	"[0, 0, 0, 0, 0, 0, 0, 0, 0, 0, 0, 0, 0, 0, 0, 0, 0, 0, 0, 0, 0]"	"[0, 0, 0, 0, 0, 0, 0, 0, 0, 0, 0, 0, 0, 0, 0, 0, 0, 0, 0, 0, 1]"	"[0.3233635999999933, 0.6314397999999528, 0.881501599999865, 1.1234995999998318, 1.3649869000000763, 1.606768000000102, 1.848234600000069, 2.089999700000135, 2.3402694999999767, 2.5985218000000714, 2.806943399999909, 3.006937099999959, 3.2159692999998697, 3.5154520999999477, 3.7152330999997503, 3.9153603999998268, 4.123745500000041, 4.798673599999802, 5.30715999999984, 5.806801299999734, 6.223925599999802]"	21	"[0.31558689999974376, 0.6236563999996179, 0.8737014999996973, 1.1157454999997753, 1.3571955999996135, 1.598977499999819, 1.8404364999996687, 2.082207799999651, 2.3325098000000253, 2.5907234999999673, 2.7991846999998415, 2.999169400000028, 3.2083880000000136, 3.5076874999999745, 3.707462399999713, 3.907587499999863, 4.115973099999792, 4.790879799999857, 5.29936699999962, 5.799005899999884, 6.21607879999965]"	"[0.4819718999997349, 0.7319663999996919, 0.9902088999997432, 1.2402231999999458, 1.473602000000028, 1.7069841999996243, 1.9569830999998885, 2.2070856999998796, 2.4654742999996415, 2.66737189999958, 2.907088699999804, 3.1322031999998217, 3.357199199999741, 3.6155656999999337, 3.815615699999853, 4.032272899999953, 4.248939799999789, 4.949119999999766, 5.4493398999998135, 5.923969099999795, 6.216084099999989]"	176.25628340000003	176.26122710000027	177.75346530000024	177.7634011								30	02	2024-02-21_09h19.18.952	BART_exp	2023.2.3	122.11801484930795	2024-02-21 09h19.29.936713 +0100	
balloon.png	75	0	29	29	17	177.7634011													177.75369340000043	177.7634011	177.7634011	177.7634011	177.7634011	177.7634011	-0.000240999999732594	-0.000240999999732594	-0.000240999999732594	177.7634011	180.51348990000042	11	0.55	False	"[0.011111111111111112, 0.011111111111111112, 0.011111111111111112, 0.011111111111111112, 0.011111111111111112, 0.011111111111111112, 0.011111111111111112, 0.011111111111111112, 0.011111111111111112, 0.011111111111111112, 0.011111111111111112, 0.011111111111111112]"	"[-0.39166666666666666, -0.39166666666666666, -0.39166666666666666, -0.39166666666666666, -0.39166666666666666, -0.39166666666666666, -0.39166666666666666, -0.39166666666666666, -0.39166666666666666, -0.39166666666666666, -0.39166666666666666, -0.39166666666666666]"	"[1, 1, 1, 1, 1, 1, 1, 1, 1, 1, 1, 0]"	"[0, 0, 0, 0, 0, 0, 0, 0, 0, 0, 0, 0]"	"[0, 0, 0, 0, 0, 0, 0, 0, 0, 0, 0, 1]"	"[0.28340269999989687, 0.4918241999998827, 0.7169416000001547, 0.9500577999997404, 1.168261799999982, 1.3500911999999516, 1.5435664000001452, 1.7251995000001443, 1.9334665000001223, 2.1419566999998096, 2.350188899999921, 2.7587094000000434]"	12	"[0.2789588000000549, 0.48736139999982697, 0.7127195999996729, 0.94559849999996, 1.1638186999998652, 1.3456317000000126, 1.53923739999982, 1.7207399999997506, 1.9290145999998458, 2.1374941999997645, 2.345729599999686, 2.754188399999748]"	"[0.4182037999999011, 0.6454829999997855, 0.845495199999732, 1.04628509999975, 1.2373038000000633, 1.4372659999999087, 1.6389733000000888, 1.8289550999998028, 2.0122404999997343, 2.2040987999998833, 2.454099000000042, 2.7541928999999072]"	180.51438270000017	180.51987610000015	182.01214340000024	182.02021330000025								30	02	2024-02-21_09h19.18.952	BART_exp	2023.2.3	122.11801484930795	2024-02-21 09h19.29.936713 +0100	
																																														182.0121838	182.02021330000025	182.02021330000025	196.1302082000002	space	14.109380200000032	None	30	02	2024-02-21_09h19.18.952	BART_exp	2023.2.3	122.11801484930795	2024-02-21 09h19.29.936713 +0100	
