image	max_pumps	pump_loop.thisRepN	pump_loop.thisTrialN	pump_loop.thisN	pump_loop.thisIndex	thisRow.t	notes	Start.started	text_start.started	continue_start.started	mouse_start.started	Start.stopped	mouse_start.x	mouse_start.y	mouse_start.leftButton	mouse_start.midButton	mouse_start.rightButton	mouse_start.time	trials.started	stim_balloon.started	stim_balloon_burst.started	stim_balloon_burst.stopped	text_ballon_value.started	text_bank.started	mouse.started	sound_bang.started	sound_bang.stopped	button_balloon.started	trials.stopped	n_pumps	earnings	popped	mouse.x	mouse.y	mouse.leftButton	mouse.midButton	mouse.rightButton	mouse.time	button_balloon.numClicks	button_balloon.timesOn	button_balloon.timesOff	Feedback.started	text_feedback.started	Feedback.stopped	text_feedback.stopped	End.started	text_end.started	key_end.started	End.stopped	key_end.keys	key_end.rt	key_end.duration	participant	session	date	expName	psychopyVersion	frameRate	expStart	
								0.001059899999972913	0.005338700000038443	0.005338700000038443	0.0013480000000072323	31.298229600000013	[0.7268518518518519]	[-0.39166666666666666]	[1]	[0]	[0]	[31.296218800000133]																																			30	01	2024-02-21_09h11.53.942	BART_exp	2023.2.3	119.92205066696334	2024-02-21 09h12.04.935450 +0100	
balloon.png	36	0	0	0	8	31.37078560000009													31.31281450000006	31.37078560000009	31.37078560000009	31.37078560000009	31.37078560000009	31.37078560000009	0.01625659999990603	0.01625659999990603	0.01625659999990603	31.37078560000009	36.52470230000017	5	0.25	False	"[-0.10092592592592593, -0.10092592592592593, -0.10092592592592593, -0.10092592592592593, -0.10092592592592593, -0.10092592592592593]"	"[-0.38981481481481484, -0.38981481481481484, -0.38981481481481484, -0.38981481481481484, -0.38981481481481484, -0.38981481481481484]"	"[1, 1, 1, 1, 1, 0]"	"[0, 0, 0, 0, 0, 0]"	"[0, 0, 0, 0, 0, 1]"	"[2.2273131999997986, 2.8523255000000063, 3.485827999999856, 3.7522231999998894, 4.418921799999907, 5.210824499999944]"	6	"[2.1755636000000322, 2.8005900999999085, 3.434092899999996, 3.7004680000000008, 4.367168300000003, 5.15901319999989]"	"[2.3252800999998726, 2.983668200000011, 3.5670156999999563, 3.825494499999877, 4.467057399999931, 5.1590177000000494]"	36.525896600000124	36.53574330000015	38.03138030000014									30	01	2024-02-21_09h11.53.942	BART_exp	2023.2.3	119.92205066696334	2024-02-21 09h12.04.935450 +0100	
balloon.png	101	0	1	1	23	38.03952060000006													38.03158950000011	38.03952060000006	38.03952060000006	38.03952060000006	38.03952060000006	38.03952060000006	0.007154099999979735	0.007154099999979735	0.007154099999979735	38.03952060000006	41.866605500000105	7	0.35	False	"[-0.037037037037037035, -0.037037037037037035, -0.037037037037037035, -0.037037037037037035, -0.037037037037037035, -0.037037037037037035, -0.037037037037037035, -0.037037037037037035]"	"[-0.3685185185185185, -0.3685185185185185, -0.3685185185185185, -0.3685185185185185, -0.3685185185185185, -0.3685185185185185, -0.3685185185185185, -0.3685185185185185]"	"[1, 1, 1, 1, 1, 1, 1, 0]"	"[0, 0, 0, 0, 0, 0, 0, 0]"	"[0, 0, 0, 0, 0, 0, 0, 1]"	"[1.6504454000000806, 1.9006283999999596, 2.1922188999999435, 2.4253788000000895, 2.6504670000001624, 3.117447000000084, 3.425475100000085, 3.833908000000065]"	8	"[1.6478023999998186, 1.8980036999998902, 2.189600599999949, 2.4229544999998325, 2.6478137999999944, 3.11483219999991, 3.422822799999949, 3.831196099999943]"	"[1.7726249999998345, 2.0310042999999496, 2.2892749000000094, 2.522604999999885, 2.7476985999999215, 3.2492738999999347, 3.5394143999999415, 3.831200299999864]"	41.86737510000012	41.87307970000006	43.365330300000096	43.3799011000001								30	01	2024-02-21_09h11.53.942	BART_exp	2023.2.3	119.92205066696334	2024-02-21 09h12.04.935450 +0100	
balloon.png	105	0	2	2	24	43.3799011000001													43.36554440000009	43.3799011000001	43.3799011000001	43.3799011000001	43.3799011000001	43.3799011000001	-0.00021750000018982973	-0.00021750000018982973	-0.00021750000018982973	43.3799011000001	46.70123239999998	6	0.30	False	"[-0.037037037037037035, -0.037037037037037035, -0.037037037037037035, -0.037037037037037035, -0.037037037037037035, -0.037037037037037035, -0.037037037037037035]"	"[-0.3685185185185185, -0.3685185185185185, -0.3685185185185185, -0.3685185185185185, -0.3685185185185185, -0.3685185185185185, -0.3685185185185185]"	"[1, 1, 1, 1, 1, 1, 0]"	"[0, 0, 0, 0, 0, 0, 0]"	"[0, 0, 0, 0, 0, 0, 1]"	"[0.6170337999999447, 0.8670336999998653, 1.5919695999998567, 2.0338885999999547, 2.2503811999999925, 2.8839347999999063, 3.3343918999999005]"	7	"[0.6085206000000198, 0.858509099999992, 1.5834422000000359, 2.025379100000009, 2.24184769999988, 2.875401899999815, 3.325818300000037]"	"[0.7332291999998688, 1.0082730999999967, 1.733288899999934, 2.166571499999918, 2.3585295000000315, 2.9754169000000275, 3.325822899999821]"	46.70219280000015	46.70672650000006	48.20125989999997	48.21972270000015								30	01	2024-02-21_09h11.53.942	BART_exp	2023.2.3	119.92205066696334	2024-02-21 09h12.04.935450 +0100	
balloon.png	5	0	3	3	1	48.21972270000015													48.201538200000186	48.21972270000015	48.21972270000015	48.21972270000015	48.21972270000015	48.21972270000015	0.0009056999999756954	0.0009056999999756954	0.0009056999999756954	48.21972270000015	51.16773920000014	6	0.25	True	"[-0.037037037037037035, -0.037037037037037035, -0.037037037037037035, -0.037037037037037035, -0.037037037037037035, -0.037037037037037035]"	"[-0.3685185185185185, -0.3685185185185185, -0.3685185185185185, -0.3685185185185185, -0.3685185185185185, -0.3685185185185185]"	"[1, 1, 1, 1, 1, 1]"	"[0, 0, 0, 0, 0, 0]"	"[0, 0, 0, 0, 0, 0]"	"[0.5644785999998021, 1.0476526999998441, 1.2893845999999485, 1.6227143999999498, 2.61446049999995, 2.831093099999862]"	6	"[0.5522512999998526, 1.0353803999998945, 1.2771135999998933, 1.6104404000000159, 2.602190599999858, 2.818817699999954]"	"[0.6685171999999966, 1.1686010999999326, 1.3936549000000014, 1.7437843000000157, 2.7353941999999734, 2.943857699999853]"	51.16846630000009	51.175430700000106	52.67406180000012									30	01	2024-02-21_09h11.53.942	BART_exp	2023.2.3	119.92205066696334	2024-02-21 09h12.04.935450 +0100	
balloon.png	92	0	4	4	21	52.6890449													52.67427429999998	52.6890449	52.6890449	52.6890449	52.6890449	52.6890449	0.007313500000009299	0.007313500000009299	0.007313500000009299	52.6890449	54.876874700000144	5	0.25	False	"[-0.037037037037037035, -0.037037037037037035, -0.037037037037037035, -0.037037037037037035, -0.037037037037037035, -0.037037037037037035]"	"[-0.3685185185185185, -0.3685185185185185, -0.3685185185185185, -0.3685185185185185, -0.3685185185185185, -0.3685185185185185]"	"[1, 1, 1, 1, 1, 0]"	"[0, 0, 0, 0, 0, 0]"	"[0, 0, 0, 0, 0, 1]"	"[0.708840999999893, 0.9421176999999261, 1.200555199999826, 1.6674032999999326, 1.900756599999795, 2.201144699999986]"	6	"[0.6992262000001119, 0.9324992000001657, 1.1909335000000283, 1.6578025000001162, 1.8911734000000706, 2.1916075999999975]"	"[0.8074950000000172, 1.074119699999983, 1.3241054000000076, 1.7741766000001462, 2.007699700000103, 2.191614800000025]"	54.87776810000014	54.88233400000013	56.37639400000012	56.38946610000016								30	01	2024-02-21_09h11.53.942	BART_exp	2023.2.3	119.92205066696334	2024-02-21 09h12.04.935450 +0100	
balloon.png	23	0	5	5	5	56.38946610000016													56.37667269999997	56.38946610000016	56.38946610000016	56.38946610000016	56.38946610000016	56.38946610000016	0.0003797999997914303	0.0003797999997914303	0.0003797999997914303	56.38946610000016	58.33458889999997	5	0.25	False	"[-0.037037037037037035, -0.037037037037037035, -0.037037037037037035, -0.037037037037037035, -0.037037037037037035, -0.037037037037037035]"	"[-0.3685185185185185, -0.3685185185185185, -0.3685185185185185, -0.3685185185185185, -0.3685185185185185, -0.3685185185185185]"	"[1, 1, 1, 1, 1, 0]"	"[0, 0, 0, 0, 0, 0]"	"[0, 0, 0, 0, 0, 1]"	"[0.5732599000000391, 1.1064452000000529, 1.3577808999998524, 1.5399853999999777, 1.6899071000000276, 1.9567078999998557]"	6	"[0.5656340000000455, 1.0988110999999208, 1.3503215999999156, 1.532361999999921, 1.6822738999999274, 1.9490203999998812]"	"[0.6820442999999159, 1.2820581999999376, 1.4904916999998932, 1.640339099999892, 1.7821466000000328, 1.9490246999998817]"	58.33530719999999	58.34087680000016	59.833175600000004	59.85028050000005								30	01	2024-02-21_09h11.53.942	BART_exp	2023.2.3	119.92205066696334	2024-02-21 09h12.04.935450 +0100	
balloon.png	66	0	6	6	15	59.85028050000005													59.83339870000009	59.85028050000005	59.85028050000005	59.85028050000005	59.85028050000005	59.85028050000005	-0.00043010000013055105	-0.00043010000013055105	-0.00043010000013055105	59.85028050000005	62.68483470000001	6	0.30	False	"[-0.037037037037037035, -0.037037037037037035, -0.037037037037037035, -0.037037037037037035, -0.037037037037037035, -0.037037037037037035, -0.037037037037037035]"	"[-0.3685185185185185, -0.3685185185185185, -0.3685185185185185, -0.3685185185185185, -0.3685185185185185, -0.3685185185185185, -0.3685185185185185]"	"[1, 1, 1, 1, 1, 1, 0]"	"[0, 0, 0, 0, 0, 0, 0]"	"[0, 0, 0, 0, 0, 0, 1]"	"[0.48364470000001347, 1.1002568999999767, 1.3170279999999366, 1.5003280999999333, 1.6501556999999138, 2.4418253999999706, 2.8503251999998156]"	7	"[0.47309199999995144, 1.0896761999999853, 1.3064692000000377, 1.489753999999948, 1.639591399999972, 2.4312419999998838, 2.8396797999998853]"	"[0.647535199999993, 1.2143734999999651, 1.4227872999999818, 1.5977465999999367, 1.7394707999999355, 2.4977453999999852, 2.8396838999999545]"	62.685695800000076	62.69117900000015	64.18372590000013	64.19993690000001								30	01	2024-02-21_09h11.53.942	BART_exp	2023.2.3	119.92205066696334	2024-02-21 09h12.04.935450 +0100	
balloon.png	14	0	7	7	3	64.19993690000001													64.183943	64.19993690000001	64.19993690000001	64.19993690000001	64.19993690000001	64.19993690000001	-0.00025540000001456065	-0.00025540000001456065	-0.00025540000001456065	64.19993690000001	68.05160680000017	7	0.35	False	"[-0.037037037037037035, -0.037037037037037035, -0.037037037037037035, -0.037037037037037035, -0.037037037037037035, -0.037037037037037035, -0.037037037037037035, -0.037037037037037035]"	"[-0.3685185185185185, -0.3685185185185185, -0.3685185185185185, -0.3685185185185185, -0.3685185185185185, -0.3685185185185185, -0.3685185185185185, -0.3685185185185185]"	"[1, 1, 1, 1, 1, 1, 1, 0]"	"[0, 0, 0, 0, 0, 0, 0, 0]"	"[0, 0, 0, 0, 0, 0, 0, 1]"	"[0.5249476999999843, 1.3249945000000025, 1.5670952000000398, 1.7668740999999955, 2.041518200000155, 3.2498897000000397, 3.4416705000001, 3.866563000000042]"	8	"[0.5147166000001562, 1.3147502000001623, 1.5569417000001522, 1.7567877000001317, 2.0312694000001557, 3.2396534000001793, 3.4314178000001903, 3.8562556000001678]"	"[0.6144066000001658, 1.439586400000053, 1.6396486000001005, 1.8730863000000681, 2.1645043000000896, 3.3394841000001634, 3.539611500000092, 3.8562599000001683]"	68.0523756	68.05818	69.5521397	69.56925940000019								30	01	2024-02-21_09h11.53.942	BART_exp	2023.2.3	119.92205066696334	2024-02-21 09h12.04.935450 +0100	
balloon.png	10	0	8	8	2	69.56925940000019													69.5524104000001	69.56925940000019	69.56925940000019	69.56925940000019	69.56925940000019	69.56925940000019	0.0015361000000666536	0.0015361000000666536	0.0015361000000666536	69.56925940000019	72.45203570000012	8	0.40	False	"[-0.037037037037037035, -0.037037037037037035, -0.037037037037037035, -0.037037037037037035, -0.037037037037037035, -0.037037037037037035, -0.037037037037037035, -0.037037037037037035, -0.037037037037037035]"	"[-0.3685185185185185, -0.3685185185185185, -0.3685185185185185, -0.3685185185185185, -0.3685185185185185, -0.3685185185185185, -0.3685185185185185, -0.3685185185185185, -0.3685185185185185]"	"[1, 1, 1, 1, 1, 1, 1, 1, 0]"	"[0, 0, 0, 0, 0, 0, 0, 0, 0]"	"[0, 0, 0, 0, 0, 0, 0, 0, 1]"	"[0.8362514000000374, 1.0235202999999728, 1.2316565000000992, 1.406955200000084, 1.5903364000000693, 1.814965900000061, 1.9986079000000245, 2.492307799999935, 2.898431099999925]"	9	"[0.8162077999998019, 1.011926499999845, 1.220046499999853, 1.3953672999998616, 1.5787660999999389, 1.803360399999974, 1.9870171000000028, 2.4807040999999117, 2.886754099999962]"	"[0.9076422999999068, 1.11989299999982, 1.3212903999999526, 1.5127707999999984, 1.6950925999999527, 1.8866270999999415, 2.095213599999852, 2.59513899999979, 2.8867584999998144]"	72.45279040000014	72.4586177000001	73.95078540000009	73.9596603								30	01	2024-02-21_09h11.53.942	BART_exp	2023.2.3	119.92205066696334	2024-02-21 09h12.04.935450 +0100	
balloon.png	75	0	9	9	17	73.9596603													73.95101620000014	73.9596603	73.9596603	73.9596603	73.9596603	73.9596603	-0.00028140000017629063	-0.00028140000017629063	-0.00028140000017629063	73.9596603	76.86897620000013	8	0.40	False	"[-0.037037037037037035, -0.037037037037037035, -0.037037037037037035, -0.037037037037037035, -0.037037037037037035, -0.037037037037037035, -0.037037037037037035, -0.037037037037037035, -0.037037037037037035]"	"[-0.3685185185185185, -0.3685185185185185, -0.3685185185185185, -0.3685185185185185, -0.3685185185185185, -0.3685185185185185, -0.3685185185185185, -0.3685185185185185, -0.3685185185185185]"	"[1, 1, 1, 1, 1, 1, 1, 1, 0]"	"[0, 0, 0, 0, 0, 0, 0, 0, 0]"	"[0, 0, 0, 0, 0, 0, 0, 0, 1]"	"[0.3422344999999041, 0.5588976999999886, 0.7588432999998531, 0.9421901999999136, 1.116902600000003, 1.275023999999803, 1.4501255999998648, 1.9503379999998742, 2.916880199999923]"	9	"[0.3389741999999387, 0.5556280999999217, 0.7556268000000728, 0.9390206000000489, 1.113582899999983, 1.2649956000000202, 1.4467878000000383, 1.9470103000001018, 2.9134828999999627]"	"[0.5052668000000722, 0.6799275999999281, 0.8633082999999715, 1.0235271999999895, 1.1799833000000035, 1.329982100000052, 1.5049822000000859, 2.063419300000078, 2.9134873000000425]"	76.86973740000008	76.87552570000003	78.36774200000013	78.38027870000019								30	01	2024-02-21_09h11.53.942	BART_exp	2023.2.3	119.92205066696334	2024-02-21 09h12.04.935450 +0100	
balloon.png	84	0	10	10	19	78.38027870000019													78.36795310000002	78.38027870000019	78.38027870000019	78.38027870000019	78.38027870000019	78.38027870000019	-0.00024080000002868474	-0.00024080000002868474	-0.00024080000002868474	78.38027870000019	81.46975110000017	9	0.45	False	"[-0.037037037037037035, -0.037037037037037035, -0.037037037037037035, -0.037037037037037035, -0.037037037037037035, -0.037037037037037035, -0.037037037037037035, -0.037037037037037035, -0.037037037037037035, -0.037037037037037035]"	"[-0.3685185185185185, -0.3685185185185185, -0.3685185185185185, -0.3685185185185185, -0.3685185185185185, -0.3685185185185185, -0.3685185185185185, -0.3685185185185185, -0.3685185185185185, -0.3685185185185185]"	"[1, 1, 1, 1, 1, 1, 1, 1, 1, 0]"	"[0, 0, 0, 0, 0, 0, 0, 0, 0, 0]"	"[0, 0, 0, 0, 0, 0, 0, 0, 0, 1]"	"[0.7002907999999479, 0.9420195000000149, 1.1504201000000194, 1.3586883999998918, 1.5419514000000163, 1.708793900000046, 1.8751589999999396, 2.0419263999999657, 2.55052569999998, 3.100611699999945]"	10	"[0.6937583000001268, 0.935485700000072, 1.1438998000000993, 1.3521685000000616, 1.5354081000000406, 1.7022621000000981, 1.8686285999999654, 2.035395600000129, 2.544006099999933, 3.094039900000098]"	"[0.8184332999999242, 1.0435024999999314, 1.251798400000098, 1.42820370000004, 1.593571699999984, 1.7684802000001127, 1.9450683000000026, 2.10186560000011, 2.6437144999999873, 3.094044500000109]"	81.47054630000002	81.47578240000007	82.96849040000006	82.97909770000001								30	01	2024-02-21_09h11.53.942	BART_exp	2023.2.3	119.92205066696334	2024-02-21 09h12.04.935450 +0100	
balloon.png	62	0	11	11	14	82.97909770000001													82.96888220000005	82.97909770000001	82.97909770000001	82.97909770000001	82.97909770000001	82.97909770000001	-1.8700000055105193e-05	-1.8700000055105193e-05	-1.8700000055105193e-05	82.97909770000001	85.11144960000001	5	0.25	False	"[-0.037037037037037035, -0.037037037037037035, -0.037037037037037035, -0.037037037037037035, -0.037037037037037035, -0.037037037037037035]"	"[-0.3685185185185185, -0.3685185185185185, -0.3685185185185185, -0.3685185185185185, -0.3685185185185185, -0.3685185185185185]"	"[1, 1, 1, 1, 1, 0]"	"[0, 0, 0, 0, 0, 0]"	"[0, 0, 0, 0, 0, 1]"	"[0.3743633999999929, 0.557942500000081, 0.916424300000017, 1.0996938000000682, 1.6497223000001213, 2.1413324000000102]"	6	"[0.3693697000001066, 0.5529569000000265, 0.9115977999999814, 1.0947544000000562, 1.6448173000001134, 2.136278100000027]"	"[0.4778240000000551, 0.8277943000000505, 1.0277298000000883, 1.212108599999965, 1.752840200000037, 2.136282299999948]"	85.11225630000013	85.11789640000006	86.61003219999998	86.61956320000013								30	01	2024-02-21_09h11.53.942	BART_exp	2023.2.3	119.92205066696334	2024-02-21 09h12.04.935450 +0100	
balloon.png	123	0	12	12	28	86.61956320000013													86.61026960000004	86.61956320000013	86.61956320000013	86.61956320000013	86.61956320000013	86.61956320000013	-0.0004748999999719672	-0.0004748999999719672	-0.0004748999999719672	86.61956320000013	88.63641600000005	6	0.30	False	"[-0.037037037037037035, -0.037037037037037035, -0.037037037037037035, -0.037037037037037035, -0.037037037037037035, -0.037037037037037035, -0.037037037037037035]"	"[-0.3685185185185185, -0.3685185185185185, -0.3685185185185185, -0.3685185185185185, -0.3685185185185185, -0.3685185185185185, -0.3685185185185185]"	"[1, 1, 1, 1, 1, 1, 0]"	"[0, 0, 0, 0, 0, 0, 0]"	"[0, 0, 0, 0, 0, 0, 1]"	"[0.5169369000000188, 0.7433786000001419, 1.0083741999999347, 1.2502827000000707, 1.4670604000000367, 1.6670627999999397, 2.0250906999999643]"	7	"[0.5128932999998597, 0.7394990999998754, 1.0043072999999367, 1.2462289999998575, 1.463025000000016, 1.6630256999999347, 2.0209626999999273]"	"[0.6541250000000218, 0.887469499999952, 1.1291956000000027, 1.3626380999999128, 1.5626788999998098, 1.7877536999999393, 2.0209672999999384]"	88.63715120000006	88.64303340000015	90.13524800000005	90.14930090000007								30	01	2024-02-21_09h11.53.942	BART_exp	2023.2.3	119.92205066696334	2024-02-21 09h12.04.935450 +0100	
balloon.png	57	0	13	13	13	90.14930090000007													90.13547549999998	90.14930090000007	90.14930090000007	90.14930090000007	90.14930090000007	90.14930090000007	-0.00017320000006293412	-0.00017320000006293412	-0.00017320000006293412	90.14930090000007	94.53687620000005	7	0.35	False	"[-0.037037037037037035, -0.037037037037037035, -0.037037037037037035, -0.037037037037037035, -0.037037037037037035, -0.037037037037037035, -0.037037037037037035, -0.037037037037037035]"	"[-0.3685185185185185, -0.3685185185185185, -0.3685185185185185, -0.3685185185185185, -0.3685185185185185, -0.3685185185185185, -0.3685185185185185, -0.3685185185185185]"	"[1, 1, 1, 1, 1, 1, 1, 0]"	"[0, 0, 0, 0, 0, 0, 0, 0]"	"[0, 0, 0, 0, 0, 0, 0, 1]"	"[0.3753405999998449, 0.6166826999999557, 0.8420298999999432, 1.0500818000000436, 2.200145799999973, 2.933734799999911, 3.9505291999998917, 4.400327599999855]"	8	"[0.3667416000000685, 0.6080598999999438, 0.8334073999999418, 1.0414573999998993, 2.191529599999967, 2.9251328000000285, 3.9419333000000734, 4.391643499999873]"	"[0.49138139999990926, 0.7246622000000116, 0.933412399999952, 1.1414288000000852, 2.3335027000000537, 3.0414937000000464, 4.066496200000074, 4.391647799999873]"	94.53760360000001	94.54333780000002	96.03565249999997	96.04975090000016								30	01	2024-02-21_09h11.53.942	BART_exp	2023.2.3	119.92205066696334	2024-02-21 09h12.04.935450 +0100	
balloon.png	127	0	14	14	29	96.04975090000016													96.03586960000007	96.04975090000016	96.04975090000016	96.04975090000016	96.04975090000016	96.04975090000016	-0.00025219999997716513	-0.00025219999997716513	-0.00025219999997716513	96.04975090000016	98.19544910000013	6	0.30	False	"[-0.037037037037037035, -0.037037037037037035, -0.037037037037037035, -0.037037037037037035, -0.037037037037037035, -0.037037037037037035, -0.037037037037037035]"	"[-0.3685185185185185, -0.3685185185185185, -0.3685185185185185, -0.3685185185185185, -0.3685185185185185, -0.3685185185185185, -0.3685185185185185]"	"[1, 1, 1, 1, 1, 1, 0]"	"[0, 0, 0, 0, 0, 0, 0]"	"[0, 0, 0, 0, 0, 0, 1]"	"[0.4917156999999861, 0.9667976000000635, 1.1919566000001396, 1.383537300000171, 1.5751027999999678, 1.7169585999999981, 2.158512700000074]"	7	"[0.48311199999989185, 0.9581980000000385, 1.1833606999998665, 1.374943599999824, 1.5665014999999585, 1.7083549999999832, 2.149853799999846]"	"[0.6247298999999202, 1.0580949999998666, 1.2415058999999928, 1.4664602000000286, 1.6330794000000424, 1.7998152000000118, 2.1498580999998467]"	98.19621940000002	98.20202300000005	99.69427689999998	99.7120797								30	01	2024-02-21_09h11.53.942	BART_exp	2023.2.3	119.92205066696334	2024-02-21 09h12.04.935450 +0100	
balloon.png	88	0	15	15	20	99.7120797													99.69449450000002	99.7120797	99.7120797	99.7120797	99.7120797	99.7120797	-0.00024210000015045807	-0.00024210000015045807	-0.00024210000015045807	99.7120797	102.17905070000006	6	0.30	False	"[-0.037037037037037035, -0.037037037037037035, -0.037037037037037035, -0.037037037037037035, -0.037037037037037035, -0.037037037037037035, -0.037037037037037035]"	"[-0.3685185185185185, -0.3685185185185185, -0.3685185185185185, -0.3685185185185185, -0.3685185185185185, -0.3685185185185185, -0.3685185185185185]"	"[1, 1, 1, 1, 1, 1, 0]"	"[0, 0, 0, 0, 0, 0, 0]"	"[0, 0, 0, 0, 0, 0, 1]"	"[0.3502395999998953, 0.766858799999909, 0.983666299999868, 1.1669236000000183, 1.366873399999804, 1.9921272999999928, 2.4834704999998394]"	7	"[0.3407015999998748, 0.7573052999998708, 0.9741334999998799, 1.1573730000000069, 1.3573322999998254, 1.9827084999999443, 2.4738499000000047]"	"[0.5990997999999763, 0.8736760999997841, 1.0490275999998175, 1.2403417999998965, 1.4736967999999706, 2.099014699999998, 2.473854099999926]"	102.17978490000019	102.18557540000006	103.6778961	103.6890793								30	01	2024-02-21_09h11.53.942	BART_exp	2023.2.3	119.92205066696334	2024-02-21 09h12.04.935450 +0100	
balloon.png	44	0	16	16	10	103.6890793													103.67812470000013	103.6890793	103.6890793	103.6890793	103.6890793	103.6890793	-0.00020670000003519817	-0.00020670000003519817	-0.00020670000003519817	103.6890793	106.23787400000015	8	0.40	False	"[-0.037037037037037035, -0.037037037037037035, -0.037037037037037035, -0.037037037037037035, -0.037037037037037035, -0.037037037037037035, -0.037037037037037035, -0.037037037037037035, -0.037037037037037035]"	"[-0.3685185185185185, -0.3685185185185185, -0.3685185185185185, -0.3685185185185185, -0.3685185185185185, -0.3685185185185185, -0.3685185185185185, -0.3685185185185185, -0.3685185185185185]"	"[1, 1, 1, 1, 1, 1, 1, 1, 0]"	"[0, 0, 0, 0, 0, 0, 0, 0, 0]"	"[0, 0, 0, 0, 0, 0, 0, 0, 1]"	"[0.29259159999992335, 0.5417347999998583, 0.7835925999997926, 1.010288699999819, 1.217042599999786, 1.4085779999998067, 1.6168811000000005, 2.0584086999999727, 2.5586704999998346]"	9	"[0.2870570999998563, 0.5359739999998965, 0.7778473999999278, 1.0047027999999045, 1.2112976999999319, 1.4028191999998398, 1.6111283000000185, 2.052644399999963, 2.5528503999998975]"	"[0.4441082999999253, 0.6608443999998599, 0.8942211999999472, 1.0857356999999865, 1.294293899999957, 1.4857591999998476, 1.7192145999999866, 2.194278899999972, 2.5528549000000567]"	106.23871140000006	106.24416800000017	107.73667300000011	107.75086039999997								30	01	2024-02-21_09h11.53.942	BART_exp	2023.2.3	119.92205066696334	2024-02-21 09h12.04.935450 +0100	
balloon.png	79	0	17	17	18	107.75086039999997													107.7369212000001	107.75086039999997	107.75086039999997	107.75086039999997	107.75086039999997	107.75086039999997	0.0006674999999631837	0.0006674999999631837	0.0006674999999631837	107.75086039999997	110.55886350000014	10	0.50	False	"[-0.037037037037037035, -0.037037037037037035, -0.037037037037037035, -0.037037037037037035, -0.037037037037037035, -0.037037037037037035, -0.037037037037037035, -0.037037037037037035, -0.037037037037037035, -0.037037037037037035]"	"[-0.3685185185185185, -0.3685185185185185, -0.3685185185185185, -0.3685185185185185, -0.3685185185185185, -0.3685185185185185, -0.3685185185185185, -0.3685185185185185, -0.3685185185185185, -0.3685185185185185]"	"[1, 1, 1, 1, 1, 1, 1, 1, 1, 0]"	"[0, 0, 0, 0, 0, 0, 0, 0, 0, 0]"	"[0, 0, 0, 0, 0, 0, 0, 0, 0, 1]"	"[0.2997275999998692, 0.5351619999999002, 0.7439445999998497, 0.9373255999998946, 1.116732299999967, 1.3252496000000065, 1.4943091000000095, 1.673100199999908, 2.3196949000000586, 2.820436799999925]"	10	"[0.292549599999802, 0.5279972999999245, 0.7368961999998191, 0.9301467999998749, 1.1095479999999043, 1.3180856999999833, 1.4871252999998887, 1.666108599999916, 2.312759099999994, 2.813196199999993]"	"[0.41750329999990754, 0.6255729999998039, 0.8197063000000071, 1.0039438999999675, 1.2017207999999755, 1.417811699999902, 1.595276899999817, 1.7677620999997998, 2.4073587999998836, 2.813200699999925]"	110.56032770000002	110.56639870000004	112.06153749999999									30	01	2024-02-21_09h11.53.942	BART_exp	2023.2.3	119.92205066696334	2024-02-21 09h12.04.935450 +0100	
balloon.png	49	0	18	18	11	112.07941610000012													112.06176230000005	112.07941610000012	112.07941610000012	112.07941610000012	112.07941610000012	112.07941610000012	0.0034570000000258005	0.0034570000000258005	0.0034570000000258005	112.07941610000012	114.3552572000001	5	0.25	False	"[-0.037037037037037035, -0.037037037037037035, -0.037037037037037035, -0.037037037037037035, -0.037037037037037035, -0.037037037037037035]"	"[-0.3685185185185185, -0.3685185185185185, -0.3685185185185185, -0.3685185185185185, -0.3685185185185185, -0.3685185185185185]"	"[1, 1, 1, 1, 1, 0]"	"[0, 0, 0, 0, 0, 0]"	"[0, 0, 0, 0, 0, 1]"	"[0.575672399999803, 0.7873222999999143, 0.9936996999999792, 1.1890003999999408, 1.3670955999998569, 2.2922790999998597]"	6	"[0.5634943999998541, 0.7751672999997936, 0.9815870999998424, 1.176799899999878, 1.3548699999998917, 2.280004199999894]"	"[0.6785608999998658, 0.8997334999999111, 1.104971199999909, 1.2796690000000126, 1.4544859000000088, 2.280011800000011]"	114.35610540000016	114.36140139999998	115.85386710000012	115.87007890000018								30	01	2024-02-21_09h11.53.942	BART_exp	2023.2.3	119.92205066696334	2024-02-21 09h12.04.935450 +0100	
balloon.png	114	0	19	19	26	115.87007890000018													115.85413700000004	115.87007890000018	115.87007890000018	115.87007890000018	115.87007890000018	115.87007890000018	-0.000391400000125941	-0.000391400000125941	-0.000391400000125941	115.87007890000018	118.5332214	9	0.45	False	"[-0.046296296296296294, -0.046296296296296294, -0.046296296296296294, -0.046296296296296294, -0.046296296296296294, -0.046296296296296294, -0.046296296296296294, -0.046296296296296294, -0.046296296296296294, -0.046296296296296294]"	"[-0.3768518518518518, -0.3768518518518518, -0.3768518518518518, -0.3768518518518518, -0.3768518518518518, -0.3768518518518518, -0.3768518518518518, -0.3768518518518518, -0.3768518518518518, -0.3768518518518518]"	"[1, 1, 1, 1, 1, 1, 1, 1, 1, 0]"	"[0, 0, 0, 0, 0, 0, 0, 0, 0, 0]"	"[0, 0, 0, 0, 0, 0, 0, 0, 0, 1]"	"[0.624990999999909, 0.8860924999999042, 1.1092217000000346, 1.3453299999998762, 1.5771283999999923, 1.7970413999998982, 2.0298992000000453, 2.2072524000000158, 2.376379699999916, 2.6777380000000903]"	10	"[0.6146935000001577, 0.8758086000000276, 1.0989062000001013, 1.3350211000001764, 1.5668317000001935, 1.786809200000107, 2.019715099999985, 2.197068000000172, 2.3662495000000945, 2.6674466000001757]"	"[0.7728374000000713, 0.9853358000000298, 1.2247656000001825, 1.4580024000001686, 1.6910897000000205, 1.9010949000000892, 2.122596200000089, 2.3146150000000034, 2.4895920999999817, 2.6674531000001025]"	118.5346383000001	118.54254680000008	120.03730670000004									30	01	2024-02-21_09h11.53.942	BART_exp	2023.2.3	119.92205066696334	2024-02-21 09h12.04.935450 +0100	
balloon.png	118	0	20	20	27	120.07301230000007													120.03769740000007	120.07301230000007	120.07301230000007	120.07301230000007	120.07301230000007	120.07301230000007	0.006600200000093537	0.006600200000093537	0.006600200000093537	120.07301230000007	124.61460520000014	9	0.45	False	"[-0.046296296296296294, -0.046296296296296294, -0.046296296296296294, -0.046296296296296294, -0.046296296296296294, -0.046296296296296294, -0.046296296296296294, -0.046296296296296294, -0.046296296296296294, -0.046296296296296294]"	"[-0.3768518518518518, -0.3768518518518518, -0.3768518518518518, -0.3768518518518518, -0.3768518518518518, -0.3768518518518518, -0.3768518518518518, -0.3768518518518518, -0.3768518518518518, -0.3768518518518518]"	"[1, 1, 1, 1, 1, 1, 1, 1, 1, 0]"	"[0, 0, 0, 0, 0, 0, 0, 0, 0, 0]"	"[0, 0, 0, 0, 0, 0, 0, 0, 0, 1]"	"[2.0480684999999994, 2.741870800000015, 2.944450199999892, 3.158863899999915, 3.377163699999983, 3.5990650999999616, 3.775918099999899, 3.9585010000000693, 4.207619000000022, 4.574437100000068]"	10	"[2.0233209000000443, 2.716946800000187, 2.919628800000055, 3.1340630000001966, 3.3523357000001397, 3.574275400000033, 3.7510838000000604, 3.9339512000001378, 4.183155100000022, 4.549447699999973]"	"[2.17850169999997, 2.8324150000000827, 3.032278099999985, 3.2219168000001446, 3.439602100000002, 3.6490885000000617, 3.8598868000001403, 4.057361200000059, 4.290459700000156, 4.5494522000001325]"	124.61547370000017	124.62055510000005	126.11278890000017	126.12946710000006								30	01	2024-02-21_09h11.53.942	BART_exp	2023.2.3	119.92205066696334	2024-02-21 09h12.04.935450 +0100	
balloon.png	97	0	21	21	22	126.12946710000006													126.11301739999999	126.12946710000006	126.12946710000006	126.12946710000006	126.12946710000006	126.12946710000006	-0.0009495000001606968	-0.0009495000001606968	-0.0009495000001606968	126.12946710000006	128.73501469999997	9	0.45	False	"[-0.046296296296296294, -0.046296296296296294, -0.046296296296296294, -0.046296296296296294, -0.046296296296296294, -0.046296296296296294, -0.046296296296296294, -0.046296296296296294, -0.046296296296296294, -0.046296296296296294]"	"[-0.3768518518518518, -0.3768518518518518, -0.3768518518518518, -0.3768518518518518, -0.3768518518518518, -0.3768518518518518, -0.3768518518518518, -0.3768518518518518, -0.3768518518518518, -0.3768518518518518]"	"[1, 1, 1, 1, 1, 1, 1, 1, 1, 0]"	"[0, 0, 0, 0, 0, 0, 0, 0, 0, 0]"	"[0, 0, 0, 0, 0, 0, 0, 0, 0, 1]"	"[0.3023547000000235, 0.5337306000001263, 0.7673091999999997, 1.000470899999982, 1.2338583000000654, 1.4416949999999815, 1.6354964000001928, 1.8283673000000817, 2.0190590000001976, 2.62061830000016]"	10	"[0.29123219999996763, 0.5225026999999045, 0.7560882999998739, 0.9892288999999437, 1.2226192999999057, 1.4304436999998416, 1.6243200999999772, 1.8173002999999426, 2.008103199999823, 2.609413399999994]"	"[0.44699339999988297, 0.65565289999995, 0.863736499999959, 1.0892147999998087, 1.3224903999998787, 1.5393784999998843, 1.7327591999999186, 1.9160635999999158, 2.121436899999935, 2.6094223000000056]"	128.73675049999997	128.7395067	130.2316237	130.24075170000015								30	01	2024-02-21_09h11.53.942	BART_exp	2023.2.3	119.92205066696334	2024-02-21 09h12.04.935450 +0100	
balloon.png	27	0	22	22	6	130.24075170000015													130.2320768000002	130.24075170000015	130.24075170000015	130.24075170000015	130.24075170000015	130.24075170000015	0.0040754999999990105	0.0040754999999990105	0.0040754999999990105	130.24075170000015	132.01464540000006	5	0.25	False	"[-0.046296296296296294, -0.046296296296296294, -0.046296296296296294, -0.046296296296296294, -0.046296296296296294, -0.046296296296296294]"	"[-0.3768518518518518, -0.3768518518518518, -0.3768518518518518, -0.3768518518518518, -0.3768518518518518, -0.3768518518518518]"	"[1, 1, 1, 1, 1, 0]"	"[0, 0, 0, 0, 0, 0]"	"[0, 0, 0, 0, 0, 1]"	"[0.5301872000000003, 0.7304037999999764, 0.9302275000000009, 1.0887089000000287, 1.246932999999899, 1.78050589999998]"	6	"[0.527846800000134, 0.7280677000001106, 0.927907500000174, 1.0863969000001816, 1.2445975000000544, 1.7781031000001803]"	"[0.6276785000000018, 0.8362045000001217, 1.002908400000024, 1.1777951999999914, 1.3529671999999664, 1.7781074000001809]"	132.01534379999998	132.0209894000002	133.51332430000002	133.52934879999998								30	01	2024-02-21_09h11.53.942	BART_exp	2023.2.3	119.92205066696334	2024-02-21 09h12.04.935450 +0100	
balloon.png	1	0	23	23	0	133.52934879999998													133.51354270000002	133.52934879999998	133.52934879999998	133.52934879999998	133.52934879999998	133.52934879999998	-0.0002868999999918742	-0.0002868999999918742	-0.0002868999999918742	133.52934879999998	134.17374200000017	2	0.05	True	"[-0.046296296296296294, -0.046296296296296294]"	"[-0.3768518518518518, -0.3768518518518518]"	"[1, 1]"	"[0, 0]"	"[0, 0]"	"[0.3169797999998991, 0.5501550999999836]"	2	"[0.30646520000004784, 0.5396150000001398]"	"[0.42269439999995484, 0.6393259999999827]"	134.17435320000004	134.1794215	135.67182460000004	135.68921690000002								30	01	2024-02-21_09h11.53.942	BART_exp	2023.2.3	119.92205066696334	2024-02-21 09h12.04.935450 +0100	
balloon.png	110	0	24	24	25	135.68921690000002													135.6720338	135.68921690000002	135.68921690000002	135.68921690000002	135.68921690000002	135.68921690000002	-0.0007545999999365449	-0.0007545999999365449	-0.0007545999999365449	135.68921690000002	138.72334160000014	6	0.30	False	"[-0.046296296296296294, -0.046296296296296294, -0.046296296296296294, -0.046296296296296294, -0.046296296296296294, -0.046296296296296294, -0.046296296296296294]"	"[-0.3768518518518518, -0.3768518518518518, -0.3768518518518518, -0.3768518518518518, -0.3768518518518518, -0.3768518518518518, -0.3768518518518518]"	"[1, 1, 1, 1, 1, 1, 0]"	"[0, 0, 0, 0, 0, 0, 0]"	"[0, 0, 0, 0, 0, 0, 1]"	"[0.7418367999998736, 0.9418656000000283, 1.2916837999998734, 1.7505912999999964, 2.2167910000000575, 2.68363260000001, 3.0501480000000356]"	7	"[0.7298723000001246, 0.9298928000000615, 1.2797096000001602, 1.7388218000000961, 2.2048520000000735, 2.6717111000000386, 3.038115600000083]"	"[0.8385087000001477, 1.0962561000001187, 1.4629448000000593, 1.8796314999999595, 2.338043200000129, 2.821371900000031, 3.038119800000004]"	138.72437730000001	138.72976080000012	140.22365639999998	140.23908100000017								30	01	2024-02-21_09h11.53.942	BART_exp	2023.2.3	119.92205066696334	2024-02-21 09h12.04.935450 +0100	
balloon.png	40	0	25	25	9	140.23908100000017													140.22392990000003	140.23908100000017	140.23908100000017	140.23908100000017	140.23908100000017	140.23908100000017	0.0020787999999356543	0.0020787999999356543	0.0020787999999356543	140.23908100000017	142.62378090000016	7	0.35	False	"[-0.046296296296296294, -0.046296296296296294, -0.046296296296296294, -0.046296296296296294, -0.046296296296296294, -0.046296296296296294, -0.046296296296296294, -0.046296296296296294]"	"[-0.3768518518518518, -0.3768518518518518, -0.3768518518518518, -0.3768518518518518, -0.3768518518518518, -0.3768518518518518, -0.3768518518518518, -0.3768518518518518]"	"[1, 1, 1, 1, 1, 1, 1, 0]"	"[0, 0, 0, 0, 0, 0, 0, 0]"	"[0, 0, 0, 0, 0, 0, 0, 1]"	"[0.33152180000001863, 0.6400175999999647, 0.923267800000076, 1.165197600000056, 1.4068529000001035, 1.640208199999961, 1.8983825000000252, 2.3985806000000593]"	7	"[0.6300994999999148, 0.9133478000001105, 1.1552874999999858, 1.3969374999999218, 1.6302978000001076, 1.8884588000000804, 2.3886110999999346]"	"[0.7966294000000289, 1.0382939999999508, 1.279993000000104, 1.5133058999999776, 1.746676799999932, 2.00678199999993, 2.388615399999935]"	142.6245639000001	142.63005500000008	144.12232630000017	144.13889010000003								30	01	2024-02-21_09h11.53.942	BART_exp	2023.2.3	119.92205066696334	2024-02-21 09h12.04.935450 +0100	
balloon.png	53	0	26	26	12	144.13889010000003													144.12254210000015	144.13889010000003	144.13889010000003	144.13889010000003	144.13889010000003	144.13889010000003	-0.0005045999998856132	-0.0005045999998856132	-0.0005045999998856132	144.13889010000003	147.9155366	7	0.35	False	"[-0.046296296296296294, -0.046296296296296294, -0.046296296296296294, -0.046296296296296294, -0.046296296296296294, -0.046296296296296294, -0.046296296296296294, -0.046296296296296294]"	"[-0.3768518518518518, -0.3768518518518518, -0.3768518518518518, -0.3768518518518518, -0.3768518518518518, -0.3768518518518518, -0.3768518518518518, -0.3768518518518518]"	"[1, 1, 1, 1, 1, 1, 1, 0]"	"[0, 0, 0, 0, 0, 0, 0, 0]"	"[0, 0, 0, 0, 0, 0, 0, 1]"	"[0.3333657000000585, 1.7421699999999873, 2.000117100000125, 2.2355047999999442, 2.4756130000000667, 2.9918153000000984, 3.2085056999999324, 3.7918879000001198]"	8	"[0.32216699999980847, 1.7309832999999344, 1.9889174999998431, 2.2243091000000277, 2.4645722000000205, 2.980656199999885, 3.1973392999998396, 3.780630199999905]"	"[1.4974708999998256, 1.93126929999994, 2.1640253999999004, 2.3888741999999183, 2.6555120999998962, 3.1472232999999505, 3.355603799999926, 3.7806344999999055]"	147.9164866000001	147.92213579999998	149.41596590000017	149.42949050000016								30	01	2024-02-21_09h11.53.942	BART_exp	2023.2.3	119.92205066696334	2024-02-21 09h12.04.935450 +0100	
balloon.png	18	0	27	27	4	149.42949050000016													149.41622189999998	149.42949050000016	149.42949050000016	149.42949050000016	149.42949050000016	149.42949050000016	0.0018116000001100474	0.0018116000001100474	0.0018116000001100474	149.42949050000016	152.14125009999998	6	0.30	False	"[-0.046296296296296294, -0.046296296296296294, -0.046296296296296294, -0.046296296296296294, -0.046296296296296294, -0.046296296296296294, -0.046296296296296294]"	"[-0.3768518518518518, -0.3768518518518518, -0.3768518518518518, -0.3768518518518518, -0.3768518518518518, -0.3768518518518518, -0.3768518518518518]"	"[1, 1, 1, 1, 1, 1, 0]"	"[0, 0, 0, 0, 0, 0, 0]"	"[0, 0, 0, 0, 0, 0, 1]"	"[0.2983102000000599, 0.9568214999999327, 1.1985055999998622, 1.4401225999999951, 2.0568659999999, 2.265061299999843, 2.723799099999951]"	7	"[0.2903182000000015, 0.9488433000001351, 1.1905117000001155, 1.4321330000000216, 2.0488718000001427, 2.2570685000000594, 2.7157658000000993]"	"[0.8818825000000743, 1.1152875000000222, 1.3403003000000808, 1.5903253999999833, 2.157086000000163, 2.3654723000001923, 2.715770200000179]"	152.14203429999998	152.14734520000002	153.6401181000001	153.64911000000006								30	01	2024-02-21_09h11.53.942	BART_exp	2023.2.3	119.92205066696334	2024-02-21 09h12.04.935450 +0100	
balloon.png	31	0	28	28	7	153.64911000000006													153.64033830000017	153.64911000000006	153.64911000000006	153.64911000000006	153.64911000000006	153.64911000000006	-4.319999993640522e-05	-4.319999993640522e-05	-4.319999993640522e-05	153.64911000000006	155.54186120000008	6	0.30	False	"[-0.046296296296296294, -0.046296296296296294, -0.046296296296296294, -0.046296296296296294, -0.046296296296296294, -0.046296296296296294, -0.046296296296296294]"	"[-0.3768518518518518, -0.3768518518518518, -0.3768518518518518, -0.3768518518518518, -0.3768518518518518, -0.3768518518518518, -0.3768518518518518]"	"[1, 1, 1, 1, 1, 1, 0]"	"[0, 0, 0, 0, 0, 0, 0]"	"[0, 0, 0, 0, 0, 0, 1]"	"[0.2911471999998412, 0.5002348000000438, 0.7080380999998397, 0.9247272000000066, 1.1247349000000213, 1.3081167999998797, 1.900089699999853]"	7	"[0.27996889999985797, 0.49676660000000084, 0.7045619000000443, 0.9212313999998969, 1.1212459000000763, 1.3046649999998863, 1.8966460999999981]"	"[0.4296729999998661, 0.6376118999999107, 0.8376031999998759, 1.0296045999998569, 1.212890199999947, 1.379564000000073, 1.8966527000000042]"	155.5426762000002	155.54766170000016	157.03987189999998	157.0494966000001								30	01	2024-02-21_09h11.53.942	BART_exp	2023.2.3	119.92205066696334	2024-02-21 09h12.04.935450 +0100	
balloon.png	71	0	29	29	16	157.0494966000001													157.04008540000018	157.0494966000001	157.0494966000001	157.0494966000001	157.0494966000001	157.0494966000001	-0.0007849000000987871	-0.0007849000000987871	-0.0007849000000987871	157.0494966000001	158.81661440000016	6	0.30	False	"[-0.046296296296296294, -0.046296296296296294, -0.046296296296296294, -0.046296296296296294, -0.046296296296296294, -0.046296296296296294, -0.046296296296296294]"	"[-0.3768518518518518, -0.3768518518518518, -0.3768518518518518, -0.3768518518518518, -0.3768518518518518, -0.3768518518518518, -0.3768518518518518]"	"[1, 1, 1, 1, 1, 1, 0]"	"[0, 0, 0, 0, 0, 0, 0]"	"[0, 0, 0, 0, 0, 0, 1]"	"[0.07504930000004606, 0.30016710000018065, 0.5168064000001777, 0.7335811000000376, 0.9419099000001552, 1.2920062000000598, 1.775394500000175]"	7	"[0.07093959999997423, 0.29611660000000484, 0.5127078000000438, 0.7294853999999305, 0.9378077999999732, 1.2879189000000224, 1.771242999999913]"	"[0.2290574999999535, 0.43749559999992016, 0.6292074000000412, 0.8208845999999994, 1.0626385000000482, 1.404311000000007, 1.7712470999999823]"	158.8173601000001	158.82285079999997	160.31511120000005	160.32313720000002								30	01	2024-02-21_09h11.53.942	BART_exp	2023.2.3	119.92205066696334	2024-02-21 09h12.04.935450 +0100	
																																														160.3151514000001	160.32313720000002	160.32313720000002	175.72474120000015	space	15.400515700000142	None	30	01	2024-02-21_09h11.53.942	BART_exp	2023.2.3	119.92205066696334	2024-02-21 09h12.04.935450 +0100	
