"image"	"max_pumps"	"pump_loop.thisRepN"	"pump_loop.thisTrialN"	"pump_loop.thisN"	"pump_loop.thisIndex"	"thisRow.t"	"notes"	"Start.started"	"text_start.started"	"continue_start.started"	"mouse_start.started"	"Start.stopped"	"mouse_start.x"	"mouse_start.y"	"mouse_start.leftButton"	"mouse_start.midButton"	"mouse_start.rightButton"	"mouse_start.time"	"trials.started"	"stim_balloon.started"	"stim_balloon_burst.started"	"stim_balloon_burst.stopped"	"text_ballon_value.started"	"text_bank.started"	"mouse.started"	"sound_bang.started"	"sound_bang.stopped"	"button_balloon.started"	"trials.stopped"	"n_pumps"	"earnings"	"popped"	"mouse.x"	"mouse.y"	"mouse.leftButton"	"mouse.midButton"	"mouse.rightButton"	"mouse.time"	"button_balloon.numClicks"	"button_balloon.timesOn"	"button_balloon.timesOff"	"Feedback.started"	"text_feedback.started"	"Feedback.stopped"	"text_feedback.stopped"	"End.started"	"text_end.started"	"key_end.started"	"End.stopped"	"key_end.keys"	"key_end.rt"	"key_end.duration"	"participant"	"session"	"date"	"expName"	"psychopyVersion"	"frameRate"	"expStart"	"...61"
NA	NA	NA	NA	NA	NA	NA	NA	0.00398730009328573	0.014903400093317	0.014903400093317	0.00480410002637654	9.9024822000647	"[0.6541666666666667]"	"[-0.42083333333333334]"	"[1]"	"[0]"	"[0]"	"[9.894632099894807]"	NA	NA	NA	NA	NA	NA	NA	NA	NA	NA	NA	NA	NA	NA	NA	NA	NA	NA	NA	NA	NA	NA	NA	NA	NA	NA	NA	NA	NA	NA	NA	NA	NA	NA	"01"	"03"	"2023-12-13_13h16.56.573"	"BART_exp"	"2023.2.2"	"None"	"2023-12-13 13h17.14.762332 +0100"	NA
"balloon.png"	10	0	0	0	2	10.0348229000811	NA	NA	NA	NA	NA	NA	NA	NA	NA	NA	NA	NA	9.91424710000865	10.0348229000811	10.0348229000811	10.0348229000811	10.0348229000811	10.0348229000811	0.0134338999632746	0.0134338999632746	0.0134338999632746	10.0348229000811	12.8330874000676	11	0.5	TRUE	"[0.0525, 0.056666666666666664, 0.056666666666666664, 0.056666666666666664, 0.056666666666666664, 0.056666666666666664, 0.056666666666666664, 0.056666666666666664, 0.056666666666666664, 0.056666666666666664, 0.056666666666666664]"	"[-0.3858333333333333, -0.3875, -0.3875, -0.3875, -0.3875, -0.3875, -0.3875, -0.3875, -0.3875, -0.3875, -0.3875]"	"[1, 1, 1, 1, 1, 1, 1, 1, 1, 1, 1]"	"[0, 0, 0, 0, 0, 0, 0, 0, 0, 0, 0]"	"[0, 0, 0, 0, 0, 0, 0, 0, 0, 0, 0]"	"[1.0140426000580192, 1.2134638000279665, 1.3942162999883294, 1.5613659999798983, 1.7453517999965698, 1.9134701000293717, 2.0622297000372782, 2.2614645999856293, 2.446330700069666, 2.6264011000748724, 2.7930662999860942]"	11	"[0.906512500019744, 1.1060411999933422, 1.286639100057073, 1.4538264999864623, 1.637786200037226, 1.8058903000783175, 1.9546520999865606, 2.1539113000035286, 2.3387565000448376, 2.518827800056897, 2.685490000061691]"	"[0.9866001000627875, 1.1530468000564724, 1.3387716000434011, 1.4863512000301853, 1.6858708000509068, 1.9041817000834271, 2.0385695000877604, 2.2192123000277206, 2.385052700061351, 2.5524800000712276, 2.752299900050275]"	12.8371858000755	12.9148975000717	14.3389862000477	NA	NA	NA	NA	NA	NA	NA	NA	"01"	"03"	"2023-12-13_13h16.56.573"	"BART_exp"	"2023.2.2"	"None"	"2023-12-13 13h17.14.762332 +0100"	NA
"balloon.png"	110	0	1	1	25	14.425851100008	NA	NA	NA	NA	NA	NA	NA	NA	NA	NA	NA	NA	14.3392712000059	14.425851100008	14.425851100008	14.425851100008	14.425851100008	14.425851100008	0.00365730002522468	0.00365730002522468	0.00365730002522468	14.425851100008	17.5417181000812	17	0.85	FALSE	"[0.059166666666666666, 0.059166666666666666, 0.059166666666666666, 0.059166666666666666, 0.059166666666666666, 0.06, 0.06, 0.060833333333333336, 0.060833333333333336, 0.0625, 0.0625, 0.0625, 0.0625, 0.0625, 0.0625, 0.0625, 0.07]"	"[-0.3825, -0.3825, -0.3825, -0.3825, -0.3825, -0.3825, -0.3825, -0.3825, -0.3825, -0.3825, -0.38416666666666666, -0.38416666666666666, -0.38416666666666666, -0.38416666666666666, -0.38416666666666666, -0.3825, -0.23416666666666666]"	"[1, 1, 1, 1, 1, 1, 1, 1, 1, 1, 1, 1, 1, 1, 1, 1, 0]"	"[0, 0, 0, 0, 0, 0, 0, 0, 0, 0, 0, 0, 0, 0, 0, 0, 0]"	"[0, 0, 0, 0, 0, 0, 0, 0, 0, 0, 0, 0, 0, 0, 0, 0, 1]"	"[0.16740260005462915, 0.3337787000928074, 0.5178991000866517, 0.7030295000877231, 0.8701035000849515, 1.049674200010486, 1.2340685999952257, 1.4169588000513613, 1.5833062999881804, 1.76736970001366, 1.9499343000352383, 2.1351548000238836, 2.3347847000695765, 2.502071800059639, 2.6824329000664875, 2.8673586000222713, 3.2011718000285327]"	15	"[0.09061520011164248, 0.25699460005853325, 0.4411236000014469, 0.6262547000078484, 0.7933189000468701, 0.9728947000112385, 1.157368400017731, 1.3401665000710636, 1.5065481000347063, 1.6905991000821814, 1.87315130000934, 2.0583725000033155, 2.4252842999994755, 2.60564060008619, 2.790593500016257]"	"[0.1565374000929296, 0.30987460003234446, 0.4895412001060322, 0.656488100066781, 0.8425371000776067, 1.0255087000550702, 1.205886600073427, 1.3724680000450462, 1.5587752000428736, 1.7387196000199765, 1.9251156999962404, 2.291898100054823, 2.4590592000167817, 2.638425000011921, 2.824206600082107]"	17.5427690000506	17.561473900103	19.0528718000278	NA	NA	NA	NA	NA	NA	NA	NA	"01"	"03"	"2023-12-13_13h16.56.573"	"BART_exp"	"2023.2.2"	"None"	"2023-12-13 13h17.14.762332 +0100"	NA
"balloon.png"	105	0	2	2	24	19.0759545000037	NA	NA	NA	NA	NA	NA	NA	NA	NA	NA	NA	NA	19.0531393000856	19.0759545000037	19.0759545000037	19.0759545000037	19.0759545000037	19.0759545000037	0.0117335000541061	0.0117335000541061	0.0117335000541061	19.0759545000037	22.4718059001025	17	0.85	FALSE	"[0.035, 0.035, 0.035, 0.035, 0.035, 0.03916666666666667, 0.03916666666666667, 0.03916666666666667, 0.03916666666666667, 0.03916666666666667, 0.03916666666666667, 0.03916666666666667, 0.03916666666666667, 0.03916666666666667, 0.03916666666666667, 0.03916666666666667, 0.04083333333333333, 0.06416666666666666]"	"[-0.3925, -0.3925, -0.3925, -0.3925, -0.3925, -0.38666666666666666, -0.38333333333333336, -0.38333333333333336, -0.38333333333333336, -0.38333333333333336, -0.38333333333333336, -0.38333333333333336, -0.38333333333333336, -0.38333333333333336, -0.38333333333333336, -0.3825, -0.3825, -0.2725]"	"[1, 1, 1, 1, 1, 1, 1, 1, 1, 1, 1, 1, 1, 1, 1, 1, 1, 0]"	"[0, 0, 0, 0, 0, 0, 0, 0, 0, 0, 0, 0, 0, 0, 0, 0, 0, 0]"	"[0, 0, 0, 0, 0, 0, 0, 0, 0, 0, 0, 0, 0, 0, 0, 0, 0, 1]"	"[0.23378260002937168, 0.4341363999992609, 0.6194874999346212, 0.7867181999608874, 0.9664614000357687, 1.1521838000044227, 1.35506989993155, 1.5324719999916852, 1.733188199927099, 1.9185491999378428, 2.0995173000264913, 2.2852209999691695, 2.4653601000318304, 2.6650508999591693, 2.8521535999607295, 3.0314774999860674, 3.217617899994366, 3.417403099942021]"	17	"[0.2211423999397084, 0.42149639991112053, 0.6068480999674648, 0.7741105000022799, 0.9538193999323994, 1.1395394999999553, 1.3424365998944268, 1.519828199991025, 1.7205405998975039, 1.9059113999828696, 2.086882899980992, 2.272570899920538, 2.4527197999414057, 2.6524046999402344, 2.8395715999649838, 3.018834299989976, 3.2049789999146014]"	"[0.2871073998976499, 0.45366119989193976, 0.6536076999036595, 0.8401292999042198, 1.0532929999753833, 1.2198562999255955, 1.3868679999141023, 1.5862768999068066, 1.772722499910742, 1.9526452999562025, 2.1527378999162465, 2.3394262999063358, 2.5190157999750227, 2.7051936999196187, 2.8856872000033036, 3.069920999929309, 3.2382710999809206]"	22.4728796000127	22.4835981000215	23.9687248000409	23.9827845001128	NA	NA	NA	NA	NA	NA	NA	"01"	"03"	"2023-12-13_13h16.56.573"	"BART_exp"	"2023.2.2"	"None"	"2023-12-13 13h17.14.762332 +0100"	NA
"balloon.png"	36	0	3	3	8	23.9827845001128	NA	NA	NA	NA	NA	NA	NA	NA	NA	NA	NA	NA	23.9689662000164	23.9827845001128	23.9827845001128	23.9827845001128	23.9827845001128	23.9827845001128	0.0101512999972328	0.0101512999972328	0.0101512999972328	23.9827845001128	27.149991500075	16	0.8	FALSE	"[0.028333333333333332, 0.028333333333333332, 0.028333333333333332, 0.028333333333333332, 0.028333333333333332, 0.028333333333333332, 0.028333333333333332, 0.028333333333333332, 0.028333333333333332, 0.028333333333333332, 0.028333333333333332, 0.028333333333333332, 0.028333333333333332, 0.028333333333333332, 0.028333333333333332, 0.028333333333333332, 0.045]"	"[-0.41, -0.41, -0.41, -0.41, -0.4083333333333333, -0.4083333333333333, -0.405, -0.39916666666666667, -0.39916666666666667, -0.39916666666666667, -0.39916666666666667, -0.39916666666666667, -0.39916666666666667, -0.3983333333333333, -0.3983333333333333, -0.3983333333333333, -0.275]"	"[1, 1, 1, 1, 1, 1, 1, 1, 1, 1, 1, 1, 1, 1, 1, 1, 0]"	"[0, 0, 0, 0, 0, 0, 0, 0, 0, 0, 0, 0, 0, 0, 0, 0, 0]"	"[0, 0, 0, 0, 0, 0, 0, 0, 0, 0, 0, 0, 0, 0, 0, 0, 1]"	"[0.10264649998862296, 0.3141198999946937, 0.4814122000243515, 0.6807318999199197, 0.8806865999940783, 1.0667046000016853, 1.2329181999666616, 1.4328144999453798, 1.613628700026311, 1.8133004999253899, 1.999542300007306, 2.179635899956338, 2.366122999927029, 2.5794163999380544, 2.765543899964541, 2.9128418000182137, 3.1797489000018686]"	16	"[0.10038499999791384, 0.3118580000009388, 0.47914519999176264, 0.6784640999976546, 0.8784178000641987, 1.0644480000482872, 1.2306579999858513, 1.4305485000368208, 1.611367900040932, 1.8110360000282526, 1.9972871000645682, 2.177391199977137, 2.363858600030653, 2.577157499967143, 2.7632806000765413, 2.91057239996735]"	"[0.16523679997771978, 0.364230600069277, 0.5451729000778869, 0.7450636000139639, 0.9288582999724895, 1.111545699997805, 1.3111387999961153, 1.4978956000413746, 1.663904800079763, 1.86157299997285, 2.04413390008267, 2.230452800053172, 2.4297309999819845, 2.6104834000580013, 2.809992800001055, 2.9633674999931827]"	27.1509838000638	27.1657943000318	28.6649097000482	NA	NA	NA	NA	NA	NA	NA	NA	"01"	"03"	"2023-12-13_13h16.56.573"	"BART_exp"	"2023.2.2"	"None"	"2023-12-13 13h17.14.762332 +0100"	NA
"balloon.png"	31	0	4	4	7	28.7117701000534	NA	NA	NA	NA	NA	NA	NA	NA	NA	NA	NA	NA	28.6655084000668	28.7117701000534	28.7117701000534	28.7117701000534	28.7117701000534	28.7117701000534	0.0163918000180274	0.0163918000180274	0.0163918000180274	28.7117701000534	32.2339363000356	17	0.85	FALSE	"[0.055, 0.055, 0.055, 0.055, 0.055, 0.055, 0.055, 0.055, 0.055, 0.055, 0.055, 0.055, 0.055, 0.055, 0.055, 0.055, 0.055, 0.07166666666666667]"	"[-0.385, -0.385, -0.385, -0.385, -0.385, -0.385, -0.385, -0.385, -0.385, -0.385, -0.385, -0.385, -0.385, -0.385, -0.385, -0.385, -0.385, -0.28]"	"[1, 1, 1, 1, 1, 1, 1, 1, 1, 1, 1, 1, 1, 1, 1, 1, 1, 0]"	"[0, 0, 0, 0, 0, 0, 0, 0, 0, 0, 0, 0, 0, 0, 0, 0, 0, 0]"	"[0, 0, 0, 0, 0, 0, 0, 0, 0, 0, 0, 0, 0, 0, 0, 0, 0, 1]"	"[0.33552029996644706, 0.5150379999540746, 0.7004618999781087, 0.8809903999790549, 1.0806691999314353, 1.2806112000253052, 1.4667735999682918, 1.6666529999347404, 1.866929700016044, 2.0467207999899983, 2.2335593999596313, 2.4132196999853477, 2.599609400029294, 2.7801157999783754, 2.9657787999603897, 3.1307231999235228, 3.3125693999463692, 3.567004199954681]"	17	"[0.29874120000749826, 0.4780653000343591, 0.6634957999922335, 0.8440132000250742, 1.0437037000665441, 1.243640200002119, 1.429803999955766, 1.629676999989897, 1.8299660000484437, 2.0097533999942243, 2.196594399982132, 2.3762479999568313, 2.5626344999764115, 2.7431445999536663, 2.9288117999676615, 3.0937625999795273, 3.275600300054066]"	"[0.34393930004443973, 0.5299561000429094, 0.7105173000600189, 0.9103692000498995, 1.0958533000666648, 1.2971405000425875, 1.510082000051625, 1.676658199983649, 1.88021650002338, 2.0431747999973595, 2.2426189000252634, 2.428387699997984, 2.6090542000019923, 2.795206999988295, 2.975541500025429, 3.1426594000076875, 3.3425326000433415]"	32.2350080000469	32.2442135000601	33.7296057000058	33.7429815001087	NA	NA	NA	NA	NA	NA	NA	"01"	"03"	"2023-12-13_13h16.56.573"	"BART_exp"	"2023.2.2"	"None"	"2023-12-13 13h17.14.762332 +0100"	NA
"balloon.png"	75	0	5	5	17	33.7429815001087	NA	NA	NA	NA	NA	NA	NA	NA	NA	NA	NA	NA	33.7298745000735	33.7429815001087	33.7429815001087	33.7429815001087	33.7429815001087	33.7429815001087	0.00809730007313191	0.00809730007313191	0.00809730007313191	33.7429815001087	36.7095409000758	15	0.75	FALSE	"[0.0675, 0.0675, 0.0675, 0.07, 0.07, 0.07, 0.06916666666666667, 0.06833333333333333, 0.06833333333333333, 0.06833333333333333, 0.06833333333333333, 0.06833333333333333, 0.06833333333333333, 0.06833333333333333, 0.058333333333333334]"	"[-0.3883333333333333, -0.3883333333333333, -0.3883333333333333, -0.3883333333333333, -0.3883333333333333, -0.3883333333333333, -0.38666666666666666, -0.3858333333333333, -0.3858333333333333, -0.3858333333333333, -0.3858333333333333, -0.3858333333333333, -0.3858333333333333, -0.3858333333333333, -0.2841666666666667]"	"[1, 1, 1, 1, 1, 1, 1, 1, 1, 1, 1, 1, 1, 1, 0]"	"[0, 0, 0, 0, 0, 0, 0, 0, 0, 0, 0, 0, 0, 0, 0]"	"[0, 0, 0, 0, 0, 0, 0, 0, 0, 0, 0, 0, 0, 0, 1]"	"[0.20024889998603612, 0.41388819995336235, 0.6001216999720782, 0.7802642999449745, 1.0330607999349013, 1.1997162000043318, 1.3975120999384671, 1.5972219000104815, 1.7988178000086918, 1.999261499964632, 2.1793529000133276, 2.3658383999718353, 2.564852699986659, 2.7317292999941856, 2.978366700001061]"	15	"[0.0360538000240922, 0.19817069999407977, 0.41180360002908856, 0.5980400999542326, 0.7781807000283152, 1.030982300057076, 1.197643700055778, 1.3954361999640241, 1.595328600029461, 1.7967369999969378, 1.997179500060156, 2.1772658999543637, 2.363750300020911, 2.5627701999619603, 2.729646399966441]"	"[0.09800400002859533, 0.29773230000864714, 0.4643894999753684, 0.6111127999611199, 0.9112524000229314, 1.0778755999635905, 1.2636897000484169, 1.4614855999825522, 1.6618903999915347, 1.8639160000020638, 2.0630959999980405, 2.2437499000225216, 2.4279017000226304, 2.6299196999752894, 2.796154999989085]"	36.7105138000334	36.7267441001022	38.2252817000262	NA	NA	NA	NA	NA	NA	NA	NA	"01"	"03"	"2023-12-13_13h16.56.573"	"BART_exp"	"2023.2.2"	"None"	"2023-12-13 13h17.14.762332 +0100"	NA
"balloon.png"	23	0	6	6	5	38.2593133000191	NA	NA	NA	NA	NA	NA	NA	NA	NA	NA	NA	NA	38.2259271000512	38.2593133000191	38.2593133000191	38.2593133000191	38.2593133000191	38.2593133000191	0.017411999986507	0.017411999986507	0.017411999986507	38.2593133000191	41.4236202000175	16	0.8	FALSE	"[0.028333333333333332, 0.028333333333333332, 0.028333333333333332, 0.025833333333333333, 0.025833333333333333, 0.025833333333333333, 0.025833333333333333, 0.025833333333333333, 0.025833333333333333, 0.025833333333333333, 0.025833333333333333, 0.025833333333333333, 0.025833333333333333, 0.025833333333333333, 0.025833333333333333, 0.0475]"	"[-0.38083333333333336, -0.38083333333333336, -0.38083333333333336, -0.37916666666666665, -0.37916666666666665, -0.37916666666666665, -0.37916666666666665, -0.37916666666666665, -0.37916666666666665, -0.37833333333333335, -0.37833333333333335, -0.37833333333333335, -0.37833333333333335, -0.37833333333333335, -0.37833333333333335, -0.2841666666666667]"	"[1, 1, 1, 1, 1, 1, 1, 1, 1, 1, 1, 1, 1, 1, 1, 0]"	"[0, 0, 0, 0, 0, 0, 0, 0, 0, 0, 0, 0, 0, 0, 0, 0]"	"[0, 0, 0, 0, 0, 0, 0, 0, 0, 0, 0, 0, 0, 0, 0, 1]"	"[0.1678832999896258, 0.3673639999469742, 0.5477320000063628, 0.7478732999879867, 0.9476383000146598, 1.1346034000162035, 1.333593999966979, 1.5335390999680385, 1.700670599937439, 1.91327789996285, 2.0972219000104815, 2.279678800026886, 2.446584100020118, 2.6462763999588788, 2.8148988999892026, 3.1962546999566257]"	15	"[0.1443102000048384, 0.34378300001844764, 0.5241520000854507, 0.724289600038901, 0.9240584000945091, 1.111056900001131, 1.31001490005292, 1.5099611000623554, 1.6770880999974906, 1.889702400076203, 2.073892100015655, 2.256102600018494, 2.423004399985075, 2.6226919000037014, 2.791328000021167]"	"[0.2434181000571698, 0.41020929999649525, 0.5907841000007465, 0.7905841000610963, 0.9903575000353158, 1.1765581000363454, 1.3762315000640228, 1.5765690000262111, 1.756555400090292, 1.9565712000476196, 2.1231330999871716, 2.3090688000665978, 2.489635600009933, 2.6761561000021175, 2.9228106000227854]"	41.4247449000832	41.439766000025	42.9390677000629	NA	NA	NA	NA	NA	NA	NA	NA	"01"	"03"	"2023-12-13_13h16.56.573"	"BART_exp"	"2023.2.2"	"None"	"2023-12-13 13h17.14.762332 +0100"	NA
"balloon.png"	57	0	7	7	13	42.9945479000453	NA	NA	NA	NA	NA	NA	NA	NA	NA	NA	NA	NA	42.939643700025	42.9945479000453	42.9945479000453	42.9945479000453	42.9945479000453	42.9945479000453	0.0165019000414759	0.0165019000414759	0.0165019000414759	42.9945479000453	47.1379169001011	20	1	FALSE	"[0.06666666666666667, 0.06583333333333333, 0.06583333333333333, 0.06583333333333333, 0.06583333333333333, 0.06583333333333333, 0.06583333333333333, 0.06583333333333333, 0.06583333333333333, 0.06583333333333333, 0.06583333333333333, 0.06583333333333333, 0.06583333333333333, 0.06583333333333333, 0.06583333333333333, 0.06583333333333333, 0.06583333333333333, 0.06583333333333333, 0.06583333333333333, 0.06583333333333333, 0.07083333333333333]"	"[-0.385, -0.385, -0.385, -0.38416666666666666, -0.38416666666666666, -0.38416666666666666, -0.38416666666666666, -0.38416666666666666, -0.38416666666666666, -0.38333333333333336, -0.38333333333333336, -0.38333333333333336, -0.38333333333333336, -0.38333333333333336, -0.38333333333333336, -0.38333333333333336, -0.38333333333333336, -0.38333333333333336, -0.38333333333333336, -0.38333333333333336, -0.2925]"	"[1, 1, 1, 1, 1, 1, 1, 1, 1, 1, 1, 1, 1, 1, 1, 1, 1, 1, 1, 1, 0]"	"[0, 0, 0, 0, 0, 0, 0, 0, 0, 0, 0, 0, 0, 0, 0, 0, 0, 0, 0, 0, 0]"	"[0, 0, 0, 0, 0, 0, 0, 0, 0, 0, 0, 0, 0, 0, 0, 0, 0, 0, 0, 0, 1]"	"[0.382232700008899, 0.5672890999121591, 0.7674118999857455, 0.9666751999175176, 1.1472435999894515, 1.3315266999416053, 1.5336186999920756, 1.7341271999757737, 1.9329740999964997, 2.1133434999501333, 2.3151557999663055, 2.4976552999578416, 2.6795436999527737, 2.8658916999120265, 3.0458396999165416, 3.2460538999876007, 3.465159500017762, 3.632211899966933, 3.7988308999920264, 3.9652863999363035, 4.196837599971332]"	20	"[0.3362741000019014, 0.5213393999729306, 0.7214559999993071, 0.9207197000505403, 1.1012799000600353, 1.2856451000552624, 1.4876626000041142, 1.688170799985528, 1.8870175000047311, 2.0673859000671655, 2.2692179000005126, 2.4517200000118464, 2.6335820000385866, 2.8199233000632375, 2.999883000040427, 3.2000998000148684, 3.419198799994774, 3.5862548999721184, 3.7528840000741184, 3.919331800076179]"	"[0.38778550003189594, 0.5861856000265107, 0.7679071000311524, 0.9683652999810874, 1.168017000076361, 1.367652100045234, 1.5538184000179172, 1.7538669999921694, 1.9534010000061244, 2.154476399999112, 2.3210491000209004, 2.519625300075859, 2.700208400026895, 2.8844384000403807, 3.066973300068639, 3.266631899983622, 3.451926700072363, 3.6328096999786794, 3.7994666000595316, 3.9994109000544995]"	47.1390442000702	47.1505592000903	48.6363670000574	48.7220701000188	NA	NA	NA	NA	NA	NA	NA	"01"	"03"	"2023-12-13_13h16.56.573"	"BART_exp"	"2023.2.2"	"None"	"2023-12-13 13h17.14.762332 +0100"	NA
"balloon.png"	84	0	8	8	19	48.7220701000188	NA	NA	NA	NA	NA	NA	NA	NA	NA	NA	NA	NA	48.6366704000393	48.7220701000188	48.7220701000188	48.7220701000188	48.7220701000188	48.7220701000188	-0.00083769997581839	-0.00083769997581839	-0.00083769997581839	48.7220701000188	53.2173683000728	20	1	FALSE	"[0.06, 0.06, 0.06, 0.06, 0.06, 0.06, 0.06, 0.06, 0.06, 0.06, 0.06, 0.06, 0.06, 0.06, 0.06, 0.06, 0.06, 0.06, 0.0575, 0.0575, 0.07583333333333334]"	"[-0.3725, -0.3725, -0.3725, -0.3725, -0.3725, -0.3725, -0.3725, -0.3725, -0.3725, -0.3725, -0.3725, -0.3725, -0.3725, -0.3725, -0.3725, -0.3725, -0.3725, -0.37333333333333335, -0.37333333333333335, -0.37333333333333335, -0.2608333333333333]"	"[1, 1, 1, 1, 1, 1, 1, 1, 1, 1, 1, 1, 1, 1, 1, 1, 1, 1, 1, 1, 0]"	"[0, 0, 0, 0, 0, 0, 0, 0, 0, 0, 0, 0, 0, 0, 0, 0, 0, 0, 0, 0, 0]"	"[0, 0, 0, 0, 0, 0, 0, 0, 0, 0, 0, 0, 0, 0, 0, 0, 0, 0, 0, 0, 1]"	"[0.6333090999396518, 0.8139574999222532, 1.0324952999362722, 1.2324209999060258, 1.4134165999712422, 1.6132077999645844, 1.832541499985382, 2.013129699975252, 2.1991322999820113, 2.3794923999812454, 2.579330899985507, 2.7654175999341533, 2.964362800004892, 3.1459818999283016, 3.3312122999923304, 3.4979105999227613, 3.6786331000039354, 3.8650104999542236, 4.064234299934469, 4.245027999975719, 4.579437099979259]"	20	"[0.557488500024192, 0.7378860000753775, 0.95640780008398, 1.1563685000874102, 1.337326000095345, 1.5371177000924945, 1.756450500106439, 1.9370355000719428, 2.123044900014065, 2.3034018001053482, 2.5032368000829592, 2.6893352000042796, 2.888298400095664, 3.069891400053166, 3.2551287000533193, 3.4218212000560015, 3.6025408999994397, 3.788920900085941, 3.9881503001088277, 4.1689332000678405]"	"[0.6372731000883505, 0.8373905000044033, 1.0232725000241771, 1.223409500089474, 1.4231203000526875, 1.6037166001042351, 1.8035124000161886, 2.003600800060667, 2.16981760005001, 2.3696507000131533, 2.569452700088732, 2.755789600079879, 2.9550841000163928, 3.135722400038503, 3.3022629000479355, 3.502595700090751, 3.6685048000654206, 3.868838299997151, 4.068218900007196, 4.268418800085783]"	53.2186003000243	53.2319488000358	54.7317334000254	NA	NA	NA	NA	NA	NA	NA	NA	"01"	"03"	"2023-12-13_13h16.56.573"	"BART_exp"	"2023.2.2"	"None"	"2023-12-13 13h17.14.762332 +0100"	NA
"balloon.png"	27	0	9	9	6	54.7829048000276	NA	NA	NA	NA	NA	NA	NA	NA	NA	NA	NA	NA	54.7323339000577	54.7829048000276	54.7829048000276	54.7829048000276	54.7829048000276	54.7829048000276	0.0154758999124169	0.0154758999124169	0.0154758999124169	54.7829048000276	59.0965073000407	18	0.9	FALSE	"[0.011666666666666667, 0.011666666666666667, 0.011666666666666667, 0.011666666666666667, 0.011666666666666667, 0.011666666666666667, 0.011666666666666667, 0.011666666666666667, 0.011666666666666667, 0.011666666666666667, 0.011666666666666667, 0.011666666666666667, 0.011666666666666667, 0.011666666666666667, 0.011666666666666667, 0.011666666666666667, 0.011666666666666667, 0.011666666666666667, 0.016666666666666666]"	"[-0.36, -0.36, -0.36, -0.36, -0.36, -0.36, -0.36, -0.36, -0.36, -0.36, -0.36, -0.36, -0.36, -0.36, -0.36, -0.36, -0.36, -0.36, -0.2758333333333333]"	"[1, 1, 1, 1, 1, 1, 1, 1, 1, 1, 1, 1, 1, 1, 1, 1, 1, 1, 0]"	"[0, 0, 0, 0, 0, 0, 0, 0, 0, 0, 0, 0, 0, 0, 0, 0, 0, 0, 0]"	"[0, 0, 0, 0, 0, 0, 0, 0, 0, 0, 0, 0, 0, 0, 0, 0, 0, 0, 1]"	"[0.7667958999518305, 0.9473127999808639, 1.1666998999426141, 1.3672730999533087, 1.5800921999616548, 1.780336600029841, 1.9798532000277191, 2.179422799963504, 2.366626700037159, 2.5795538999373093, 2.7798197999363765, 2.9788776000496, 3.1634231000207365, 3.3318951999535784, 3.5299632999813184, 3.7121438999893144, 3.8784120000200346, 4.0647626999998465, 4.362662800005637]"	18	"[0.72572400001809, 0.9062362000113353, 1.125620299950242, 1.3261887999251485, 1.5390147999860346, 1.7392544000176713, 1.938778099953197, 2.1383376999292523, 2.325586099992506, 2.5384789999807253, 2.7387410999508575, 2.9378019999712706, 3.1225601999321952, 3.290825300035067, 3.4890848000068218, 3.6710696999216452, 3.8373281999956816, 4.023688599932939]"	"[0.7920954999281093, 1.0056401999900118, 1.2057326999492943, 1.405523099936545, 1.6055597999366, 1.8053706999635324, 2.0052065999479964, 2.2049719999777153, 2.4050853999797255, 2.6246055000228807, 2.8236661999253556, 2.990675700013526, 3.1710873999400064, 3.3707676000194624, 3.537324999924749, 3.723363099968992, 3.9043119000270963, 4.137015699991025]"	59.0975793000543	59.1101631000638	60.5942785000661	60.6736746000824	NA	NA	NA	NA	NA	NA	NA	"01"	"03"	"2023-12-13_13h16.56.573"	"BART_exp"	"2023.2.2"	"None"	"2023-12-13 13h17.14.762332 +0100"	NA
"balloon.png"	49	0	10	10	11	60.6736746000824	NA	NA	NA	NA	NA	NA	NA	NA	NA	NA	NA	NA	60.5946329000872	60.6736746000824	60.6736746000824	60.6736746000824	60.6736746000824	60.6736746000824	-0.00087280001025646	-0.00087280001025646	-0.00087280001025646	60.6736746000824	64.5610081000486	17	0.85	FALSE	"[0.05416666666666667, 0.05416666666666667, 0.05416666666666667, 0.05416666666666667, 0.05416666666666667, 0.05416666666666667, 0.05416666666666667, 0.05416666666666667, 0.05416666666666667, 0.05416666666666667, 0.05416666666666667, 0.05416666666666667, 0.05416666666666667, 0.05416666666666667, 0.05416666666666667, 0.05416666666666667, 0.05416666666666667, 0.03833333333333333]"	"[-0.38666666666666666, -0.38666666666666666, -0.38666666666666666, -0.38666666666666666, -0.38666666666666666, -0.38666666666666666, -0.38666666666666666, -0.38666666666666666, -0.38666666666666666, -0.38666666666666666, -0.38666666666666666, -0.38666666666666666, -0.38666666666666666, -0.38666666666666666, -0.38666666666666666, -0.38666666666666666, -0.38666666666666666, -0.22916666666666666]"	"[1, 1, 1, 1, 1, 1, 1, 1, 1, 1, 1, 1, 1, 1, 1, 1, 1, 0]"	"[0, 0, 0, 0, 0, 0, 0, 0, 0, 0, 0, 0, 0, 0, 0, 0, 0, 0]"	"[0, 0, 0, 0, 0, 0, 0, 0, 0, 0, 0, 0, 0, 0, 0, 0, 0, 1]"	"[0.6150513000320643, 0.814102700096555, 1.0001328000798821, 1.1810202000197023, 1.3811402000719681, 1.5812500000465661, 1.7804138000356033, 1.9664978000801057, 2.165778400027193, 2.333299200050533, 2.532686599995941, 2.7323381000896916, 2.9327317000133917, 3.1132373000727966, 3.2986177999991924, 3.445684100035578, 3.6319975000806153, 3.9647360000526533]"	17	"[0.5458572000497952, 0.7449907000409439, 0.9309368999674916, 1.1118248000275344, 1.3119471999816597, 1.5122505000326782, 1.7112319000298157, 1.8973037999821827, 2.0965949000092223, 2.2641914000269026, 2.463499699952081, 2.6631447999970987, 2.8635372000280768, 3.0440323000075296, 3.2294218000024557, 3.376489600050263, 3.5628026999766007]"	"[0.6119804000481963, 0.8119292999617755, 0.9983986000297591, 1.1976938999723643, 1.3972987999441102, 1.5783111000200734, 1.777681399951689, 1.9636430999962613, 2.1443077999865636, 2.330465800012462, 2.5310838000150397, 2.7436699999962, 2.9296151000307873, 3.0963116999482736, 3.2626626000273973, 3.4432454999769107, 3.6607709999661893]"	64.562048300053	64.5730958000058	66.0584362000227	66.0719858000521	NA	NA	NA	NA	NA	NA	NA	"01"	"03"	"2023-12-13_13h16.56.573"	"BART_exp"	"2023.2.2"	"None"	"2023-12-13 13h17.14.762332 +0100"	NA
"balloon.png"	97	0	11	11	22	66.0719858000521	NA	NA	NA	NA	NA	NA	NA	NA	NA	NA	NA	NA	66.0589633000782	66.0719858000521	66.0719858000521	66.0719858000521	66.0719858000521	66.0719858000521	0.0100412000901997	0.0100412000901997	0.0100412000901997	66.0719858000521	70.1225349000888	19	0.95	FALSE	"[-0.0075, -0.0075, -0.0075, -0.0075, -0.0075, -0.0075, -0.0075, -0.0075, -0.0075, -0.0075, -0.0075, -0.0075, -0.0075, -0.0075, -0.0075, -0.0075, -0.0075, -0.0075, -0.0075, 0.0008333333333333334]"	"[-0.3591666666666667, -0.3591666666666667, -0.3591666666666667, -0.3591666666666667, -0.3591666666666667, -0.3591666666666667, -0.3591666666666667, -0.3591666666666667, -0.3591666666666667, -0.3591666666666667, -0.3591666666666667, -0.3591666666666667, -0.35833333333333334, -0.35833333333333334, -0.35833333333333334, -0.35833333333333334, -0.35833333333333334, -0.35833333333333334, -0.35833333333333334, -0.265]"	"[1, 1, 1, 1, 1, 1, 1, 1, 1, 1, 1, 1, 1, 1, 1, 1, 1, 1, 1, 0]"	"[0, 0, 0, 0, 0, 0, 0, 0, 0, 0, 0, 0, 0, 0, 0, 0, 0, 0, 0, 0]"	"[0, 0, 0, 0, 0, 0, 0, 0, 0, 0, 0, 0, 0, 0, 0, 0, 0, 0, 0, 1]"	"[0.3333734000334516, 0.5299774000886828, 0.7299474000465125, 0.9164714000653476, 1.1302193000447005, 1.3298377000028268, 1.5163980000652373, 1.713972800062038, 1.8965475000441074, 2.0959504999918863, 2.2954067999962717, 2.4957678000209853, 2.683898500050418, 2.862473100074567, 3.0489264000207186, 3.2481214000144973, 3.428710800013505, 3.615004100021906, 3.8143412000499666, 4.062340300064534]"	19	"[0.33113110007252544, 0.5277208000188693, 0.7276935999980196, 0.9142192000290379, 1.1279592000646517, 1.32758050004486, 1.5141384000889957, 1.711904300027527, 1.8942821000237018, 2.093704400002025, 2.2931508000474423, 2.4935102000599727, 2.6816481000278145, 2.8602122000884265, 3.0466698000673205, 3.245861600036733, 3.4264566000783816, 3.6127471000654623, 3.812080500065349]"	"[0.41155820002313703, 0.6109540000325069, 0.7976066999835894, 0.9975029000779614, 1.1943979000207037, 1.3943711000028998, 1.593633500044234, 1.779732400085777, 1.9601699000922963, 2.1601514000212774, 2.345895200036466, 2.545984800090082, 2.7599197999807075, 2.945814699982293, 3.126345600001514, 3.2929326000157744, 3.526165400049649, 3.7098106000339612, 3.8791091000894085]"	70.1236123000272	70.1379228000296	71.6351679000072	NA	NA	NA	NA	NA	NA	NA	NA	"01"	"03"	"2023-12-13_13h16.56.573"	"BART_exp"	"2023.2.2"	"None"	"2023-12-13 13h17.14.762332 +0100"	NA
"balloon.png"	62	0	12	12	14	71.7128534000367	NA	NA	NA	NA	NA	NA	NA	NA	NA	NA	NA	NA	71.6354991000844	71.7128534000367	71.7128534000367	71.7128534000367	71.7128534000367	71.7128534000367	0.0145611999323592	0.0145611999323592	0.0145611999323592	71.7128534000367	76.7840715000639	22	1.1	FALSE	"[0.004166666666666667, 0.004166666666666667, 0.004166666666666667, 0.004166666666666667, 0.004166666666666667, 0.004166666666666667, 0.005, 0.01, 0.01, 0.01, 0.01, 0.01, 0.01, 0.01, 0.011666666666666667, 0.011666666666666667, 0.011666666666666667, 0.0175, 0.0175, 0.0175, 0.0175, 0.021666666666666667, 0.049166666666666664]"	"[-0.3625, -0.3625, -0.3625, -0.3625, -0.3625, -0.36333333333333334, -0.3641666666666667, -0.36833333333333335, -0.36833333333333335, -0.36833333333333335, -0.36833333333333335, -0.36833333333333335, -0.36833333333333335, -0.36833333333333335, -0.36833333333333335, -0.36833333333333335, -0.37, -0.37, -0.37, -0.37, -0.37, -0.3675, -0.2725]"	"[1, 1, 1, 1, 1, 1, 1, 1, 1, 1, 1, 1, 1, 1, 1, 1, 1, 1, 1, 1, 1, 1, 0]"	"[0, 0, 0, 0, 0, 0, 0, 0, 0, 0, 0, 0, 0, 0, 0, 0, 0, 0, 0, 0, 0, 0, 0]"	"[0, 0, 0, 0, 0, 0, 0, 0, 0, 0, 0, 0, 0, 0, 0, 0, 0, 0, 0, 0, 0, 0, 1]"	"[0.683264399995096, 0.9027057000203058, 1.0830552000552416, 1.269260499975644, 1.4691261999541894, 1.6827498000347987, 1.9021107000298798, 2.1022284000646323, 2.3003209000453353, 2.515484599978663, 2.6989628999726847, 2.882133400067687, 3.1016229999950156, 3.26849599997513, 3.4817858999595046, 3.667758799972944, 3.8491001999937, 4.047739800065756, 4.214749500039034, 4.414166799979284, 4.581091500003822, 4.813938000006601, 5.1471423000330105]"	22	"[0.6152204999234527, 0.8346600999357179, 1.0150084999622777, 1.2012119999853894, 1.4010762999532744, 1.614701599930413, 1.834071599994786, 2.0341796999564394, 2.2323486999375746, 2.447435599984601, 2.6311101999599487, 2.81408439995721, 3.0335920000215992, 3.200474499957636, 3.4137341999448836, 3.5997114999918267, 3.7810459999600425, 3.9796934999758378, 4.146700999932364, 4.346120200003497, 4.513047199929133, 4.745888500008732]"	"[0.6688106999499723, 0.9007863999577239, 1.100942499935627, 1.3006889999378473, 1.5007916999747977, 1.7010313000064343, 1.900560999987647, 2.113834499963559, 2.314003499923274, 2.513539299950935, 2.6995192000176758, 2.8802596000023186, 3.098100099945441, 3.2799371000146493, 3.4798068000236526, 3.6464703999226913, 3.8643626999109983, 4.04645799996797, 4.2128800000064075, 4.431959699955769, 4.631542699993588, 4.879058299935423]"	76.7852033000672	76.8009190000594	78.3001591000939	NA	NA	NA	NA	NA	NA	NA	NA	"01"	"03"	"2023-12-13_13h16.56.573"	"BART_exp"	"2023.2.2"	"None"	"2023-12-13 13h17.14.762332 +0100"	NA
"balloon.png"	53	0	13	13	12	78.368707900052	NA	NA	NA	NA	NA	NA	NA	NA	NA	NA	NA	NA	78.3007619000273	78.368707900052	78.368707900052	78.368707900052	78.368707900052	78.368707900052	0.0170793000143021	0.0170793000143021	0.0170793000143021	78.368707900052	82.6468062000349	22	1.1	FALSE	"[0.02666666666666667, 0.02666666666666667, 0.02666666666666667, 0.02666666666666667, 0.02666666666666667, 0.02666666666666667, 0.02666666666666667, 0.02666666666666667, 0.02666666666666667, 0.02666666666666667, 0.02666666666666667, 0.02666666666666667, 0.02666666666666667, 0.02666666666666667, 0.02666666666666667, 0.02666666666666667, 0.02666666666666667, 0.02666666666666667, 0.02666666666666667, 0.02666666666666667, 0.02666666666666667, 0.02666666666666667, 0.04083333333333333]"	"[-0.37916666666666665, -0.37916666666666665, -0.37916666666666665, -0.37916666666666665, -0.37916666666666665, -0.37916666666666665, -0.37916666666666665, -0.37916666666666665, -0.37916666666666665, -0.37916666666666665, -0.37916666666666665, -0.37916666666666665, -0.37916666666666665, -0.37916666666666665, -0.37916666666666665, -0.37916666666666665, -0.37916666666666665, -0.37916666666666665, -0.37916666666666665, -0.37916666666666665, -0.37916666666666665, -0.37916666666666665, -0.305]"	"[1, 1, 1, 1, 1, 1, 1, 1, 1, 1, 1, 1, 1, 1, 1, 1, 1, 1, 1, 1, 1, 1, 0]"	"[0, 0, 0, 0, 0, 0, 0, 0, 0, 0, 0, 0, 0, 0, 0, 0, 0, 0, 0, 0, 0, 0, 0]"	"[0, 0, 0, 0, 0, 0, 0, 0, 0, 0, 0, 0, 0, 0, 0, 0, 0, 0, 0, 0, 0, 0, 1]"	"[0.06880970008205622, 0.2475200000917539, 0.4338227000553161, 0.6330749000189826, 0.8138775000115857, 1.0332640000851825, 1.2329306000610813, 1.413413600064814, 1.612931300071068, 1.8130953999934718, 1.9970944999950007, 2.1994827000889927, 2.399296500021592, 2.5988069000886753, 2.7983909000176936, 2.999611600069329, 3.179169000010006, 3.379562000045553, 3.563253900036216, 3.7454735001083463, 3.9308610000880435, 4.097865000017919, 4.344672300037928]"	22	"[0.0005322999786585569, 0.1896235999884084, 0.3759413999505341, 0.5751861999742687, 0.7559977999189869, 0.9753723000176251, 1.175047899945639, 1.3555260999128222, 1.5550458999350667, 1.755207599955611, 1.9393658000044525, 2.141588700003922, 2.3414103999966756, 2.5409188999328762, 2.7405056999996305, 2.9417231999104843, 3.1212791999569163, 3.3216734000016004, 3.5054152999073267, 3.6875725999707356, 3.8729736999375746, 4.039980500005186]"	"[0.0896350999828428, 0.27547059999778867, 0.45617649995256215, 0.6426077999640256, 0.8557310999603942, 1.0552335999673232, 1.2556490999413654, 1.4217301999451593, 1.6218114999355748, 1.807562300004065, 2.021503399941139, 2.207543500000611, 2.3877100999234244, 2.6074427999556065, 2.8208023000042886, 2.9875575999030843, 3.1873648999026045, 3.387098499923013, 3.572797799948603, 3.7538898999337107, 3.920490699936636, 4.105922100017779]"	82.6479663000209	82.6616878000787	84.1626277000178	NA	NA	NA	NA	NA	NA	NA	NA	"01"	"03"	"2023-12-13_13h16.56.573"	"BART_exp"	"2023.2.2"	"None"	"2023-12-13 13h17.14.762332 +0100"	NA
"balloon.png"	88	0	14	14	20	84.1835149000399	NA	NA	NA	NA	NA	NA	NA	NA	NA	NA	NA	NA	84.1632207001094	84.1835149000399	84.1835149000399	84.1835149000399	84.1835149000399	84.1835149000399	0.0167969999602064	0.0167969999602064	0.0167969999602064	84.1835149000399	89.8974389000796	30	1.5	FALSE	"[0.0325, 0.0325, 0.0325, 0.0325, 0.0325, 0.0325, 0.0325, 0.0325, 0.0325, 0.0325, 0.0325, 0.0325, 0.0325, 0.0325, 0.0325, 0.0325, 0.0325, 0.03166666666666667, 0.03166666666666667, 0.03166666666666667, 0.03166666666666667, 0.03166666666666667, 0.03166666666666667, 0.03166666666666667, 0.03166666666666667, 0.03166666666666667, 0.03166666666666667, 0.03166666666666667, 0.03166666666666667, 0.03166666666666667, 0.03666666666666667]"	"[-0.3975, -0.3975, -0.3975, -0.3975, -0.3975, -0.3975, -0.3975, -0.3975, -0.3975, -0.3975, -0.3975, -0.3975, -0.3975, -0.3975, -0.395, -0.395, -0.395, -0.3933333333333333, -0.3933333333333333, -0.3933333333333333, -0.3933333333333333, -0.3933333333333333, -0.3933333333333333, -0.3908333333333333, -0.3908333333333333, -0.3908333333333333, -0.3908333333333333, -0.3908333333333333, -0.39166666666666666, -0.39166666666666666, -0.32166666666666666]"	"[1, 1, 1, 1, 1, 1, 1, 1, 1, 1, 1, 1, 1, 1, 1, 1, 1, 1, 1, 1, 1, 1, 1, 1, 1, 1, 1, 1, 1, 1, 0]"	"[0, 0, 0, 0, 0, 0, 0, 0, 0, 0, 0, 0, 0, 0, 0, 0, 0, 0, 0, 0, 0, 0, 0, 0, 0, 0, 0, 0, 0, 0, 0]"	"[0, 0, 0, 0, 0, 0, 0, 0, 0, 0, 0, 0, 0, 0, 0, 0, 0, 0, 0, 0, 0, 0, 0, 0, 0, 0, 0, 0, 0, 0, 1]"	"[0.021122399950399995, 0.20171920000575483, 0.3813135999953374, 0.5671785000013188, 0.7674179000314325, 0.9666364999720827, 1.1339482000330463, 1.3329198999563232, 1.513986699981615, 1.698175000026822, 1.8978079999797046, 2.0997014000313357, 2.2799498999956995, 2.4795833999523893, 2.666127400007099, 2.865609099972062, 3.0460410999367014, 3.213453499949537, 3.412982100038789, 3.631726899999194, 3.8314308000262827, 4.011964499950409, 4.197879899991676, 4.366034499951638, 4.5453293999889866, 4.732443199958652, 4.897485199966468, 5.097723199985921, 5.264403700013645, 5.463914099964313, 5.732791500049643]"	30	"[0.001336699933744967, 0.1913882999215275, 0.37097789999097586, 0.5569209000095725, 0.7570831999182701, 0.9563057000050321, 1.1236556000076234, 1.3225909000029787, 1.503648899961263, 1.6878898999420926, 1.887652499950491, 2.089369499939494, 2.2696198999183252, 2.4692431000294164, 2.655792300007306, 2.8552790000103414, 3.035708999959752, 3.2031276000197977, 3.402641399996355, 3.6213955000275746, 3.8211039999732748, 4.001630499958992, 4.187549900030717, 4.355707700015046, 4.535002499935217, 4.722155399969779, 4.887167099979706, 5.087392700021155, 5.2540698000229895, 5.453599900007248]"	"[0.07035199995152652, 0.27075679996050894, 0.4370647999458015, 0.6228941000299528, 0.8032700000330806, 1.0035766999935731, 1.1903751000063494, 1.3698944000061601, 1.5698153999401256, 1.7695827999850735, 1.9697004000190645, 2.169662500033155, 2.335982199991122, 2.5217562000034377, 2.735557399922982, 2.902321400004439, 3.1023554999846965, 3.3021631999872625, 3.4878648000303656, 3.6881395999807864, 3.868152500013821, 4.052467599976808, 4.254146700026467, 4.43472469993867, 4.587080299970694, 4.767765199998394, 4.967545100022107, 5.152392599964514, 5.319643200025894, 5.553889299975708]"	89.8987693000818	89.9087423000019	91.4056301000528	NA	NA	NA	NA	NA	NA	NA	NA	"01"	"03"	"2023-12-13_13h16.56.573"	"BART_exp"	"2023.2.2"	"None"	"2023-12-13 13h17.14.762332 +0100"	NA
"balloon.png"	123	0	15	15	28	91.4958486000542	NA	NA	NA	NA	NA	NA	NA	NA	NA	NA	NA	NA	91.4059109000955	91.4958486000542	91.4958486000542	91.4958486000542	91.4958486000542	91.4958486000542	0.00852759997360408	0.00852759997360408	0.00852759997360408	91.4958486000542	96.1077572000213	23	1.15	FALSE	"[0.020833333333333332, 0.020833333333333332, 0.020833333333333332, 0.020833333333333332, 0.021666666666666667, 0.021666666666666667, 0.021666666666666667, 0.021666666666666667, 0.021666666666666667, 0.021666666666666667, 0.0225, 0.023333333333333334, 0.023333333333333334, 0.023333333333333334, 0.023333333333333334, 0.023333333333333334, 0.023333333333333334, 0.023333333333333334, 0.023333333333333334, 0.023333333333333334, 0.023333333333333334, 0.024166666666666666, 0.024166666666666666, 0.04583333333333333]"	"[-0.4116666666666667, -0.4116666666666667, -0.4116666666666667, -0.4116666666666667, -0.41, -0.41, -0.41, -0.41, -0.41, -0.41, -0.41, -0.4091666666666667, -0.4091666666666667, -0.4091666666666667, -0.4091666666666667, -0.4091666666666667, -0.4091666666666667, -0.4091666666666667, -0.4091666666666667, -0.4091666666666667, -0.4091666666666667, -0.4091666666666667, -0.4091666666666667, -0.2966666666666667]"	"[1, 1, 1, 1, 1, 1, 1, 1, 1, 1, 1, 1, 1, 1, 1, 1, 1, 1, 1, 1, 1, 1, 1, 0]"	"[0, 0, 0, 0, 0, 0, 0, 0, 0, 0, 0, 0, 0, 0, 0, 0, 0, 0, 0, 0, 0, 0, 0, 0]"	"[0, 0, 0, 0, 0, 0, 0, 0, 0, 0, 0, 0, 0, 0, 0, 0, 0, 0, 0, 0, 0, 0, 0, 1]"	"[0.09107419999781996, 0.25319410010706633, 0.4667066000401974, 0.6519268000265583, 0.8540036000777036, 1.0529732001014054, 1.2505805999971926, 1.4361287000356242, 1.6500592000083998, 1.8500881000654772, 2.0510279000736773, 2.268865799997002, 2.4673898000037298, 2.6686186000006273, 2.868636600091122, 3.0824868000345305, 3.3005472000222653, 3.5012184000806883, 3.6996805000817403, 3.91521470004227, 4.100904199993238, 4.267423100071028, 4.500618600053713, 4.700562600046396]"	23	"[0.000722500029951334, 0.17390970000997186, 0.3874228000640869, 0.5726505999919027, 0.7747222000034526, 0.9736831999616697, 1.1712984000332654, 1.3568497999804094, 1.5707788000581786, 1.7708073999965563, 1.9717467000009492, 2.189580800011754, 2.3881116999546066, 2.5893300999887288, 2.7893510999856517, 3.0031952999997884, 3.2213384000351653, 3.4219325999729335, 3.6204120999900624, 3.835929000051692, 4.021628999966197, 4.188133800053038, 4.4213346999604255]"	"[0.04045810003299266, 0.2541825999505818, 0.4540711999870837, 0.6541909000370651, 0.8537967000156641, 1.054230900015682, 1.2373870000010356, 1.4567083000438288, 1.6564857000485063, 1.856273000012152, 2.069925299962051, 2.269615299999714, 2.469578000018373, 2.6891299999551848, 2.8889468000270426, 3.1218843000242487, 3.335587300010957, 3.535424600006081, 3.721865399973467, 3.921654799953103, 4.101904200040735, 4.301832400029525, 4.421339799999259]"	96.108971000067	96.12069780007	97.604691100074	97.6182610000251	NA	NA	NA	NA	NA	NA	NA	"01"	"03"	"2023-12-13_13h16.56.573"	"BART_exp"	"2023.2.2"	"None"	"2023-12-13 13h17.14.762332 +0100"	NA
"balloon.png"	118	0	16	16	27	97.6182610000251	NA	NA	NA	NA	NA	NA	NA	NA	NA	NA	NA	NA	97.6049654000672	97.6182610000251	97.6182610000251	97.6182610000251	97.6182610000251	97.6182610000251	0.00939720007590949	0.00939720007590949	0.00939720007590949	97.6182610000251	102.070068300003	22	1.1	FALSE	"[0.019166666666666665, 0.019166666666666665, 0.019166666666666665, 0.019166666666666665, 0.019166666666666665, 0.019166666666666665, 0.019166666666666665, 0.019166666666666665, 0.02, 0.02, 0.02, 0.023333333333333334, 0.023333333333333334, 0.023333333333333334, 0.023333333333333334, 0.023333333333333334, 0.023333333333333334, 0.023333333333333334, 0.023333333333333334, 0.024166666666666666, 0.024166666666666666, 0.023333333333333334, -0.005]"	"[-0.39, -0.39, -0.39, -0.39, -0.39, -0.39, -0.38916666666666666, -0.39166666666666666, -0.3908333333333333, -0.3908333333333333, -0.3908333333333333, -0.3908333333333333, -0.3908333333333333, -0.39, -0.39, -0.39, -0.39, -0.38916666666666666, -0.3875, -0.3875, -0.3875, -0.3875, -0.3283333333333333]"	"[1, 1, 1, 1, 1, 1, 1, 1, 1, 1, 1, 1, 1, 1, 1, 1, 1, 1, 1, 1, 1, 1, 0]"	"[0, 0, 0, 0, 0, 0, 0, 0, 0, 0, 0, 0, 0, 0, 0, 0, 0, 0, 0, 0, 0, 0, 0]"	"[0, 0, 0, 0, 0, 0, 0, 0, 0, 0, 0, 0, 0, 0, 0, 0, 0, 0, 0, 0, 0, 0, 1]"	"[0.06839940010104328, 0.24740980006754398, 0.43332460010424256, 0.6139960000291467, 0.8137488000793383, 1.0333759000059217, 1.2321703000925481, 1.4661253000376746, 1.6326412000926211, 1.8463083000387996, 2.046513000037521, 2.2633082000538707, 2.4650867000455037, 2.667593900114298, 2.8651180000742897, 3.079372600070201, 3.2789037000620738, 3.499933100072667, 3.6993418000638485, 3.89861610007938, 4.0975794000551105, 4.2646531000500545, 4.463714800076559]"	22	"[0.06602669996209443, 0.24501899990718812, 0.43092919990886003, 0.611595599912107, 0.8113584999227896, 1.0309822999406606, 1.2297862999839708, 1.463743699947372, 1.6302512999391183, 1.8439131999621168, 2.044122999999672, 2.2612343999790028, 2.462695599999279, 2.665434999973513, 2.862726099905558, 3.0769768999889493, 3.2765104999998584, 3.49754429992754, 3.6969595999689773, 3.8962284999433905, 4.095195399946533, 4.262253899942152]"	"[0.129775199922733, 0.31133149995002896, 0.4971309999236837, 0.7110194999258965, 0.8973136999411508, 1.0974748999578878, 1.3107528999680653, 1.544206199934706, 1.7103486999403685, 1.9102599999168888, 2.130307999905199, 2.3296517999842763, 2.5437042999546975, 2.7432860999833792, 2.942868300015107, 3.162163299974054, 3.3619337999261916, 3.576169200008735, 3.7761797999264672, 3.9426929999608546, 4.142620499944314, 4.3088671999285]"	102.071293300018	102.082208000007	103.567281500087	103.581167199998	NA	NA	NA	NA	NA	NA	NA	"01"	"03"	"2023-12-13_13h16.56.573"	"BART_exp"	"2023.2.2"	"None"	"2023-12-13 13h17.14.762332 +0100"	NA
"balloon.png"	44	0	17	17	10	103.581167199998	NA	NA	NA	NA	NA	NA	NA	NA	NA	NA	NA	NA	103.5676196001	103.581167199998	103.581167199998	103.581167199998	103.581167199998	103.581167199998	0.00997829996049404	0.00997829996049404	0.00997829996049404	103.581167199998	107.749100700021	18	0.9	FALSE	"[-0.0016666666666666668, -0.0016666666666666668, 0.005833333333333334, 0.005833333333333334, 0.005833333333333334, 0.005833333333333334, 0.005833333333333334, 0.005833333333333334, 0.005833333333333334, 0.005833333333333334, 0.005833333333333334, 0.005833333333333334, 0.005833333333333334, 0.005833333333333334, 0.005833333333333334, 0.005833333333333334, 0.005833333333333334, 0.005833333333333334, 0.08166666666666667]"	"[-0.4266666666666667, -0.4266666666666667, -0.415, -0.415, -0.415, -0.415, -0.415, -0.415, -0.415, -0.415, -0.415, -0.415, -0.415, -0.415, -0.415, -0.415, -0.415, -0.415, -0.2833333333333333]"	"[1, 1, 1, 1, 1, 1, 1, 1, 1, 1, 1, 1, 1, 1, 1, 1, 1, 1, 0]"	"[0, 0, 0, 0, 0, 0, 0, 0, 0, 0, 0, 0, 0, 0, 0, 0, 0, 0, 0]"	"[0, 0, 0, 0, 0, 0, 0, 0, 0, 0, 0, 0, 0, 0, 0, 0, 0, 0, 1]"	"[0.43378540000412613, 0.6321253000060096, 0.8482385000679642, 1.0471695000305772, 1.2471743000205606, 1.4803339000791311, 1.6807402999838814, 1.8975230000214651, 2.097471100045368, 2.2982981000095606, 2.497351700090803, 2.712906000087969, 2.9129595999838784, 3.112612000084482, 3.312488800031133, 3.4984538999851793, 3.6656313000712544, 3.8642927000764757, 4.1801531000528485]"	18	"[0.4312371000414714, 0.6295873000053689, 0.8456853000679985, 1.0446214000694454, 1.244626700063236, 1.4777904000366107, 1.6781989000737667, 1.8950441000051796, 2.0950791999930516, 2.29581020004116, 2.494954699999653, 2.7103669000789523, 2.910424100002274, 3.1100645000115037, 3.309942400082946, 3.495930000091903, 3.663104100036435, 3.8617660000454634]"	"[0.4972659000195563, 0.6779071000637487, 0.9308937999885529, 1.1305349000031129, 1.3441658000228927, 1.5615249000256881, 1.7639779000310227, 1.961601800052449, 2.1772014000453055, 2.3772995000472292, 2.577059100032784, 2.7964556000661105, 2.995889800018631, 3.176558000035584, 3.378337200032547, 3.5612850000616163, 3.727430999977514, 3.9425970000447705]"	107.750199500006	107.763240600005	109.262816600036	NA	NA	NA	NA	NA	NA	NA	NA	"01"	"03"	"2023-12-13_13h16.56.573"	"BART_exp"	"2023.2.2"	"None"	"2023-12-13 13h17.14.762332 +0100"	NA
"balloon.png"	127	0	18	18	29	109.278019100078	NA	NA	NA	NA	NA	NA	NA	NA	NA	NA	NA	NA	109.263477900065	109.278019100078	109.278019100078	109.278019100078	109.278019100078	109.278019100078	0.0151759999571368	0.0151759999571368	0.0151759999571368	109.278019100078	115.694761899998	25	1.25	FALSE	"[0.030833333333333334, 0.030833333333333334, 0.030833333333333334, 0.030833333333333334, 0.030833333333333334, 0.030833333333333334, 0.030833333333333334, 0.030833333333333334, 0.030833333333333334, 0.030833333333333334, 0.030833333333333334, 0.030833333333333334, 0.030833333333333334, 0.035833333333333335, 0.035833333333333335, 0.035833333333333335, 0.035833333333333335, 0.04083333333333333, 0.043333333333333335, 0.043333333333333335, 0.043333333333333335, 0.043333333333333335, 0.0425, 0.0425, 0.0425, 0.0425, 0.0325]"	"[-0.36333333333333334, -0.36333333333333334, -0.36333333333333334, -0.36333333333333334, -0.36333333333333334, -0.36333333333333334, -0.36333333333333334, -0.36333333333333334, -0.36333333333333334, -0.36333333333333334, -0.36333333333333334, -0.36333333333333334, -0.36333333333333334, -0.36333333333333334, -0.36333333333333334, -0.36333333333333334, -0.36333333333333334, -0.36333333333333334, -0.36, -0.36, -0.3591666666666667, -0.36833333333333335, -0.3616666666666667, -0.3616666666666667, -0.3616666666666667, -0.3616666666666667, -0.13833333333333334]"	"[1, 1, 1, 1, 1, 1, 1, 1, 1, 1, 1, 1, 1, 1, 1, 1, 1, 1, 1, 1, 1, 1, 1, 1, 1, 1, 0]"	"[0, 0, 0, 0, 0, 0, 0, 0, 0, 0, 0, 0, 0, 0, 0, 0, 0, 0, 0, 0, 0, 0, 0, 0, 0, 0, 0]"	"[0, 0, 0, 0, 0, 0, 0, 0, 0, 0, 0, 0, 0, 0, 0, 0, 0, 0, 0, 0, 0, 0, 0, 0, 0, 0, 1]"	"[0.7486638999544084, 0.9345013999845833, 1.1340359000023454, 1.3342308999272063, 1.5484889999497682, 1.7654555999906734, 1.9671216999413446, 2.1807532999664545, 2.3806984999682754, 2.6001457000384107, 2.7998261000029743, 2.9802332000108436, 3.1996505999704823, 3.4133084999630228, 3.61360479996074, 3.8134645000100136, 4.013820099993609, 4.466551500023343, 4.666346299927682, 4.864486700040288, 5.0640375999500975, 5.263147799996659, 5.497069800039753, 5.67770959995687, 5.863435299950652, 6.044349699979648, 6.4296712999930605]"	26	"[0.7456044999416918, 0.9314373999368399, 1.1309882999630645, 1.331173999933526, 1.54545989993494, 1.7624424999812618, 1.9640793999424204, 2.177694799960591, 2.37764989992138, 2.597111099981703, 2.7967917999485508, 2.9771752998931333, 3.19663469993975, 3.4102696999907494, 3.6105845998972654, 3.8104112999280915, 4.010787099949084, 4.463466299930587, 4.663248999975622, 4.861359699978493, 5.0609060999704525, 5.260002499911934, 5.493921799934469, 5.67455599992536, 5.8602813999168575, 6.041205699904822]"	"[0.7959949999349192, 0.9973332999506965, 1.2114452999085188, 1.4112708999309689, 1.6116342999739572, 1.811442399979569, 2.0301104999380186, 2.243948199902661, 2.4631044999696314, 2.6634892999427393, 2.8441809999058023, 3.063105099950917, 3.277470299974084, 3.477398099959828, 3.6770048999460414, 3.895675199921243, 4.162139699910767, 4.476362699992023, 4.727593699935824, 4.927468499983661, 5.127528199926019, 5.341402799938805, 5.560398699948564, 5.741069199983031, 5.940698299906217, 6.173927099909633]"	115.69610880001	115.722229800071	117.205767500098	NA	NA	NA	NA	NA	NA	NA	NA	"01"	"03"	"2023-12-13_13h16.56.573"	"BART_exp"	"2023.2.2"	"None"	"2023-12-13 13h17.14.762332 +0100"	NA
"balloon.png"	14	0	19	19	3	117.223668800085	NA	NA	NA	NA	NA	NA	NA	NA	NA	NA	NA	NA	117.206027500099	117.223668800085	117.223668800085	117.223668800085	117.223668800085	117.223668800085	0.0117979999631643	0.0117979999631643	0.0117979999631643	117.223668800085	120.656239200034	15	0.7	TRUE	"[-0.015833333333333335, -0.015833333333333335, -0.015833333333333335, -0.015833333333333335, -0.015833333333333335, -0.015833333333333335, -0.015833333333333335, -0.015833333333333335, -0.015833333333333335, -0.015833333333333335, -0.015833333333333335, -0.015833333333333335, -0.015833333333333335, -0.015833333333333335, -0.015833333333333335]"	"[-0.37666666666666665, -0.37666666666666665, -0.37666666666666665, -0.37666666666666665, -0.37666666666666665, -0.37666666666666665, -0.37666666666666665, -0.3775, -0.3775, -0.3775, -0.3775, -0.3775, -0.3775, -0.3775, -0.3775]"	"[1, 1, 1, 1, 1, 1, 1, 1, 1, 1, 1, 1, 1, 1, 1]"	"[0, 0, 0, 0, 0, 0, 0, 0, 0, 0, 0, 0, 0, 0, 0]"	"[0, 0, 0, 0, 0, 0, 0, 0, 0, 0, 0, 0, 0, 0, 0]"	"[0.5531493000453338, 0.7528503000503406, 0.9365052999928594, 1.1503060000250116, 1.3665472000138834, 1.5827285000123084, 1.8025837000459433, 2.002176700043492, 2.201848200056702, 2.4013685000827536, 2.582541999989189, 2.768574299989268, 2.9820624000858516, 3.1488016000948846, 3.3818008999805897]"	15	"[0.5462655000155792, 0.7459963000146672, 0.9296207000734285, 1.1434264000272378, 1.3596552000381052, 1.575842900085263, 1.7957131000002846, 1.995314900064841, 2.194965500035323, 2.3944821000332013, 2.5756608000956476, 2.761691400082782, 2.9751711999997497, 3.1419128000270575, 3.3749332000734285]"	"[0.5931653000880033, 0.7928458000533283, 1.0260894000530243, 1.242459800094366, 1.4456218000268564, 1.662707700044848, 1.8596838000230491, 2.042484400095418, 2.242486900067888, 2.4419615000952035, 2.6416638999944553, 2.8088036000262946, 3.041815900010988, 3.2079619000433013, 3.4276732000289485]"	120.657321400009	120.672245800029	122.171724000014	NA	NA	NA	NA	NA	NA	NA	NA	"01"	"03"	"2023-12-13_13h16.56.573"	"BART_exp"	"2023.2.2"	"None"	"2023-12-13 13h17.14.762332 +0100"	NA
"balloon.png"	71	0	20	20	16	122.196089600096	NA	NA	NA	NA	NA	NA	NA	NA	NA	NA	NA	NA	122.172065600054	122.196089600096	122.196089600096	122.196089600096	122.196089600096	122.196089600096	0.0180376999778673	0.0180376999778673	0.0180376999778673	122.196089600096	128.417393100099	29	1.45	FALSE	"[-0.015833333333333335, -0.015833333333333335, -0.015833333333333335, -0.015833333333333335, -0.015833333333333335, -0.015833333333333335, -0.015833333333333335, -0.015833333333333335, -0.015833333333333335, -0.015833333333333335, -0.015833333333333335, -0.015833333333333335, -0.015833333333333335, -0.015833333333333335, -0.015833333333333335, -0.015833333333333335, -0.015833333333333335, -0.015833333333333335, -0.015833333333333335, -0.015833333333333335, -0.015, -0.015, -0.015, -0.015, -0.015, -0.015, -0.015, -0.015, -0.015, -0.024166666666666666]"	"[-0.3775, -0.3775, -0.3775, -0.3775, -0.3775, -0.3775, -0.3775, -0.3775, -0.3775, -0.3775, -0.3775, -0.3775, -0.3775, -0.3775, -0.3775, -0.3775, -0.3775, -0.3775, -0.3775, -0.3775, -0.3725, -0.3725, -0.3725, -0.3725, -0.3725, -0.3725, -0.3725, -0.3725, -0.3725, -0.3]"	"[1, 1, 1, 1, 1, 1, 1, 1, 1, 1, 1, 1, 1, 1, 1, 1, 1, 1, 1, 1, 1, 1, 1, 1, 1, 1, 1, 1, 1, 0]"	"[0, 0, 0, 0, 0, 0, 0, 0, 0, 0, 0, 0, 0, 0, 0, 0, 0, 0, 0, 0, 0, 0, 0, 0, 0, 0, 0, 0, 0, 0]"	"[0, 0, 0, 0, 0, 0, 0, 0, 0, 0, 0, 0, 0, 0, 0, 0, 0, 0, 0, 0, 0, 0, 0, 0, 0, 0, 0, 0, 0, 1]"	"[0.2999476999975741, 0.466647999943234, 0.6996685999911278, 0.9001154999714345, 1.113330699969083, 1.3323239999590442, 1.5466188000282273, 1.746199799934402, 1.9461708000162616, 2.1320693999296054, 2.331827300018631, 2.531627499964088, 2.746040300000459, 2.962707299971953, 3.165218099951744, 3.3646518000168726, 3.563435300020501, 3.7640199000015855, 3.9448159999446943, 4.164161799941212, 4.363854099996388, 4.563391599920578, 4.7776094999862835, 4.9637293999549, 5.177544499980286, 5.377369499998167, 5.563548299949616, 5.760762499994598, 5.943410199950449, 6.243328099953942]"	29	"[0.28609780000988394, 0.45279739995021373, 0.6858035000041127, 0.886253000004217, 1.0994784999638796, 1.3184688999317586, 1.5327609999803826, 1.732339399983175, 1.9323048000223935, 2.1182082999730483, 2.3179632999235764, 2.517767500015907, 2.732181999948807, 2.949023799970746, 3.151365299941972, 3.350791299948469, 3.549589299946092, 3.7501597999362275, 3.9309458000352606, 4.150302699999884, 4.349992300034501, 4.549531399970874, 4.76374450000003, 4.949868900002912, 5.1636766999727115, 5.363503100001253, 5.5497347000055015, 5.747101399931125, 5.929545599967241]"	"[0.33308789995498955, 0.5326457000337541, 0.7521549999946728, 0.9519905999768525, 1.1660374000202864, 1.3850775000173599, 1.5989639000035822, 1.8176534000085667, 1.9983559999382123, 2.198594899964519, 2.397922999924049, 2.597948499955237, 2.798159099998884, 3.01778049999848, 3.2350776999955997, 3.4170885999919847, 3.616751299938187, 3.8170098999980837, 4.016691999975592, 4.216645499924198, 4.414609399973415, 4.6165523999370635, 4.8300502999918535, 5.030161499977112, 5.247528799925931, 5.429591899970546, 5.615560799953528, 5.8158133999677375, 6.029121299972758]"	128.418688300066	128.433608100051	129.93305890006	NA	NA	NA	NA	NA	NA	NA	NA	"01"	"03"	"2023-12-13_13h16.56.573"	"BART_exp"	"2023.2.2"	"None"	"2023-12-13 13h17.14.762332 +0100"	NA
"balloon.png"	5	0	21	21	1	130.005941800075	NA	NA	NA	NA	NA	NA	NA	NA	NA	NA	NA	NA	129.933703700081	130.005941800075	130.005941800075	130.005941800075	130.005941800075	130.005941800075	0.0168062000302598	0.0168062000302598	0.0168062000302598	130.005941800075	131.40136950009	6	0.25	TRUE	"[0.014166666666666666, 0.014166666666666666, 0.014166666666666666, 0.014166666666666666, 0.014166666666666666, 0.014166666666666666]"	"[-0.38333333333333336, -0.38333333333333336, -0.38333333333333336, -0.38333333333333336, -0.38333333333333336, -0.38333333333333336]"	"[1, 1, 1, 1, 1, 1]"	"[0, 0, 0, 0, 0, 0]"	"[0, 0, 0, 0, 0, 0]"	"[0.3816035999916494, 0.5475280999671668, 0.7336351999547333, 0.9329427999909967, 1.1472532999468967, 1.3673607999226078]"	6	"[0.31965070008300245, 0.4855641000904143, 0.6716734000947326, 0.8709849000442773, 1.0852981000207365, 1.3053959000390023]"	"[0.3520333000924438, 0.5520738000050187, 0.7519997000927106, 0.9516565999947488, 1.151341599994339, 1.3848867000779137]"	131.40229290002	131.412903800025	132.899841700098	132.920348900021	NA	NA	NA	NA	NA	NA	NA	"01"	"03"	"2023-12-13_13h16.56.573"	"BART_exp"	"2023.2.2"	"None"	"2023-12-13 13h17.14.762332 +0100"	NA
"balloon.png"	1	0	22	22	0	132.920348900021	NA	NA	NA	NA	NA	NA	NA	NA	NA	NA	NA	NA	132.900184600032	132.920348900021	132.920348900021	132.920348900021	132.920348900021	132.920348900021	0.00029389990959316	0.00029389990959316	0.00029389990959316	132.920348900021	133.204268800095	2	0.05	TRUE	"[0.014166666666666666]"	"[-0.3825]"	"[1]"	"[0]"	"[0]"	"[0.16639779997058213]"	1	"[0.15697919996455312]"	"[0.2763933000387624]"	133.204925200087	133.213857200113	134.713764400105	NA	NA	NA	NA	NA	NA	NA	NA	"01"	"03"	"2023-12-13_13h16.56.573"	"BART_exp"	"2023.2.2"	"None"	"2023-12-13 13h17.14.762332 +0100"	NA
"balloon.png"	66	0	23	23	15	134.740412900108	NA	NA	NA	NA	NA	NA	NA	NA	NA	NA	NA	NA	134.714023000095	134.740412900108	134.740412900108	134.740412900108	134.740412900108	134.740412900108	0.010567200020887	0.010567200020887	0.010567200020887	134.740412900108	139.646295300103	23	1.15	FALSE	"[0.014166666666666666, 0.014166666666666666, 0.014166666666666666, 0.014166666666666666, 0.014166666666666666, 0.014166666666666666, 0.014166666666666666, 0.014166666666666666, 0.014166666666666666, 0.013333333333333334, 0.0125, 0.0125, 0.0125, 0.0125, 0.0125, 0.0125, 0.0125, 0.011666666666666667, 0.011666666666666667, 0.011666666666666667, 0.011666666666666667, 0.011666666666666667, 0.011666666666666667, -0.030833333333333334]"	"[-0.3825, -0.3825, -0.3825, -0.3825, -0.3825, -0.3825, -0.3825, -0.38166666666666665, -0.38083333333333336, -0.37916666666666665, -0.37666666666666665, -0.37666666666666665, -0.37666666666666665, -0.37666666666666665, -0.37666666666666665, -0.37666666666666665, -0.37666666666666665, -0.37166666666666665, -0.37166666666666665, -0.37166666666666665, -0.37166666666666665, -0.37166666666666665, -0.37166666666666665, -0.2916666666666667]"	"[1, 1, 1, 1, 1, 1, 1, 1, 1, 1, 1, 1, 1, 1, 1, 1, 1, 1, 1, 1, 1, 1, 1, 0]"	"[0, 0, 0, 0, 0, 0, 0, 0, 0, 0, 0, 0, 0, 0, 0, 0, 0, 0, 0, 0, 0, 0, 0, 0]"	"[0, 0, 0, 0, 0, 0, 0, 0, 0, 0, 0, 0, 0, 0, 0, 0, 0, 0, 0, 0, 0, 0, 0, 1]"	"[0.2523675999836996, 0.4313992999959737, 0.6346215000376105, 0.8159732000203803, 1.0180317000485957, 1.2153816999634728, 1.4183805000502616, 1.6309151999885216, 1.8165815999964252, 2.016345600015484, 2.2467619000235572, 2.4323262000689283, 2.631005799979903, 2.8488265000050887, 3.0640630000270903, 3.2635129999835044, 3.462036699987948, 3.699586300062947, 3.89535160001833, 4.0986744000110775, 4.297899500001222, 4.481962300022133, 4.66554359998554, 4.930833599995822]"	23	"[0.23444539995398372, 0.4134706000331789, 0.6167073999531567, 0.798187299980782, 1.0001269000349566, 1.1975957000395283, 1.4004752000328153, 1.6130865999730304, 1.7987218999769539, 1.9984725000103936, 2.22898090002127, 2.4144364999374375, 2.6131149999564514, 2.8309428000357, 3.046197999967262, 3.245656199986115, 3.4441614999668673, 3.6816737999906763, 3.8774339000228792, 4.08075279998593, 4.280005999957211, 4.464143999968655, 4.647724800044671]"	"[0.28175059997010976, 0.4798539000330493, 0.6659956000512466, 0.8656701999716461, 1.0677354000508785, 1.2814520000247285, 1.464930500020273, 1.6658425000496209, 1.8803268000483513, 2.08052580000367, 2.2787628000369295, 2.4976142999948934, 2.698222400038503, 2.8985068999463692, 3.11520440003369, 3.3305114000104368, 3.5326564999995753, 3.7445117000024766, 3.9436912999954075, 4.130383200012147, 4.344599099946208, 4.529329000040889, 4.714506400050595]"	139.647945700097	139.66006740008	141.159092400107	NA	NA	NA	NA	NA	NA	NA	NA	"01"	"03"	"2023-12-13_13h16.56.573"	"BART_exp"	"2023.2.2"	"None"	"2023-12-13 13h17.14.762332 +0100"	NA
"balloon.png"	92	0	24	24	21	141.207380300038	NA	NA	NA	NA	NA	NA	NA	NA	NA	NA	NA	NA	141.15969130001	141.207380300038	141.207380300038	141.207380300038	141.207380300038	141.207380300038	0.0133927999995649	0.0133927999995649	0.0133927999995649	141.207380300038	145.744650700013	22	1.1	FALSE	"[-0.0033333333333333335, -0.0025, -0.0025, -0.0025, -0.0025, -0.0025, -0.0025, -0.0025, -0.0025, -0.0025, -0.0008333333333333334, -0.0008333333333333334, -0.0008333333333333334, -0.0008333333333333334, -0.0008333333333333334, -0.0008333333333333334, -0.0008333333333333334, -0.0008333333333333334, -0.0008333333333333334, -0.0008333333333333334, -0.0008333333333333334, -0.0008333333333333334, 0.034166666666666665]"	"[-0.37583333333333335, -0.37333333333333335, -0.37333333333333335, -0.37333333333333335, -0.37333333333333335, -0.37333333333333335, -0.3725, -0.3725, -0.3725, -0.3725, -0.3725, -0.3725, -0.3725, -0.3725, -0.3725, -0.3725, -0.3725, -0.3725, -0.3725, -0.3725, -0.3725, -0.3725, -0.2916666666666667]"	"[1, 1, 1, 1, 1, 1, 1, 1, 1, 1, 1, 1, 1, 1, 1, 1, 1, 1, 1, 1, 1, 1, 0]"	"[0, 0, 0, 0, 0, 0, 0, 0, 0, 0, 0, 0, 0, 0, 0, 0, 0, 0, 0, 0, 0, 0, 0]"	"[0, 0, 0, 0, 0, 0, 0, 0, 0, 0, 0, 0, 0, 0, 0, 0, 0, 0, 0, 0, 0, 0, 1]"	"[0.35043620003852993, 0.5169073999859393, 0.6993555000517517, 0.8832804000703618, 1.0809408000204712, 1.2667969000758603, 1.4653622000478208, 1.6502551999874413, 1.8510772000299767, 2.0476540999952704, 2.2670316000003368, 2.433267700020224, 2.6493139000376686, 2.849004999967292, 3.0178550999844447, 3.196625499986112, 3.382410899968818, 3.562767400057055, 3.763663399964571, 3.9815691000549123, 4.162666199961677, 4.350438800058328, 4.583311200025491]"	21	"[0.3121962998993695, 0.47867300000507385, 0.6613116000080481, 0.845056299935095, 1.0427166000008583, 1.228725599939935, 1.4272062999662012, 1.6120665000053123, 1.8129652999341488, 2.009518799954094, 2.211850199964829, 2.3951122999424115, 2.8108240999281406, 2.979790899902582, 3.1462148999562487, 3.3442098000086844, 3.5245631999569014, 3.725458399974741, 3.9433388999896124, 4.124426999944262, 4.312215199926868]"	"[0.3452135999687016, 0.5294797999085858, 0.7291843999410048, 0.9091114999027923, 1.1115506999194622, 1.293584999977611, 1.493075899896212, 1.678274599951692, 1.8757590999593958, 2.0617222998989746, 2.275382899912074, 2.6746342999394983, 2.8604595999931917, 3.0437465999275446, 3.2120397000107914, 3.424113499931991, 3.624660399975255, 3.8108762999763712, 4.008250299957581, 4.179398100008257, 4.378754899953492]"	145.746322700055	145.758209500113	147.253262200044	NA	NA	NA	NA	NA	NA	NA	NA	"01"	"03"	"2023-12-13_13h16.56.573"	"BART_exp"	"2023.2.2"	"None"	"2023-12-13 13h17.14.762332 +0100"	NA
"balloon.png"	40	0	25	25	9	147.279799800017	NA	NA	NA	NA	NA	NA	NA	NA	NA	NA	NA	NA	147.253697200096	147.279799800017	147.279799800017	147.279799800017	147.279799800017	147.279799800017	0.00907169992569834	0.00907169992569834	0.00907169992569834	147.279799800017	154.968919700012	41	2	TRUE	"[0.03833333333333333, 0.03833333333333333, 0.03833333333333333, 0.03833333333333333, 0.03833333333333333, 0.03833333333333333, 0.03833333333333333, 0.03833333333333333, 0.03833333333333333, 0.03833333333333333, 0.03833333333333333, 0.03833333333333333, 0.03833333333333333, 0.03833333333333333, 0.03833333333333333, 0.03833333333333333, 0.03833333333333333, 0.03833333333333333, 0.03833333333333333, 0.03833333333333333, 0.03833333333333333, 0.03833333333333333, 0.03833333333333333, 0.03833333333333333, 0.03833333333333333, 0.03833333333333333, 0.03833333333333333, 0.03833333333333333, 0.03833333333333333, 0.03833333333333333, 0.03833333333333333, 0.03833333333333333, 0.03833333333333333, 0.03833333333333333, 0.03833333333333333, 0.03833333333333333, 0.03833333333333333, 0.03833333333333333, 0.03833333333333333, 0.03833333333333333, 0.03833333333333333]"	"[-0.37833333333333335, -0.37833333333333335, -0.37833333333333335, -0.37833333333333335, -0.37833333333333335, -0.37833333333333335, -0.37833333333333335, -0.37833333333333335, -0.37833333333333335, -0.37833333333333335, -0.37833333333333335, -0.37833333333333335, -0.37833333333333335, -0.37833333333333335, -0.37833333333333335, -0.37833333333333335, -0.37833333333333335, -0.37833333333333335, -0.37833333333333335, -0.37833333333333335, -0.37833333333333335, -0.37833333333333335, -0.37833333333333335, -0.37833333333333335, -0.37833333333333335, -0.37833333333333335, -0.37833333333333335, -0.37833333333333335, -0.37833333333333335, -0.37833333333333335, -0.37833333333333335, -0.37833333333333335, -0.37833333333333335, -0.37833333333333335, -0.37833333333333335, -0.37833333333333335, -0.37833333333333335, -0.37833333333333335, -0.37833333333333335, -0.37833333333333335, -0.37833333333333335]"	"[1, 1, 1, 1, 1, 1, 1, 1, 1, 1, 1, 1, 1, 1, 1, 1, 1, 1, 1, 1, 1, 1, 1, 1, 1, 1, 1, 1, 1, 1, 1, 1, 1, 1, 1, 1, 1, 1, 1, 1, 1]"	"[0, 0, 0, 0, 0, 0, 0, 0, 0, 0, 0, 0, 0, 0, 0, 0, 0, 0, 0, 0, 0, 0, 0, 0, 0, 0, 0, 0, 0, 0, 0, 0, 0, 0, 0, 0, 0, 0, 0, 0, 0]"	"[0, 0, 0, 0, 0, 0, 0, 0, 0, 0, 0, 0, 0, 0, 0, 0, 0, 0, 0, 0, 0, 0, 0, 0, 0, 0, 0, 0, 0, 0, 0, 0, 0, 0, 0, 0, 0, 0, 0, 0, 0]"	"[0.050246399943716824, 0.22020560002420098, 0.4195946999825537, 0.5858213000465184, 0.7879955000244081, 0.9559668999863788, 1.1355655000079423, 1.3203633000375703, 1.5184132000431418, 1.718830700032413, 1.8992954000132158, 2.0990107000106946, 2.3002621999476105, 2.500038699945435, 2.699681399972178, 2.899587400024757, 3.084872300038114, 3.2555757999652997, 3.4562578999903053, 3.6542827000375837, 3.8523252999875695, 4.034449200029485, 4.232144000008702, 4.433267300017178, 4.617738700006157, 4.817327499971725, 4.9970341000007465, 5.182943499996327, 5.351666699978523, 5.532972699962556, 5.716616499936208, 5.884535799967125, 6.082473799935542, 6.2835068999556825, 6.4513976000016555, 6.650999899953604, 6.8495998999569565, 7.048201099969447, 7.248532700003125, 7.448543600039557, 7.631153799942695]"	41	"[0.0351108000613749, 0.20505970006342977, 0.404449800029397, 0.5706493000034243, 0.7728027000557631, 0.9407760000322014, 1.1206757000181824, 1.30516600003466, 1.5032282000174746, 1.7036416999762878, 1.8841202000621706, 2.0838270999956876, 2.285153800039552, 2.48492640000768, 2.684566400013864, 2.884481900022365, 3.069766200031154, 3.24044139997568, 3.4412652000319213, 3.639261299977079, 3.837165300035849, 4.019317600061186, 4.216991199995391, 4.418076200061478, 4.602552699972875, 4.802150800009258, 4.981855700025335, 5.167765700025484, 5.336565900011919, 5.517862100037746, 5.701501399977133, 5.869419199996628, 6.067357800086029, 6.268384200055152, 6.436282100039534, 6.635891500045545, 6.834494300070219, 7.033135500038043, 7.233412000001408, 7.433383100084029, 7.615977599984035]"	"[0.08461750007700175, 0.2524340000236407, 0.4394677000818774, 0.6186662000836805, 0.8062625000020489, 0.9841287999879569, 1.183677799999714, 1.3844028000021353, 1.5502410000190139, 1.7520290000829846, 1.9502148000756279, 2.183355599991046, 2.3717812000541016, 2.5508665000088513, 2.7384765000315383, 2.9202976999804378, 3.116564100026153, 3.319683799985796, 3.500528500066139, 3.694313200074248, 3.8826149000087753, 4.083055900060572, 4.269520099973306, 4.481789799989201, 4.648340200074017, 4.849507600069046, 5.035555600072257, 5.201020000036806, 5.383230700041167, 5.567454700008966, 5.749612600076944, 5.947885900037363, 6.133617800078355, 6.31726320006419, 6.548822300042957, 6.716948300017975, 6.914196300087497, 7.098007400054485, 7.2982142000691965, 7.480974100064486, 7.680024400004186]"	154.970908500021	154.984479100094	156.480113900034	NA	NA	NA	NA	NA	NA	NA	NA	"01"	"03"	"2023-12-13_13h16.56.573"	"BART_exp"	"2023.2.2"	"None"	"2023-12-13 13h17.14.762332 +0100"	NA
"balloon.png"	114	0	26	26	26	156.568131900043	NA	NA	NA	NA	NA	NA	NA	NA	NA	NA	NA	NA	156.480375100044	156.568131900043	156.568131900043	156.568131900043	156.568131900043	156.568131900043	0.0109386999392882	0.0109386999392882	0.0109386999392882	156.568131900043	162.798924500006	30	1.5	FALSE	"[0.04833333333333333, 0.04833333333333333, 0.04833333333333333, 0.04833333333333333, 0.04833333333333333, 0.04833333333333333, 0.04833333333333333, 0.04833333333333333, 0.04833333333333333, 0.04833333333333333, 0.04833333333333333, 0.04833333333333333, 0.04833333333333333, 0.04833333333333333, 0.04833333333333333, 0.04833333333333333, 0.04833333333333333, 0.049166666666666664, 0.049166666666666664, 0.04833333333333333, 0.04833333333333333, 0.04833333333333333, 0.04833333333333333, 0.04833333333333333, 0.04833333333333333, 0.04833333333333333, 0.04833333333333333, 0.04833333333333333, 0.04833333333333333, 0.04833333333333333, 0.085]"	"[-0.40166666666666667, -0.40166666666666667, -0.40166666666666667, -0.40166666666666667, -0.40166666666666667, -0.40166666666666667, -0.40166666666666667, -0.40166666666666667, -0.40166666666666667, -0.40166666666666667, -0.40166666666666667, -0.40166666666666667, -0.40166666666666667, -0.40166666666666667, -0.40166666666666667, -0.40166666666666667, -0.40166666666666667, -0.40166666666666667, -0.40166666666666667, -0.40166666666666667, -0.40166666666666667, -0.4025, -0.4033333333333333, -0.4033333333333333, -0.4033333333333333, -0.4033333333333333, -0.4033333333333333, -0.4033333333333333, -0.4033333333333333, -0.4033333333333333, -0.3625]"	"[1, 1, 1, 1, 1, 1, 1, 1, 1, 1, 1, 1, 1, 1, 1, 1, 1, 1, 1, 1, 1, 1, 1, 1, 1, 1, 1, 1, 1, 1, 0]"	"[0, 0, 0, 0, 0, 0, 0, 0, 0, 0, 0, 0, 0, 0, 0, 0, 0, 0, 0, 0, 0, 0, 0, 0, 0, 0, 0, 0, 0, 0, 0]"	"[0, 0, 0, 0, 0, 0, 0, 0, 0, 0, 0, 0, 0, 0, 0, 0, 0, 0, 0, 0, 0, 0, 0, 0, 0, 0, 0, 0, 0, 0, 1]"	"[0.28857129998505116, 0.46772820001933724, 0.6531527999322861, 0.8341801000060514, 1.0336665000068024, 1.2199857999803498, 1.43587759998627, 1.6359322000062093, 1.852697000023909, 2.0329237999394536, 2.2202992000384256, 2.419832200044766, 2.6198164999950677, 2.837235899991356, 3.037131999968551, 3.2523011999437585, 3.4520112000172958, 3.6518977000378072, 3.835528500028886, 4.034846300026402, 4.249294199980795, 4.416575500043109, 4.5999896000139415, 4.801386800012551, 4.997943799942732, 5.199727899977006, 5.3842002999736, 5.5847657000413164, 5.767165199969895, 5.967167599941604, 6.316890900023282]"	31	"[0.2123139000032097, 0.39146139996591955, 0.5768862999975681, 0.7579209000105038, 0.9574015999678522, 1.143708899966441, 1.3596081999130547, 1.5596639999421313, 1.7764915999723598, 1.9566851999843493, 2.1443855999968946, 2.3436557999812067, 2.5436059000203386, 2.7611137999920174, 2.9610006000148132, 3.1761337999487296, 3.375834899954498, 3.5757218999788165, 3.759333699941635, 3.958663099911064, 4.173110699979588, 4.340371900005266, 4.523761899909005, 4.725341300014406, 4.921669299947098, 5.123450299957767, 5.307928499998525, 5.508573799976148, 5.690977299935184, 5.890973699977621, 6.240741799934767]"	"[0.2575197999831289, 0.4239943999564275, 0.6246208000229672, 0.8237183999735862, 1.02633199992124, 1.2109409999102354, 1.4101469999877736, 1.6082929999101907, 1.8078655999852344, 2.009139799978584, 2.2101639999309555, 2.408102500019595, 2.6243302000220865, 2.810097699984908, 3.023619499988854, 3.2258751000044867, 3.442276299931109, 3.625056799966842, 3.824806999997236, 4.023007399984635, 4.2061816999921575, 4.409527899930254, 4.590769600006752, 4.778850800008513, 4.973982199910097, 5.173988699913025, 5.390728899976239, 5.574615299934521, 5.757618599920534, 5.990651699947193, 6.240749099990353]"	162.800718800048	162.813379400061	164.312130800099	NA	NA	NA	NA	NA	NA	NA	NA	"01"	"03"	"2023-12-13_13h16.56.573"	"BART_exp"	"2023.2.2"	"None"	"2023-12-13 13h17.14.762332 +0100"	NA
"balloon.png"	101	0	27	27	23	164.368422500091	NA	NA	NA	NA	NA	NA	NA	NA	NA	NA	NA	NA	164.312383800047	164.368422500091	164.368422500091	164.368422500091	164.368422500091	164.368422500091	0.0131720999488607	0.0131720999488607	0.0131720999488607	164.368422500091	169.093937000027	24	1.2	FALSE	"[0.030833333333333334, 0.030833333333333334, 0.030833333333333334, 0.030833333333333334, 0.030833333333333334, 0.030833333333333334, 0.030833333333333334, 0.030833333333333334, 0.030833333333333334, 0.03, 0.03, 0.03333333333333333, 0.035, 0.035, 0.035, 0.035, 0.034166666666666665, 0.034166666666666665, 0.034166666666666665, 0.03333333333333333, 0.03333333333333333, 0.034166666666666665, 0.035, 0.16833333333333333]"	"[-0.37916666666666665, -0.37916666666666665, -0.37916666666666665, -0.37916666666666665, -0.37916666666666665, -0.37916666666666665, -0.37916666666666665, -0.37916666666666665, -0.37916666666666665, -0.38, -0.38083333333333336, -0.3825, -0.3858333333333333, -0.38916666666666666, -0.38916666666666666, -0.38916666666666666, -0.38666666666666666, -0.3858333333333333, -0.3858333333333333, -0.3858333333333333, -0.38666666666666666, -0.38666666666666666, -0.3875, -0.24166666666666667]"	"[1, 1, 1, 1, 1, 1, 1, 1, 1, 1, 1, 1, 1, 1, 1, 1, 1, 1, 1, 1, 1, 1, 1, 0]"	"[0, 0, 0, 0, 0, 0, 0, 0, 0, 0, 0, 0, 0, 0, 0, 0, 0, 0, 0, 0, 0, 0, 0, 0]"	"[0, 0, 0, 0, 0, 0, 0, 0, 0, 0, 0, 0, 0, 0, 0, 0, 0, 0, 0, 0, 0, 0, 0, 1]"	"[0.14754499995615333, 0.3638372999848798, 0.567033699946478, 0.7478967999340966, 0.9313021999550983, 1.1142069000052288, 1.3160553999477997, 1.5135672999313101, 1.700245099957101, 1.8996731999795884, 2.08315219997894, 2.29639099992346, 2.483233100036159, 2.665721599943936, 2.8651249000104144, 3.032542899949476, 3.249741100007668, 3.4285745000233874, 3.598196899984032, 3.795389399980195, 3.980875000008382, 4.180794399930164, 4.361578300013207, 4.78025119996164]"	23	"[0.10208360000979155, 0.31830119993537664, 0.5214921999722719, 0.7024026999715716, 0.8857612999854609, 1.0687257999088615, 1.270794100011699, 1.468078100006096, 1.6548133000032976, 1.8542517999885604, 2.037739099934697, 2.2509491000091657, 2.4378010999644175, 2.6202797999139875, 2.8196868000086397, 2.987110699992627, 3.2042904999107122, 3.3831040000077337, 3.5526922999415547, 3.749844399979338, 3.935335199930705, 4.135316199972294, 4.316093000001274]"	"[0.1878280999371782, 0.3853946999879554, 0.5692573999986053, 0.7509896999690682, 0.9538603000110015, 1.150826899916865, 1.336926499963738, 1.5204935999354348, 1.7203352999640629, 1.904878499917686, 2.120328399934806, 2.303236600011587, 2.486112199956551, 2.6862600999884307, 2.867681699921377, 3.053065999993123, 3.235633199918084, 3.4172090999782085, 3.6027877000160515, 3.8019465999677777, 3.9999164999462664, 4.182425700011663, 4.382348699960858]"	169.09532730002	169.105831700028	170.588710700045	170.606977000018	NA	NA	NA	NA	NA	NA	NA	"01"	"03"	"2023-12-13_13h16.56.573"	"BART_exp"	"2023.2.2"	"None"	"2023-12-13 13h17.14.762332 +0100"	NA
"balloon.png"	79	0	28	28	18	170.606977000018	NA	NA	NA	NA	NA	NA	NA	NA	NA	NA	NA	NA	170.588972800062	170.606977000018	170.606977000018	170.606977000018	170.606977000018	170.606977000018	0.0118931999895722	0.0118931999895722	0.0118931999895722	170.606977000018	175.107717600069	21	1.05	FALSE	"[0.021666666666666667, 0.021666666666666667, 0.021666666666666667, 0.021666666666666667, 0.021666666666666667, 0.021666666666666667, 0.021666666666666667, 0.018333333333333333, 0.018333333333333333, 0.018333333333333333, 0.018333333333333333, 0.018333333333333333, 0.018333333333333333, 0.018333333333333333, 0.018333333333333333, 0.018333333333333333, 0.018333333333333333, 0.018333333333333333, 0.019166666666666665, 0.019166666666666665, 0.019166666666666665, 0.05416666666666667]"	"[-0.4066666666666667, -0.4066666666666667, -0.4066666666666667, -0.4066666666666667, -0.4066666666666667, -0.4066666666666667, -0.4066666666666667, -0.40166666666666667, -0.40166666666666667, -0.40166666666666667, -0.40166666666666667, -0.40166666666666667, -0.40166666666666667, -0.40166666666666667, -0.40166666666666667, -0.40166666666666667, -0.40166666666666667, -0.40166666666666667, -0.40166666666666667, -0.40166666666666667, -0.40166666666666667, -0.295]"	"[1, 1, 1, 1, 1, 1, 1, 1, 1, 1, 1, 1, 1, 1, 1, 1, 1, 1, 1, 1, 1, 0]"	"[0, 0, 0, 0, 0, 0, 0, 0, 0, 0, 0, 0, 0, 0, 0, 0, 0, 0, 0, 0, 0, 0]"	"[0, 0, 0, 0, 0, 0, 0, 0, 0, 0, 0, 0, 0, 0, 0, 0, 0, 0, 0, 0, 0, 1]"	"[0.33355560002382845, 0.5353226000443101, 0.7177196000702679, 0.9356413000496104, 1.1704178000800312, 1.4184276000596583, 1.6188753000460565, 1.8687275000847876, 2.0530093000270426, 2.252464900026098, 2.452350200037472, 2.651329700020142, 2.8685535000404343, 3.068326500011608, 3.2506606000242755, 3.4488825000589713, 3.634217799990438, 3.798257000045851, 3.98465070000384, 4.151502000051551, 4.316793099977076, 4.517000599997118]"	21	"[0.331120099988766, 0.5328855999978259, 0.7153490999480709, 0.9332412999356166, 1.168033599969931, 1.4160316999768838, 1.616572199971415, 1.8663902999833226, 2.0506697999080643, 2.250112699926831, 2.44999039999675, 2.6489542999770492, 2.8662174999481067, 3.0659462999319658, 3.248267999966629, 3.446534899994731, 3.6318344000028446, 3.795843799947761, 3.9822274999460205, 4.149154299986549, 4.314384799916297]"	"[0.3975526998983696, 0.5974587999517098, 0.7969148999545723, 1.016919899964705, 1.2495987999718636, 1.4662319999188185, 1.6989617999643087, 1.915796999935992, 2.116401099949144, 2.313742799917236, 2.5162768999580294, 2.722274399944581, 2.948914499953389, 3.131064699962735, 3.314484699978493, 3.495437299949117, 3.6824360999744385, 3.848650199943222, 4.0307120999787, 4.212242999929003, 4.361289299908094]"	175.109635600005	175.121591300005	176.620502200094	NA	NA	NA	NA	NA	NA	NA	NA	"01"	"03"	"2023-12-13_13h16.56.573"	"BART_exp"	"2023.2.2"	"None"	"2023-12-13 13h17.14.762332 +0100"	NA
"balloon.png"	18	0	29	29	4	176.655949600041	NA	NA	NA	NA	NA	NA	NA	NA	NA	NA	NA	NA	176.620775700081	176.655949600041	176.655949600041	176.655949600041	176.655949600041	176.655949600041	0.0126516999443993	0.0126516999443993	0.0126516999443993	176.655949600041	180.337988400017	19	0.9	TRUE	"[0.0325, 0.0325, 0.0325, 0.0325, 0.0325, 0.0325, 0.0325, 0.0325, 0.0325, 0.0325, 0.0325, 0.0325, 0.0325, 0.0325, 0.0325, 0.0325, 0.0325, 0.0325, 0.0325]"	"[-0.39416666666666667, -0.39416666666666667, -0.39416666666666667, -0.39416666666666667, -0.39416666666666667, -0.39416666666666667, -0.39416666666666667, -0.39416666666666667, -0.39416666666666667, -0.39416666666666667, -0.39416666666666667, -0.39416666666666667, -0.39416666666666667, -0.39416666666666667, -0.39416666666666667, -0.39416666666666667, -0.39416666666666667, -0.39416666666666667, -0.39416666666666667]"	"[1, 1, 1, 1, 1, 1, 1, 1, 1, 1, 1, 1, 1, 1, 1, 1, 1, 1, 1]"	"[0, 0, 0, 0, 0, 0, 0, 0, 0, 0, 0, 0, 0, 0, 0, 0, 0, 0, 0]"	"[0, 0, 0, 0, 0, 0, 0, 0, 0, 0, 0, 0, 0, 0, 0, 0, 0, 0, 0]"	"[0.036283399909734726, 0.21774250001180917, 0.4147677000146359, 0.6327192999888211, 0.8642195999855176, 1.0819405999500304, 1.2829002999933437, 1.4988724999129772, 1.7161507999990135, 1.8992521999171004, 2.08247019990813, 2.2857729999814183, 2.5010897999163717, 2.6979829999618232, 2.901402899995446, 3.0995916000101715, 3.270812499918975, 3.454650399973616, 3.6391714999917895]"	19	"[0.0005632999818772078, 0.19271939992904663, 0.38983799994457513, 0.6076825999189168, 0.839164900011383, 1.05695320002269, 1.2578526999568567, 1.473858100012876, 1.6913866000249982, 1.8742547000292689, 2.0574747999198735, 2.2610505999764428, 2.4762306000338867, 2.6732232000213116, 2.8766075000166893, 3.0748559000203386, 3.246042300015688, 3.429826100007631, 3.6143523999489844]"	"[0.0745995999313891, 0.28983829997014254, 0.4744786999654025, 0.6901640000287443, 0.9082929999567568, 1.1242405999219045, 1.3381593999220058, 1.5400694999843836, 1.74022099992726, 1.9405575999990106, 2.155461199930869, 2.336544399964623, 2.5567402000306174, 2.749715599929914, 2.9556363000301644, 3.121595099917613, 3.3015444999327883, 3.483461400028318, 3.671862500021234]"	180.340166200069	180.350766900112	181.847281200113	NA	NA	NA	NA	NA	NA	NA	NA	"01"	"03"	"2023-12-13_13h16.56.573"	"BART_exp"	"2023.2.2"	"None"	"2023-12-13 13h17.14.762332 +0100"	NA
NA	NA	NA	NA	NA	NA	NA	NA	NA	NA	NA	NA	NA	NA	NA	NA	NA	NA	NA	NA	NA	NA	NA	NA	NA	NA	NA	NA	NA	NA	NA	NA	NA	NA	NA	NA	NA	NA	NA	NA	NA	NA	NA	NA	NA	NA	181.847333600046	181.863940500072	181.863940500072	184.0492579001	"space"	2.17042300000321	"None"	"01"	"03"	"2023-12-13_13h16.56.573"	"BART_exp"	"2023.2.2"	"None"	"2023-12-13 13h17.14.762332 +0100"	NA
