image	max_pumps	pump_loop.thisRepN	pump_loop.thisTrialN	pump_loop.thisN	pump_loop.thisIndex	thisRow.t	notes	Start.started	text_start.started	continue_start.started	mouse_start.started	Start.stopped	mouse_start.x	mouse_start.y	mouse_start.leftButton	mouse_start.midButton	mouse_start.rightButton	mouse_start.time	trials.started	stim_balloon.started	stim_balloon_burst.started	stim_balloon_burst.stopped	text_ballon_value.started	text_bank.started	mouse.started	sound_bang.started	sound_bang.stopped	button_balloon.started	trials.stopped	n_pumps	earnings	popped	mouse.x	mouse.y	mouse.leftButton	mouse.midButton	mouse.rightButton	mouse.time	button_balloon.numClicks	button_balloon.timesOn	button_balloon.timesOff	Feedback.started	text_feedback.started	Feedback.stopped	text_feedback.stopped	End.started	text_end.started	key_end.started	End.stopped	key_end.keys	key_end.rt	key_end.duration	participant	session	date	expName	psychopyVersion	frameRate	expStart	
								0.037938599940389395	0.04249939997680485	0.04249939997680485	0.03831430000718683	19.986403799965046	[0.7027777777777777]	[-0.4009259259259259]	[1]	[0]	[0]	[19.947295099962503]																																			34	01	2024-02-27_11h08.39.339	BART_exp	2023.2.3	119.78960150371987	2024-02-27 11h08.57.421776 +0100	
balloon.png	5	0	0	0	1	20.053091199952178													19.993024299968965	20.053091199952178	20.053091199952178	20.053091199952178	20.053091199952178	20.053091199952178	0.008315699989907444	0.008315699989907444	0.008315699989907444	20.053091199952178	24.179573299945332	6	0.25	True	"[0.027777777777777776, 0.012962962962962963, -0.017592592592592594, -0.017592592592592594, -0.017592592592592594, -0.017592592592592594, -0.017592592592592594]"	"[-0.42777777777777776, -0.3990740740740741, -0.3787037037037037, -0.3787037037037037, -0.3787037037037037, -0.3787037037037037, -0.3787037037037037]"	"[1, 1, 1, 1, 1, 1, 1]"	"[0, 0, 0, 0, 0, 0, 0]"	"[0, 0, 0, 0, 0, 0, 0]"	"[1.2600932999048382, 1.9933126999530941, 2.4100648999447003, 2.75154849991668, 3.20167949993629, 3.6103503999765962, 4.068579699960537]"	6	"[1.9389785999665037, 2.355729099945165, 2.697208800003864, 3.1473419999238104, 3.556034699897282, 4.01424579997547]"	"[2.038874299963936, 2.4485125999199226, 2.7972073999699205, 3.2390301999403164, 3.6639266998972744, 4.1225322999525815]"	24.18076649995055	24.188603800022975	25.687882700003684									34	01	2024-02-27_11h08.39.339	BART_exp	2023.2.3	119.78960150371987	2024-02-27 11h08.57.421776 +0100	
balloon.png	110	0	1	1	25	25.702121400041506													25.688163200044073	25.702121400041506	25.702121400041506	25.702121400041506	25.702121400041506	25.702121400041506	0.009065499994903803	0.009065499994903803	0.009065499994903803	25.702121400041506	28.479711399995722	5	0.25	False	"[-0.017592592592592594, -0.017592592592592594, -0.017592592592592594, -0.017592592592592594, -0.017592592592592594, -0.017592592592592594]"	"[-0.3731481481481482, -0.3731481481481482, -0.3731481481481482, -0.3731481481481482, -0.3731481481481482, -0.3731481481481482]"	"[1, 1, 1, 1, 1, 0]"	"[0, 0, 0, 0, 0, 0]"	"[0, 0, 0, 0, 0, 1]"	"[0.6580971999792382, 0.9900062000378966, 1.38190559996292, 1.7984971000114456, 2.1902500999858603, 2.790335900033824]"	6	"[0.6495845000026748, 0.9812789000570774, 1.373187700053677, 1.7897922999691218, 2.181533299968578, 2.7815541999880224]"	"[0.739548800047487, 1.0978215000359342, 1.4894825000083074, 1.8979228000389412, 2.2812590000685304, 2.781558600021526]"	28.480735899996944	28.48912719998043	29.986355699948035									34	01	2024-02-27_11h08.39.339	BART_exp	2023.2.3	119.78960150371987	2024-02-27 11h08.57.421776 +0100	
balloon.png	23	0	2	2	5	30.002750999992713													29.98658200004138	30.002750999992713	30.002750999992713	30.002750999992713	30.002750999992713	30.002750999992713	0.007312200032174587	0.007312200032174587	0.007312200032174587	30.002750999992713	34.15480839996599	7	0.35	False	"[-0.017592592592592594, -0.01574074074074074, -0.01574074074074074, -0.01574074074074074, -0.01574074074074074, -0.01574074074074074, -0.01574074074074074, -0.01574074074074074]"	"[-0.3768518518518518, -0.3787037037037037, -0.3787037037037037, -0.3787037037037037, -0.3787037037037037, -0.3787037037037037, -0.3787037037037037, -0.3787037037037037]"	"[1, 1, 1, 1, 1, 1, 1, 0]"	"[0, 0, 0, 0, 0, 0, 0, 0]"	"[0, 0, 0, 0, 0, 0, 0, 1]"	"[0.6085355000104755, 1.0106955000665039, 1.3835979000432417, 1.7169535000575706, 2.1169867001008242, 2.4589543000329286, 2.8756591000128537, 4.167101200087927]"	8	"[0.5979286999208853, 1.0000985999358818, 1.3729863999178633, 1.7063587999437004, 2.106381799909286, 2.448358599911444, 2.865079499897547, 4.156432099989615]"	"[0.6978468999732286, 1.0979577999096364, 1.4562046999344602, 1.8162551999557763, 2.2062259999802336, 2.548080899985507, 2.9647834999486804, 4.156436399905942]"	34.15556989994366	34.16136749996804	35.65543449996039	35.67321050004102								34	01	2024-02-27_11h08.39.339	BART_exp	2023.2.3	119.78960150371987	2024-02-27 11h08.57.421776 +0100	
balloon.png	53	0	3	3	12	35.67321050004102													35.65571019996423	35.67321050004102	35.67321050004102	35.67321050004102	35.67321050004102	35.67321050004102	0.0017396999755874276	0.0017396999755874276	0.0017396999755874276	35.67321050004102	38.89679180004168	8	0.40	False	"[-0.01574074074074074, -0.01574074074074074, -0.01574074074074074, -0.01574074074074074, -0.01574074074074074, -0.01574074074074074, -0.01574074074074074, -0.01574074074074074, -0.01574074074074074]"	"[-0.3907407407407407, -0.3907407407407407, -0.3907407407407407, -0.3907407407407407, -0.3907407407407407, -0.3907407407407407, -0.3907407407407407, -0.3907407407407407, -0.3907407407407407]"	"[1, 1, 1, 1, 1, 1, 1, 1, 0]"	"[0, 0, 0, 0, 0, 0, 0, 0, 0]"	"[0, 0, 0, 0, 0, 0, 0, 0, 1]"	"[0.29806289996486157, 0.6981155999237671, 1.0415025999536738, 1.4066009999951348, 1.7314940999494866, 2.0982202999293804, 2.4482571999542415, 2.832076199934818, 3.239921599975787]"	9	"[0.2864665000233799, 0.6865200999891385, 1.0299219000153244, 1.3950252999784425, 1.7198989000171423, 2.086623699986376, 2.4366665000561625, 2.8205295000225306, 3.2282803000416607]"	"[0.394675699993968, 0.7697697000112385, 1.103073799982667, 1.4864374999888241, 1.8280793000012636, 2.1865142000606284, 2.5947838000720367, 2.936588100041263, 3.2282849000766873]"	38.89759890001733	38.903289500041865	40.395673600025475	40.41222539998125								34	01	2024-02-27_11h08.39.339	BART_exp	2023.2.3	119.78960150371987	2024-02-27 11h08.57.421776 +0100	
balloon.png	88	0	4	4	20	40.41222539998125													40.395889100036584	40.41222539998125	40.41222539998125	40.41222539998125	40.41222539998125	40.41222539998125	-0.00023120001424103975	-0.00023120001424103975	-0.00023120001424103975	40.41222539998125	43.947114899987355	9	0.45	False	"[-0.014814814814814815, -0.014814814814814815, -0.014814814814814815, -0.014814814814814815, -0.014814814814814815, -0.014814814814814815, -0.014814814814814815, -0.014814814814814815, -0.014814814814814815, -0.014814814814814815]"	"[-0.3907407407407407, -0.3907407407407407, -0.3907407407407407, -0.3907407407407407, -0.3907407407407407, -0.3907407407407407, -0.3907407407407407, -0.3907407407407407, -0.3907407407407407, -0.3907407407407407]"	"[1, 1, 1, 1, 1, 1, 1, 1, 1, 0]"	"[0, 0, 0, 0, 0, 0, 0, 0, 0, 0]"	"[0, 0, 0, 0, 0, 0, 0, 0, 0, 1]"	"[0.35836870002094656, 0.7084326000185683, 1.0669055000180379, 1.4088406999362633, 1.7585401999531314, 2.092246599961072, 2.400321399909444, 2.733425799990073, 3.1834583999589086, 3.55016230000183]"	10	"[0.3472048999974504, 0.6972628999501467, 1.0557437000097707, 1.3977079999167472, 1.7473667999729514, 2.081097999936901, 2.3891661999514326, 2.722247299971059, 3.1723109999438748, 3.5389194999588653]"	"[0.45535770000424236, 0.797179099987261, 1.1554290999192744, 1.5054992999648675, 1.8554838999407366, 2.1721376000205055, 2.481011399999261, 2.8221402999479324, 3.2388676999835297, 3.5389237999916077]"	43.94794300000649	43.95364950003568	45.44600090000313	45.46269489999395								34	01	2024-02-27_11h08.39.339	BART_exp	2023.2.3	119.78960150371987	2024-02-27 11h08.57.421776 +0100	
balloon.png	10	0	5	5	2	45.46269489999395													45.446207299944945	45.46269489999395	45.46269489999395	45.46269489999395	45.46269489999395	45.46269489999395	-0.0002938000252470374	-0.0002938000252470374	-0.0002938000252470374	45.46269489999395	48.989428799948655	9	0.45	False	"[-0.014814814814814815, -0.014814814814814815, -0.014814814814814815, -0.014814814814814815, -0.014814814814814815, -0.014814814814814815, -0.014814814814814815, -0.014814814814814815, -0.014814814814814815, -0.014814814814814815]"	"[-0.3907407407407407, -0.3907407407407407, -0.3907407407407407, -0.3907407407407407, -0.3907407407407407, -0.3907407407407407, -0.3907407407407407, -0.3907407407407407, -0.3907407407407407, -0.3907407407407407]"	"[1, 1, 1, 1, 1, 1, 1, 1, 1, 0]"	"[0, 0, 0, 0, 0, 0, 0, 0, 0, 0]"	"[0, 0, 0, 0, 0, 0, 0, 0, 0, 1]"	"[0.28340479999314994, 0.5980414999648929, 0.9585129000479355, 1.283464099979028, 1.625215300009586, 1.9586205000523478, 2.325100200017914, 2.72541169996839, 3.091911399969831, 3.542111700051464]"	10	"[0.2720493000233546, 0.5868574000196531, 0.9471587999723852, 1.2721053999848664, 1.6138708000071347, 1.9472715000156313, 2.313750999979675, 2.714056700002402, 3.0805590000236407, 3.5307109999703243]"	"[0.3805621999781579, 0.7097427999833599, 1.063562500057742, 1.3969149000477046, 1.7220872000325471, 2.0636889999732375, 2.422113300068304, 2.8137991999974474, 3.1804266000399366, 3.530715400003828]"	48.99021279998124	48.99577539996244	50.48801980004646	50.50291439995635								34	01	2024-02-27_11h08.39.339	BART_exp	2023.2.3	119.78960150371987	2024-02-27 11h08.57.421776 +0100	
balloon.png	40	0	6	6	9	50.50291439995635													50.488229500013404	50.50291439995635	50.50291439995635	50.50291439995635	50.50291439995635	50.50291439995635	-0.0005088999168947339	-0.0005088999168947339	-0.0005088999168947339	50.50291439995635	54.165082999970764	10	0.50	False	"[-0.014814814814814815, -0.014814814814814815, -0.014814814814814815, -0.014814814814814815, -0.014814814814814815, -0.014814814814814815, -0.014814814814814815, -0.014814814814814815, -0.014814814814814815, -0.014814814814814815, -0.014814814814814815]"	"[-0.3907407407407407, -0.3907407407407407, -0.3907407407407407, -0.3907407407407407, -0.3907407407407407, -0.3907407407407407, -0.3907407407407407, -0.3907407407407407, -0.3907407407407407, -0.3907407407407407, -0.3907407407407407]"	"[1, 1, 1, 1, 1, 1, 1, 1, 1, 1, 0]"	"[0, 0, 0, 0, 0, 0, 0, 0, 0, 0, 0]"	"[0, 0, 0, 0, 0, 0, 0, 0, 0, 0, 1]"	"[0.30020210007205606, 0.6166912000626326, 0.9256539000198245, 1.2669603000395, 1.642234900034964, 1.966730899992399, 2.3091633000876755, 2.6001112000085413, 2.950341199990362, 3.2418824000051245, 3.675453000003472]"	11	"[0.2912339000031352, 0.6077023999532685, 0.9166828999295831, 1.2579916999675333, 1.6333315999945626, 1.9577378999674693, 2.3002321999520063, 2.5911293999524787, 2.9413574999198318, 3.2329496999736875, 3.666442299960181]"	"[0.42426439991686493, 0.7161768999649212, 1.0663905999390408, 1.4076459999196231, 1.7664347999962047, 2.074389799963683, 2.416215499979444, 2.6995815999107435, 3.049559799954295, 3.3411883999360725, 3.666446899995208]"	54.16648090002127	54.171029899967834	55.66500060004182	55.68243199994322								34	01	2024-02-27_11h08.39.339	BART_exp	2023.2.3	119.78960150371987	2024-02-27 11h08.57.421776 +0100	
balloon.png	79	0	7	7	18	55.68243199994322													55.66529679996893	55.68243199994322	55.68243199994322	55.68243199994322	55.68243199994322	55.68243199994322	0.0014291000552475452	0.0014291000552475452	0.0014291000552475452	55.68243199994322	60.26487710000947	11	0.55	False	"[-0.014814814814814815, -0.014814814814814815, -0.014814814814814815, -0.014814814814814815, -0.014814814814814815, -0.014814814814814815, -0.014814814814814815, -0.014814814814814815, -0.014814814814814815, -0.014814814814814815, -0.014814814814814815, -0.014814814814814815]"	"[-0.3907407407407407, -0.3907407407407407, -0.3907407407407407, -0.3907407407407407, -0.3907407407407407, -0.3907407407407407, -0.3907407407407407, -0.3907407407407407, -0.3907407407407407, -0.3907407407407407, -0.3907407407407407, -0.3907407407407407]"	"[1, 1, 1, 1, 1, 1, 1, 1, 1, 1, 1, 0]"	"[0, 0, 0, 0, 0, 0, 0, 0, 0, 0, 0, 0]"	"[0, 0, 0, 0, 0, 0, 0, 0, 0, 0, 0, 1]"	"[0.24788150005042553, 0.5481300000101328, 0.8479503000853583, 1.198016200098209, 1.548257900052704, 1.9234338999958709, 2.348314500064589, 2.7401453000493348, 3.064854700001888, 3.398179000010714, 4.131743700010702, 4.5982623000163585]"	12	"[0.23611309996340424, 0.5363607999170199, 0.8361784999724478, 1.1862421999685466, 1.5364870999474078, 1.9116778000025079, 2.336547899991274, 2.7284169999184087, 3.053085699910298, 3.386402399977669, 4.119982299976982, 4.586428299895488]"	"[0.34455059992615134, 0.653840999933891, 0.9527320999186486, 1.3028323999606073, 1.6528590999078006, 2.0362374999094754, 2.4696279999334365, 2.869631199981086, 3.16141709999647, 3.486312499968335, 4.236367999925278, 4.5864326999289915]"	60.265730099985376	60.27164189994801	61.76374109997414	61.77230720000807								34	01	2024-02-27_11h08.39.339	BART_exp	2023.2.3	119.78960150371987	2024-02-27 11h08.57.421776 +0100	
balloon.png	18	0	8	8	4	61.77230720000807													61.76395589997992	61.77230720000807	61.77230720000807	61.77230720000807	61.77230720000807	61.77230720000807	-0.0002741999924182892	-0.0002741999924182892	-0.0002741999924182892	61.77230720000807	66.42390069994144	12	0.60	False	"[-0.014814814814814815, -0.014814814814814815, -0.014814814814814815, -0.014814814814814815, -0.014814814814814815, -0.014814814814814815, -0.014814814814814815, -0.014814814814814815, -0.014814814814814815, -0.014814814814814815, -0.014814814814814815, -0.014814814814814815, -0.014814814814814815]"	"[-0.3907407407407407, -0.3907407407407407, -0.3907407407407407, -0.3907407407407407, -0.3907407407407407, -0.3907407407407407, -0.3907407407407407, -0.3907407407407407, -0.3907407407407407, -0.3907407407407407, -0.3907407407407407, -0.3907407407407407, -0.3907407407407407]"	"[1, 1, 1, 1, 1, 1, 1, 1, 1, 1, 1, 1, 0]"	"[0, 0, 0, 0, 0, 0, 0, 0, 0, 0, 0, 0, 0]"	"[0, 0, 0, 0, 0, 0, 0, 0, 0, 0, 0, 0, 1]"	"[0.2832846000092104, 0.6002184000099078, 0.9250630000606179, 1.2753065000288188, 1.6252721999771893, 2.0003641999792308, 2.3417403999483213, 2.7168864000122994, 3.0607909000245854, 3.433900999953039, 3.775259100017138, 4.150354500045069, 4.6588036000030115]"	13	"[0.2800169000402093, 0.5969628000166267, 0.9218361999373883, 1.2721399000147358, 1.622017899993807, 1.9971190999494866, 2.3384599999990314, 2.713611499988474, 3.057528999983333, 3.4306486999848858, 3.7637357000494376, 4.147082200041041, 4.655463499948382]"	"[0.38852529996074736, 0.7051021000370383, 1.0466788000194356, 1.3800236999522895, 1.7383665000088513, 2.115852399962023, 2.4384213000303134, 2.8217742999549955, 3.1717389000114053, 3.530292800045572, 3.8803279999410734, 4.263650899985805, 4.655467599979602]"	66.42473950004205	66.43082599993795	67.92251970001962	67.93256210000254								34	01	2024-02-27_11h08.39.339	BART_exp	2023.2.3	119.78960150371987	2024-02-27 11h08.57.421776 +0100	
balloon.png	66	0	9	9	15	67.93256210000254													67.92273759993259	67.93256210000254	67.93256210000254	67.93256210000254	67.93256210000254	67.93256210000254	-0.000506600015796721	-0.000506600015796721	-0.000506600015796721	67.93256210000254	74.04911000002176	13	0.65	False	"[-0.014814814814814815, -0.014814814814814815, -0.014814814814814815, -0.014814814814814815, -0.014814814814814815, -0.014814814814814815, -0.014814814814814815, -0.014814814814814815, -0.014814814814814815, -0.014814814814814815, -0.014814814814814815, -0.014814814814814815, -0.014814814814814815, -0.014814814814814815]"	"[-0.3907407407407407, -0.3907407407407407, -0.3907407407407407, -0.3907407407407407, -0.3907407407407407, -0.3907407407407407, -0.3907407407407407, -0.3907407407407407, -0.3907407407407407, -0.3907407407407407, -0.3907407407407407, -0.3907407407407407, -0.3907407407407407, -0.3907407407407407]"	"[1, 1, 1, 1, 1, 1, 1, 1, 1, 1, 1, 1, 1, 0]"	"[0, 0, 0, 0, 0, 0, 0, 0, 0, 0, 0, 0, 0, 0]"	"[0, 0, 0, 0, 0, 0, 0, 0, 0, 0, 0, 0, 0, 1]"	"[0.383381100022234, 0.7515392999630421, 1.1003247000044212, 1.4170531999552622, 1.8256181000033394, 2.1334484999533743, 2.4425411999691278, 2.775357999955304, 3.092357399989851, 3.6837700000032783, 4.092205799999647, 4.508731200010516, 5.108630200033076, 6.125331299961545]"	14	"[0.37888730003032833, 0.7470297000836581, 1.0958304000087082, 1.4125538000371307, 1.8211400000145659, 2.128943599993363, 2.438081400003284, 2.7710473000770435, 3.0878648000070825, 3.6792679000645876, 4.087753199972212, 4.504225800046697, 5.104128199978732, 6.120764399995096]"	"[0.46210050000809133, 0.8538720000069588, 1.204059200012125, 1.5542500000447035, 1.9287950000725687, 2.254330200026743, 2.562485700007528, 2.862222900032066, 3.187449400080368, 3.795715600019321, 4.195674600079656, 4.612533000065014, 5.212463599978946, 6.120768700027838]"	74.0499681000365	74.05574009998236	75.54983979999088	75.56232409994118								34	01	2024-02-27_11h08.39.339	BART_exp	2023.2.3	119.78960150371987	2024-02-27 11h08.57.421776 +0100	
balloon.png	101	0	10	10	23	75.56232409994118													75.55009869998321	75.56232409994118	75.56232409994118	75.56232409994118	75.56232409994118	75.56232409994118	0.0016231000190600753	0.0016231000190600753	0.0016231000190600753	75.56232409994118	80.33328939997591	14	0.70	False	"[-0.014814814814814815, -0.014814814814814815, -0.014814814814814815, -0.014814814814814815, -0.014814814814814815, -0.014814814814814815, -0.014814814814814815, -0.014814814814814815, -0.014814814814814815, -0.014814814814814815, -0.014814814814814815, -0.014814814814814815, -0.014814814814814815, -0.014814814814814815, -0.014814814814814815]"	"[-0.3907407407407407, -0.3907407407407407, -0.3907407407407407, -0.3907407407407407, -0.3907407407407407, -0.3907407407407407, -0.3907407407407407, -0.3907407407407407, -0.3907407407407407, -0.3907407407407407, -0.3907407407407407, -0.3907407407407407, -0.3907407407407407, -0.3907407407407407, -0.3907407407407407]"	"[1, 1, 1, 1, 1, 1, 1, 1, 1, 1, 1, 1, 1, 1, 0]"	"[0, 0, 0, 0, 0, 0, 0, 0, 0, 0, 0, 0, 0, 0, 0]"	"[0, 0, 0, 0, 0, 0, 0, 0, 0, 0, 0, 0, 0, 0, 1]"	"[0.2566536000231281, 0.5398698999779299, 0.8067319999681786, 1.065004299976863, 1.3065912999445572, 1.5399397999281064, 1.7648589999880642, 2.0151269999332726, 2.323369299992919, 2.6152922000037506, 2.9906747000059113, 3.298296399996616, 3.914964299998246, 4.31500409997534, 4.7819721000269055]"	15	"[0.2496243000496179, 0.5328224999830127, 0.799699499970302, 1.0579572999849916, 1.2995479999808595, 1.5328962999628857, 1.757813400006853, 2.0080981999635696, 2.316328200045973, 2.60825459996704, 2.983647800050676, 3.291246399981901, 3.907918500015512, 4.30798170005437, 4.774883099948056]"	"[0.35763550002593547, 0.6409558999584988, 0.9243174999719486, 1.1827677000546828, 1.4076962999533862, 1.6328287000069395, 1.8577472999459133, 2.132904199999757, 2.4244278999976814, 2.724455300020054, 3.1169191000517458, 3.4000076999654993, 3.9999057999812067, 4.416476399987005, 4.774887399980798]"	80.3341823000228	80.33948199998122	81.8318200999638	81.84197089995723								34	01	2024-02-27_11h08.39.339	BART_exp	2023.2.3	119.78960150371987	2024-02-27 11h08.57.421776 +0100	
balloon.png	97	0	11	11	22	81.84197089995723													81.83203819999471	81.84197089995723	81.84197089995723	81.84197089995723	81.84197089995723	81.84197089995723	-0.0006823999574407935	-0.0006823999574407935	-0.0006823999574407935	81.84197089995723	88.00844050000887	15	0.75	False	"[-0.014814814814814815, -0.014814814814814815, -0.014814814814814815, -0.014814814814814815, -0.014814814814814815, -0.014814814814814815, -0.014814814814814815, -0.014814814814814815, -0.014814814814814815, -0.014814814814814815, -0.014814814814814815, -0.014814814814814815, -0.014814814814814815, -0.014814814814814815, -0.014814814814814815, -0.014814814814814815]"	"[-0.3907407407407407, -0.3907407407407407, -0.3907407407407407, -0.3907407407407407, -0.3907407407407407, -0.3907407407407407, -0.3907407407407407, -0.3907407407407407, -0.3907407407407407, -0.3907407407407407, -0.3907407407407407, -0.3907407407407407, -0.3907407407407407, -0.3907407407407407, -0.3907407407407407, -0.3907407407407407]"	"[1, 1, 1, 1, 1, 1, 1, 1, 1, 1, 1, 1, 1, 1, 1, 0]"	"[0, 0, 0, 0, 0, 0, 0, 0, 0, 0, 0, 0, 0, 0, 0, 0]"	"[0, 0, 0, 0, 0, 0, 0, 0, 0, 0, 0, 0, 0, 0, 0, 1]"	"[0.8000843999907374, 1.0918426999123767, 1.4001889999490231, 1.7170564999105409, 2.041759999934584, 2.375127099920064, 2.725371800013818, 3.058574799913913, 3.408581499941647, 3.742092299973592, 4.11715019994881, 4.48395729996264, 4.87529989995528, 5.233909099944867, 5.608681299956515, 6.175353099941276]"	16	"[0.7952359999762848, 1.087006299989298, 1.3953497000038624, 1.7122198999859393, 2.0369085000129417, 2.370274299988523, 2.720527400029823, 3.053724199999124, 3.4037359999492764, 3.7372478999895975, 4.112310399999842, 4.47913430002518, 4.8704485999187455, 5.229068599990569, 5.603833799948916, 6.170449099969119]"	"[0.8951621999731287, 1.2033679999876767, 1.503344599972479, 1.8451744000194594, 2.161899199942127, 2.4952681999420747, 2.853551200008951, 3.162006799946539, 3.512034500017762, 3.853731199982576, 4.236950199934654, 4.603631799924187, 4.987022600020282, 5.3537049000151455, 5.712654599919915, 6.170453400001861]"	88.00959739997052	88.01512630004436	89.50732500001322	89.5224189000437								34	01	2024-02-27_11h08.39.339	BART_exp	2023.2.3	119.78960150371987	2024-02-27 11h08.57.421776 +0100	
balloon.png	36	0	12	12	8	89.5224189000437													89.50753419997636	89.5224189000437	89.5224189000437	89.5224189000437	89.5224189000437	89.5224189000437	-0.0005619000876322389	-0.0005619000876322389	-0.0005619000876322389	89.5224189000437	96.18403560004663	16	0.80	False	"[-0.014814814814814815, -0.014814814814814815, -0.014814814814814815, -0.014814814814814815, -0.014814814814814815, -0.014814814814814815, -0.014814814814814815, -0.014814814814814815, -0.014814814814814815, -0.014814814814814815, -0.014814814814814815, -0.014814814814814815, -0.014814814814814815, -0.014814814814814815, -0.014814814814814815, -0.014814814814814815, -0.014814814814814815]"	"[-0.3907407407407407, -0.3907407407407407, -0.3907407407407407, -0.3907407407407407, -0.3907407407407407, -0.3907407407407407, -0.3907407407407407, -0.3907407407407407, -0.3907407407407407, -0.3907407407407407, -0.3907407407407407, -0.3907407407407407, -0.3907407407407407, -0.3907407407407407, -0.3907407407407407, -0.3907407407407407, -0.3907407407407407]"	"[1, 1, 1, 1, 1, 1, 1, 1, 1, 1, 1, 1, 1, 1, 1, 1, 0]"	"[0, 0, 0, 0, 0, 0, 0, 0, 0, 0, 0, 0, 0, 0, 0, 0, 0]"	"[0, 0, 0, 0, 0, 0, 0, 0, 0, 0, 0, 0, 0, 0, 0, 0, 1]"	"[0.24187659996096045, 0.5582985000219196, 0.8751998000079766, 1.1750503999646753, 1.5002470000181347, 1.8085702999960631, 2.108402599929832, 2.4008600999368355, 2.708745799958706, 3.0338605999713764, 3.383817999972962, 3.6754739999305457, 4.008816099958494, 4.341999899945222, 4.6755096999695525, 5.308684499934316, 6.675454300013371]"	17	"[0.23224159993696958, 0.5486284999642521, 0.8655216000042856, 1.1653776000021026, 1.4905792999779806, 1.7988876999588683, 2.0987267999444157, 2.3911780000198632, 2.699068699963391, 3.0242006999906152, 3.374186299974099, 3.6658085000235587, 3.9991352999350056, 4.332322599948384, 4.665834999992512, 5.299008599948138, 6.665718099917285]"	"[0.3652767000021413, 0.6651965000201017, 0.9737604999681935, 1.2985630999319255, 1.6237664999207482, 1.9237085999920964, 2.240557099925354, 2.523694399977103, 2.828306599985808, 3.165372799965553, 3.5071791999507695, 3.815539399976842, 4.115483699948527, 4.424020599923097, 4.7740314999828115, 5.390788099961355, 6.665722699952312]"	96.18493580003269	96.19070849998388	97.68293340003584	97.69269629998598								34	01	2024-02-27_11h08.39.339	BART_exp	2023.2.3	119.78960150371987	2024-02-27 11h08.57.421776 +0100	
balloon.png	75	0	13	13	17	97.69269629998598													97.68314790003933	97.69269629998598	97.69269629998598	97.69269629998598	97.69269629998598	97.69269629998598	-0.00020589993800967932	-0.00020589993800967932	-0.00020589993800967932	97.69269629998598	103.96132270002272	18	0.90	False	"[-0.014814814814814815, -0.014814814814814815, -0.014814814814814815, -0.014814814814814815, -0.014814814814814815, -0.014814814814814815, -0.014814814814814815, -0.014814814814814815, -0.014814814814814815, -0.014814814814814815, -0.014814814814814815, -0.014814814814814815, -0.014814814814814815, -0.014814814814814815, -0.014814814814814815, -0.014814814814814815, -0.014814814814814815, -0.014814814814814815, -0.014814814814814815]"	"[-0.3907407407407407, -0.3907407407407407, -0.3907407407407407, -0.3907407407407407, -0.3907407407407407, -0.3907407407407407, -0.3907407407407407, -0.3907407407407407, -0.3907407407407407, -0.3907407407407407, -0.3907407407407407, -0.3907407407407407, -0.3907407407407407, -0.3907407407407407, -0.3907407407407407, -0.3907407407407407, -0.3907407407407407, -0.3907407407407407, -0.3907407407407407]"	"[1, 1, 1, 1, 1, 1, 1, 1, 1, 1, 1, 1, 1, 1, 1, 1, 1, 1, 0]"	"[0, 0, 0, 0, 0, 0, 0, 0, 0, 0, 0, 0, 0, 0, 0, 0, 0, 0, 0]"	"[0, 0, 0, 0, 0, 0, 0, 0, 0, 0, 0, 0, 0, 0, 0, 0, 0, 0, 1]"	"[0.27542929991614074, 0.6169170999201015, 0.9000063999556005, 1.183393899933435, 1.4690677999751642, 1.800302500021644, 2.1334865000098944, 2.4419550999300554, 2.725082000019029, 3.0337675999617204, 3.4004696999909356, 3.683868999942206, 4.000417899922468, 4.267139600007795, 4.6004786000121385, 4.900398099911399, 5.243226299993694, 5.842220499995165, 6.276902299956419]"	19	"[0.27141809999011457, 0.6127383999992162, 0.89581110002473, 1.1791998000117019, 1.464876199956052, 1.7961116000078619, 2.1292900999542326, 2.4377569999778643, 2.720879100030288, 3.029571200022474, 3.396296099992469, 3.6796887000091374, 3.9962166000623256, 4.262940900051035, 4.596281999954954, 4.8962130000581965, 5.239188299980015, 5.838021800038405, 6.272741200053133]"	"[0.40430229995399714, 0.7207805999787524, 0.9957277000648901, 1.2791050999658182, 1.5706933999899775, 1.8958266000263393, 2.2291787000140175, 2.5541183999739587, 2.8292394999880344, 3.145923300064169, 3.504941300023347, 3.795927600003779, 4.112599699990824, 4.379595500067808, 4.696068700053729, 5.004364800057374, 5.354398200055584, 5.9462266999762505, 6.272747699986212]"	103.96221779996995	103.96767639997415	105.46681669994723									34	01	2024-02-27_11h08.39.339	BART_exp	2023.2.3	119.78960150371987	2024-02-27 11h08.57.421776 +0100	
balloon.png	44	0	14	14	10	105.48245170002338													105.46706669998821	105.48245170002338	105.48245170002338	105.48245170002338	105.48245170002338	105.48245170002338	0.006262800074182451	0.006262800074182451	0.006262800074182451	105.48245170002338	112.7188063999638	20	1.00	False	"[-0.014814814814814815, -0.014814814814814815, -0.014814814814814815, -0.014814814814814815, -0.014814814814814815, -0.01574074074074074, -0.01574074074074074, -0.01574074074074074, -0.01574074074074074, -0.01574074074074074, -0.01574074074074074, -0.01574074074074074, -0.01574074074074074, -0.01574074074074074, -0.01574074074074074, -0.01574074074074074, -0.01574074074074074, -0.01574074074074074, -0.01574074074074074, -0.01574074074074074, -0.01574074074074074]"	"[-0.3907407407407407, -0.3907407407407407, -0.3907407407407407, -0.3907407407407407, -0.3907407407407407, -0.3907407407407407, -0.3907407407407407, -0.3907407407407407, -0.3907407407407407, -0.3907407407407407, -0.3907407407407407, -0.3907407407407407, -0.3907407407407407, -0.3907407407407407, -0.3907407407407407, -0.3907407407407407, -0.3907407407407407, -0.3907407407407407, -0.3907407407407407, -0.3907407407407407, -0.3907407407407407]"	"[1, 1, 1, 1, 1, 1, 1, 1, 1, 1, 1, 1, 1, 1, 1, 1, 1, 1, 1, 1, 0]"	"[0, 0, 0, 0, 0, 0, 0, 0, 0, 0, 0, 0, 0, 0, 0, 0, 0, 0, 0, 0, 0]"	"[0, 0, 0, 0, 0, 0, 0, 0, 0, 0, 0, 0, 0, 0, 0, 0, 0, 0, 0, 0, 1]"	"[0.23429310007486492, 0.5337636000476778, 0.7503953000996262, 1.000756400055252, 1.2507543000392616, 1.608573600067757, 1.933421800029464, 2.2028766000876203, 2.5002452000044286, 2.76670290005859, 3.0503172000171617, 3.333461400005035, 3.625443400000222, 3.9252400000113994, 4.225537400110625, 4.591996100032702, 4.875585300032981, 5.433924300014041, 5.833870000089519, 6.433876299997792, 7.250642800005153]"	21	"[0.2242120000300929, 0.5236524000065401, 0.7402825000463054, 0.9906936000334099, 1.2406865000957623, 1.598462100024335, 1.9233744000084698, 2.1927663000533357, 2.4901539999991655, 2.7565781000303105, 3.0401951000094414, 3.323345600045286, 3.615345200058073, 3.9151186000090092, 4.21542430005502, 4.581868699984625, 4.865481000044383, 5.423825600068085, 5.823751699994318, 6.42375549999997, 7.240476800012402]"	"[0.33137040003202856, 0.6069915000116453, 0.8234073000494391, 1.0981308000627905, 1.3566593000432476, 1.7232249000808224, 2.023215400055051, 2.331593499984592, 2.6064967000856996, 2.8731581000611186, 3.156467100023292, 3.4731976999901235, 3.7649899000534788, 4.039916300098412, 4.356608500005677, 4.689972500083968, 4.98185950005427, 5.540042700013146, 5.948532000067644, 6.5819421000778675, 7.240480900043622]"	112.71979420003481	112.72506970004179	114.21747329994105	114.23231250001118								34	01	2024-02-27_11h08.39.339	BART_exp	2023.2.3	119.78960150371987	2024-02-27 11h08.57.421776 +0100	
balloon.png	49	0	15	15	11	114.23231250001118													114.21768809994683	114.23231250001118	114.23231250001118	114.23231250001118	114.23231250001118	114.23231250001118	-0.0006063999608159065	-0.0006063999608159065	-0.0006063999608159065	114.23231250001118	123.01093859993853	24	1.20	False	"[-0.01574074074074074, -0.01574074074074074, -0.01574074074074074, -0.01574074074074074, -0.01574074074074074, -0.01574074074074074, -0.01574074074074074, -0.01574074074074074, -0.01574074074074074, -0.01574074074074074, -0.01574074074074074, -0.01574074074074074, -0.01574074074074074, -0.01574074074074074, -0.01574074074074074, -0.01574074074074074, -0.01574074074074074, -0.01574074074074074, -0.01574074074074074, -0.01574074074074074, -0.01574074074074074, -0.01574074074074074, -0.01574074074074074, -0.01574074074074074, -0.01574074074074074]"	"[-0.3768518518518518, -0.3768518518518518, -0.3768518518518518, -0.3768518518518518, -0.3768518518518518, -0.3768518518518518, -0.3768518518518518, -0.3768518518518518, -0.3768518518518518, -0.3768518518518518, -0.3768518518518518, -0.3768518518518518, -0.3768518518518518, -0.3768518518518518, -0.3768518518518518, -0.3768518518518518, -0.3768518518518518, -0.3768518518518518, -0.3768518518518518, -0.3768518518518518, -0.3768518518518518, -0.3768518518518518, -0.3768518518518518, -0.3768518518518518, -0.3768518518518518]"	"[1, 1, 1, 1, 1, 1, 1, 1, 1, 1, 1, 1, 1, 1, 1, 1, 1, 1, 1, 1, 1, 1, 1, 1, 0]"	"[0, 0, 0, 0, 0, 0, 0, 0, 0, 0, 0, 0, 0, 0, 0, 0, 0, 0, 0, 0, 0, 0, 0, 0, 0]"	"[0, 0, 0, 0, 0, 0, 0, 0, 0, 0, 0, 0, 0, 0, 0, 0, 0, 0, 0, 0, 0, 0, 0, 0, 1]"	"[0.3333599000470713, 0.7832952999742702, 1.1999818000476807, 1.5087764000054449, 1.816665800055489, 2.1167271999875084, 2.4000685999635607, 2.6753596999915317, 2.9501161000225693, 3.250344700063579, 3.550183800049126, 3.8168462000321597, 4.058729400043376, 4.300483600003645, 4.575169699965045, 4.86719819996506, 5.183701200061478, 5.566962199984118, 6.000332099967636, 6.458905300009064, 7.217182600055821, 7.517409499967471, 7.934057299979031, 8.425680899992585, 8.792193099972792]"	25	"[0.3239666000008583, 0.7738999999128282, 1.1905827999580652, 1.4995133999036625, 1.8072812999598682, 2.1073323999298736, 2.390669099986553, 2.6660337999928743, 2.9407163999276236, 3.240954599925317, 3.540806300006807, 3.8074485999532044, 4.0493400999112055, 4.291098300018348, 4.565773600013927, 4.857806199928746, 5.174312899936922, 5.557568799937144, 5.990937399910763, 6.449518600013107, 7.207793299923651, 7.508049899945036, 7.924666399951093, 8.416294900001958, 8.78273699991405]"	"[0.44044519995804876, 0.8905286999652162, 1.2990149999968708, 1.6238242000108585, 1.940580299939029, 2.2405512999976054, 2.5322901000035927, 2.815560399903916, 3.090654099942185, 3.3656121999956667, 3.6489558999892324, 3.948939999914728, 4.2074049999937415, 4.45742839993909, 4.699088699999265, 5.015703999903053, 5.315750199952163, 5.699120000004768, 6.124197499942966, 6.5826122999424115, 7.3159135999158025, 7.616124799940735, 8.032658700016327, 8.53268449997995, 8.782741399947554]"	123.01204009994399	123.01763749995735	124.50975920003839	124.52262479998171								34	01	2024-02-27_11h08.39.339	BART_exp	2023.2.3	119.78960150371987	2024-02-27 11h08.57.421776 +0100	
balloon.png	71	0	16	16	16	124.52262479998171													124.50996970001142	124.52262479998171	124.52262479998171	124.52262479998171	124.52262479998171	124.52262479998171	-0.0005375000182539225	-0.0005375000182539225	-0.0005375000182539225	124.52262479998171	130.54493720002938	20	1.00	False	"[-0.01574074074074074, -0.01574074074074074, -0.01574074074074074, -0.01574074074074074, -0.01574074074074074, -0.01574074074074074, -0.01574074074074074, -0.01574074074074074, -0.01574074074074074, -0.01574074074074074, -0.01574074074074074, -0.01574074074074074, -0.01574074074074074, -0.01574074074074074, -0.01574074074074074, -0.01574074074074074, -0.01574074074074074, -0.01574074074074074, -0.01574074074074074, -0.01574074074074074, -0.01574074074074074]"	"[-0.3768518518518518, -0.3768518518518518, -0.3768518518518518, -0.3768518518518518, -0.3768518518518518, -0.3768518518518518, -0.3768518518518518, -0.3768518518518518, -0.3768518518518518, -0.3768518518518518, -0.3768518518518518, -0.3768518518518518, -0.3768518518518518, -0.3768518518518518, -0.3768518518518518, -0.3768518518518518, -0.3768518518518518, -0.3768518518518518, -0.3768518518518518, -0.3768518518518518, -0.3768518518518518]"	"[1, 1, 1, 1, 1, 1, 1, 1, 1, 1, 1, 1, 1, 1, 1, 1, 1, 1, 1, 1, 0]"	"[0, 0, 0, 0, 0, 0, 0, 0, 0, 0, 0, 0, 0, 0, 0, 0, 0, 0, 0, 0, 0]"	"[0, 0, 0, 0, 0, 0, 0, 0, 0, 0, 0, 0, 0, 0, 0, 0, 0, 0, 0, 0, 1]"	"[0.2918504000408575, 0.583605199935846, 0.858564900001511, 1.083493100013584, 1.300092599936761, 1.5425106999464333, 1.7669942999491468, 2.0167714999988675, 2.2584581000264734, 2.5002268999814987, 2.733735700021498, 2.975380099960603, 3.2418904999503866, 3.483632200048305, 3.717031699954532, 4.033752099960111, 4.283616999979131, 4.858715099981055, 5.225423399941064, 5.66715320001822, 6.033842899953015]"	21	"[0.2851382999215275, 0.5768773999297991, 0.8518368999939412, 1.0767591999610886, 1.2933651999337599, 1.5359298998955637, 1.7602717999834567, 2.010031499899924, 2.251727999886498, 2.4934878998901695, 2.7270048999926075, 2.968649199930951, 3.2351670999778435, 3.4768998998915777, 3.7102983999066055, 4.027015200001188, 4.276882199919783, 4.851983599946834, 5.218686899985187, 5.6604208999779075, 6.027047699899413]"	"[0.4265645999694243, 0.7099079999607056, 0.9682061999337748, 1.209916399908252, 1.434842799906619, 1.6766990999458358, 1.9015681999735534, 2.127372699906118, 2.368332599988207, 2.6182890998898074, 2.859997999970801, 3.110135299968533, 3.3599868998862803, 3.568363699945621, 3.8434138000011444, 4.126851399894804, 4.418490699958056, 4.96857829997316, 5.335166099946946, 5.7270209999987856, 6.027052299934439]"	130.54596160002984	130.55131719994824	132.04378279997036	132.052221299964								34	01	2024-02-27_11h08.39.339	BART_exp	2023.2.3	119.78960150371987	2024-02-27 11h08.57.421776 +0100	
balloon.png	62	0	17	17	14	132.052221299964													132.04400009999517	132.052221299964	132.052221299964	132.052221299964	132.052221299964	132.052221299964	-0.0004582999972626567	-0.0004582999972626567	-0.0004582999972626567	132.052221299964	138.3704314000206	22	1.10	False	"[-0.014814814814814815, -0.014814814814814815, -0.014814814814814815, -0.014814814814814815, -0.014814814814814815, -0.014814814814814815, -0.014814814814814815, -0.014814814814814815, -0.014814814814814815, -0.014814814814814815, -0.014814814814814815, -0.014814814814814815, -0.014814814814814815, -0.014814814814814815, -0.014814814814814815, -0.014814814814814815, -0.014814814814814815, -0.014814814814814815, -0.014814814814814815, -0.014814814814814815, -0.014814814814814815, -0.014814814814814815, -0.014814814814814815]"	"[-0.3787037037037037, -0.38055555555555554, -0.38055555555555554, -0.38055555555555554, -0.38055555555555554, -0.38055555555555554, -0.38055555555555554, -0.38055555555555554, -0.38055555555555554, -0.38055555555555554, -0.38055555555555554, -0.38055555555555554, -0.38055555555555554, -0.38055555555555554, -0.38055555555555554, -0.38055555555555554, -0.38055555555555554, -0.38055555555555554, -0.38055555555555554, -0.38055555555555554, -0.38055555555555554, -0.38055555555555554, -0.38055555555555554]"	"[1, 1, 1, 1, 1, 1, 1, 1, 1, 1, 1, 1, 1, 1, 1, 1, 1, 1, 1, 1, 1, 1, 0]"	"[0, 0, 0, 0, 0, 0, 0, 0, 0, 0, 0, 0, 0, 0, 0, 0, 0, 0, 0, 0, 0, 0, 0]"	"[0, 0, 0, 0, 0, 0, 0, 0, 0, 0, 0, 0, 0, 0, 0, 0, 0, 0, 0, 0, 0, 0, 1]"	"[0.3003473000135273, 0.6251293000532314, 0.8915460000280291, 1.1083293999545276, 1.358277800027281, 1.566700299968943, 1.7837781000416726, 1.9751486999448389, 2.174975399975665, 2.3500611999770626, 2.533304400043562, 2.700024100020528, 2.866922099958174, 3.0252086999826133, 3.2087917999597266, 3.3920034000184387, 3.5751452000113204, 3.7836363000096753, 4.000280800042674, 4.30846610001754, 4.650382500025444, 5.967124099959619, 6.325371899991296]"	23	"[0.29739990003872663, 0.6221867999993265, 0.8885921000037342, 1.1053868000162765, 1.3553260000189766, 1.563783699995838, 1.7810151999583468, 1.9721988999517635, 2.1720197999384254, 2.3471474000252783, 2.5303879999555647, 2.6971038000192493, 2.864025800023228, 3.0222646000329405, 3.2058744999812916, 3.389065399998799, 3.5721914999885485, 3.7807063000509515, 3.9973381999880075, 4.305520399939269, 4.6474294000072405, 5.964178499998525, 6.32235639996361]"	"[0.4306104000424966, 0.7384982999647036, 0.9972614999860525, 1.2218929999507964, 1.4638435000088066, 1.6803841999499127, 1.8886020999634638, 2.0886243999702856, 2.2718307999894023, 2.4552640999900177, 2.630320700001903, 2.8053082999540493, 2.972005799994804, 3.1302374999504536, 3.322062599938363, 3.4969690999714658, 3.680335200042464, 3.880344199948013, 4.122193100047298, 4.405628900043666, 4.780425600009039, 6.055476599955, 6.322360599995591]"	138.37149439996574	138.37683630001266	139.86915099993348	139.8826507999329								34	01	2024-02-27_11h08.39.339	BART_exp	2023.2.3	119.78960150371987	2024-02-27 11h08.57.421776 +0100	
balloon.png	14	0	18	18	3	139.8826507999329													139.86936919996515	139.8826507999329	139.8826507999329	139.8826507999329	139.8826507999329	139.8826507999329	-0.0006165000377222896	-0.0006165000377222896	-0.0006165000377222896	139.8826507999329	143.12173489993438	15	0.70	True	"[-0.014814814814814815, -0.014814814814814815, -0.014814814814814815, -0.014814814814814815, -0.014814814814814815, -0.014814814814814815, -0.014814814814814815, -0.014814814814814815, -0.014814814814814815, -0.014814814814814815, -0.014814814814814815, -0.014814814814814815, -0.014814814814814815, -0.014814814814814815, -0.014814814814814815]"	"[-0.38055555555555554, -0.38055555555555554, -0.38055555555555554, -0.38055555555555554, -0.38055555555555554, -0.38055555555555554, -0.38055555555555554, -0.38055555555555554, -0.38055555555555554, -0.38055555555555554, -0.38055555555555554, -0.38055555555555554, -0.38055555555555554, -0.38055555555555554, -0.38055555555555554]"	"[1, 1, 1, 1, 1, 1, 1, 1, 1, 1, 1, 1, 1, 1, 1]"	"[0, 0, 0, 0, 0, 0, 0, 0, 0, 0, 0, 0, 0, 0, 0]"	"[0, 0, 0, 0, 0, 0, 0, 0, 0, 0, 0, 0, 0, 0, 0]"	"[0.31682239996735007, 0.6170883999438956, 0.8583623999729753, 1.1085075999144465, 1.3417466999962926, 1.5343781999545172, 1.7510557000059634, 1.9344754999037832, 2.1250991999404505, 2.308499699924141, 2.467326099984348, 2.6339393999660388, 2.8087688999949023, 2.9673334999242797, 3.142071299953386]"	15	"[0.308825199957937, 0.6091027999063954, 0.8503605999285355, 1.1005121999187395, 1.333758999942802, 1.5264082999201491, 1.7430932999122888, 1.9265281999250874, 2.117112399893813, 2.3005032999208197, 2.4593684999272227, 2.6260156999342144, 2.800780199933797, 2.959574199980125, 3.1340794999850914]"	"[0.41693899990059435, 0.7502814999315888, 1.0003037999849766, 1.2336711999960244, 1.4590770999202505, 1.6425237999064848, 1.8605395999038592, 2.0424831999698654, 2.2257042999845, 2.400425999891013, 2.5670733998995274, 2.7275466999271885, 2.8923796999733895, 3.058895699912682, 3.233817199943587]"	143.1226958000334	143.1271781999385	144.6194590999512	144.628125899937								34	01	2024-02-27_11h08.39.339	BART_exp	2023.2.3	119.78960150371987	2024-02-27 11h08.57.421776 +0100	
balloon.png	84	0	19	19	19	144.628125899937													144.6196706999326	144.628125899937	144.628125899937	144.628125899937	144.628125899937	144.628125899937	0.00550259998999536			144.628125899937	150.17988119996153	11	0.55	False	"[-0.019444444444444445, -0.020370370370370372, -0.020370370370370372, -0.020370370370370372, -0.020370370370370372, -0.020370370370370372, -0.020370370370370372, -0.020370370370370372, -0.020370370370370372, -0.020370370370370372, -0.020370370370370372, -0.020370370370370372]"	"[-0.387037037037037, -0.387037037037037, -0.387037037037037, -0.387037037037037, -0.387037037037037, -0.387037037037037, -0.387037037037037, -0.387037037037037, -0.387037037037037, -0.387037037037037, -0.387037037037037, -0.387037037037037]"	"[1, 1, 1, 1, 1, 1, 1, 1, 1, 1, 1, 0]"	"[0, 0, 0, 0, 0, 0, 0, 0, 0, 0, 0, 0]"	"[0, 0, 0, 0, 0, 0, 0, 0, 0, 0, 0, 1]"	"[1.8337043999927118, 2.3252505999989808, 2.667130000074394, 2.9920413000509143, 3.26716170005966, 3.6256071000825614, 3.9170324000297114, 4.233936300035566, 4.542150599998422, 4.892190300044604, 5.1926001000683755, 5.559168200008571]"	12	"[1.8305079999845475, 2.3220535999862477, 2.6639456000411883, 2.980586300021969, 3.263963200035505, 3.622421000036411, 3.9138322999933735, 4.2307434000540525, 4.5389604000374675, 4.888993600034155, 5.18943989998661, 5.555910900002345]"	"[1.9718711000168696, 2.4303279999876395, 2.7636520999949425, 3.088711900054477, 3.3803351999958977, 3.7221261999802664, 4.013696899986826, 4.338835600065067, 4.640507100033574, 4.98891640000511, 5.23901040002238, 5.555915400036611]"	150.1807355999481	150.18598660000134	151.68019109999295	151.69236350001302								34	01	2024-02-27_11h08.39.339	BART_exp	2023.2.3	119.78960150371987	2024-02-27 11h08.57.421776 +0100	
balloon.png	57	0	20	20	13	151.69236350001302													151.6804584999336	151.69236350001302	151.69236350001302	151.69236350001302	151.69236350001302	151.69236350001302	0.0013058999320492148	0.0013058999320492148	0.0013058999320492148	151.69236350001302	158.7219126999844	21	1.05	False	"[-0.020370370370370372, -0.020370370370370372, -0.020370370370370372, -0.020370370370370372, -0.020370370370370372, -0.020370370370370372, -0.020370370370370372, -0.020370370370370372, -0.020370370370370372, -0.020370370370370372, -0.020370370370370372, -0.020370370370370372, -0.020370370370370372, -0.020370370370370372, -0.020370370370370372, -0.020370370370370372, -0.020370370370370372, -0.020370370370370372, -0.020370370370370372, -0.020370370370370372, -0.020370370370370372, -0.020370370370370372]"	"[-0.387037037037037, -0.387037037037037, -0.387037037037037, -0.387037037037037, -0.387037037037037, -0.387037037037037, -0.387037037037037, -0.387037037037037, -0.387037037037037, -0.387037037037037, -0.387037037037037, -0.387037037037037, -0.387037037037037, -0.387037037037037, -0.387037037037037, -0.387037037037037, -0.387037037037037, -0.387037037037037, -0.387037037037037, -0.387037037037037, -0.387037037037037, -0.387037037037037]"	"[1, 1, 1, 1, 1, 1, 1, 1, 1, 1, 1, 1, 1, 1, 1, 1, 1, 1, 1, 1, 1, 0]"	"[0, 0, 0, 0, 0, 0, 0, 0, 0, 0, 0, 0, 0, 0, 0, 0, 0, 0, 0, 0, 0, 0]"	"[0, 0, 0, 0, 0, 0, 0, 0, 0, 0, 0, 0, 0, 0, 0, 0, 0, 0, 0, 0, 0, 1]"	"[0.3232334000058472, 0.6313076000660658, 0.914665500051342, 1.1566467999946326, 1.4479926000349224, 1.7758499000919983, 2.089813300059177, 2.3820908000925556, 2.6981464000418782, 2.9568464000476524, 3.2648179000243545, 3.581728900084272, 3.9067996999947354, 4.248293500044383, 4.581820100080222, 4.890075400006026, 5.206926600076258, 5.523674300056882, 5.856813800055534, 6.190351300057955, 6.573734200093895, 7.040301800007001]"	22	"[0.31647149997297674, 0.6245693999808282, 0.9079316999996081, 1.1498785999137908, 1.4412189999129623, 1.7690693999174982, 2.083063899888657, 2.375457899994217, 2.691371899913065, 2.950083199888468, 3.2580485999351367, 3.5749643999151886, 3.900029099895619, 4.241522599942982, 4.575049399980344, 4.8833067999221385, 5.200163999921642, 5.516911899903789, 5.850043699960224, 6.183593299938366, 6.566973099950701, 7.033465399988927]"	"[0.45780269999522716, 0.7494684999110177, 1.0244818999199197, 1.2829311999958009, 1.5746286999201402, 1.8911910998867825, 2.1829277999931946, 2.491213099914603, 2.7996618999168277, 3.074590799980797, 3.3664112999103963, 3.716472299885936, 4.007994699990377, 4.358098799944855, 4.683140599983744, 4.9914604999357834, 5.308175499900244, 5.641523399972357, 5.966769699938595, 6.300206699990667, 6.6833382999757305, 7.0334695999044925]"	158.72291270003188	158.72823959996458	160.2207899999339	160.23248719994444								34	01	2024-02-27_11h08.39.339	BART_exp	2023.2.3	119.78960150371987	2024-02-27 11h08.57.421776 +0100	
balloon.png	92	0	21	21	21	160.23248719994444													160.22121139999945	160.23248719994444	160.23248719994444	160.23248719994444	160.23248719994444	160.23248719994444	0.00013830000534653664	0.00013830000534653664	0.00013830000534653664	160.23248719994444	164.81408969999757	18	0.90	False	"[-0.020370370370370372, -0.020370370370370372, -0.020370370370370372, -0.020370370370370372, -0.020370370370370372, -0.020370370370370372, -0.020370370370370372, -0.020370370370370372, -0.020370370370370372, -0.020370370370370372, -0.020370370370370372, -0.020370370370370372, -0.020370370370370372, -0.020370370370370372, -0.020370370370370372, -0.020370370370370372, -0.020370370370370372, -0.020370370370370372, -0.020370370370370372]"	"[-0.387037037037037, -0.387037037037037, -0.387037037037037, -0.387037037037037, -0.387037037037037, -0.387037037037037, -0.387037037037037, -0.387037037037037, -0.387037037037037, -0.387037037037037, -0.387037037037037, -0.387037037037037, -0.387037037037037, -0.387037037037037, -0.387037037037037, -0.387037037037037, -0.387037037037037, -0.387037037037037, -0.387037037037037]"	"[1, 1, 1, 1, 1, 1, 1, 1, 1, 1, 1, 1, 1, 1, 1, 1, 1, 1, 0]"	"[0, 0, 0, 0, 0, 0, 0, 0, 0, 0, 0, 0, 0, 0, 0, 0, 0, 0, 0]"	"[0, 0, 0, 0, 0, 0, 0, 0, 0, 0, 0, 0, 0, 0, 0, 0, 0, 0, 1]"	"[0.24989059998188168, 0.5330059999832883, 0.7495383999776095, 0.924473199993372, 1.1023308000294492, 1.2828843999886885, 1.449721800046973, 1.624752499978058, 1.799725600052625, 1.9914913000538945, 2.2423523999750614, 2.4746461999602616, 2.7246590999420732, 3.0829306000377983, 3.3413300999673083, 3.616472400026396, 3.8498268000548705, 4.241702500032261, 4.591614800039679]"	19	"[0.24402420001570135, 0.5270964000374079, 0.7352936000097543, 0.9185262999963015, 1.0963968000141904, 1.2769765000557527, 1.4438273999840021, 1.6188051999779418, 1.7938097000587732, 1.9855616999557242, 2.236416400060989, 2.4687161999754608, 2.718710400047712, 3.0769779999973252, 3.3353896000189707, 3.6105282000498846, 3.8438733000075445, 4.235770000028424, 4.585608400055207]"	"[0.3601556000066921, 0.6351864000316709, 0.8434783000266179, 1.0266353000188246, 1.201800400041975, 1.3684457000344992, 1.5518677999498323, 1.7101104999892414, 1.8767744000069797, 2.0685091000050306, 2.3269051000243053, 2.5960853999713436, 2.802201100043021, 3.1853075999533758, 3.4268736999947578, 3.660247900057584, 3.935400699963793, 4.3354202000191435, 4.585612799972296]"	164.81508530001156	164.82036410004366	166.31265590002295	166.32238999998663								34	01	2024-02-27_11h08.39.339	BART_exp	2023.2.3	119.78960150371987	2024-02-27 11h08.57.421776 +0100	
balloon.png	127	0	22	22	29	166.32238999998663													166.3128847000189	166.32238999998663	166.32238999998663	166.32238999998663	166.32238999998663	166.32238999998663	-0.0006762000266462564	-0.0006762000266462564	-0.0006762000266462564	166.32238999998663	172.1560218000086	22	1.10	False	"[-0.020370370370370372, -0.020370370370370372, -0.020370370370370372, -0.020370370370370372, -0.020370370370370372, -0.020370370370370372, -0.020370370370370372, -0.020370370370370372, -0.020370370370370372, -0.020370370370370372, -0.020370370370370372, -0.020370370370370372, -0.020370370370370372, -0.020370370370370372, -0.020370370370370372, -0.020370370370370372, -0.020370370370370372, -0.020370370370370372, -0.020370370370370372, -0.020370370370370372, -0.020370370370370372, -0.020370370370370372, -0.020370370370370372]"	"[-0.387037037037037, -0.387037037037037, -0.387037037037037, -0.387037037037037, -0.387037037037037, -0.387037037037037, -0.387037037037037, -0.387037037037037, -0.387037037037037, -0.387037037037037, -0.387037037037037, -0.387037037037037, -0.387037037037037, -0.387037037037037, -0.387037037037037, -0.387037037037037, -0.387037037037037, -0.387037037037037, -0.387037037037037, -0.387037037037037, -0.387037037037037, -0.387037037037037, -0.387037037037037]"	"[1, 1, 1, 1, 1, 1, 1, 1, 1, 1, 1, 1, 1, 1, 1, 1, 1, 1, 1, 1, 1, 1, 0]"	"[0, 0, 0, 0, 0, 0, 0, 0, 0, 0, 0, 0, 0, 0, 0, 0, 0, 0, 0, 0, 0, 0, 0]"	"[0, 0, 0, 0, 0, 0, 0, 0, 0, 0, 0, 0, 0, 0, 0, 0, 0, 0, 0, 0, 0, 0, 1]"	"[0.2752208000747487, 0.4585279000457376, 0.6416966000106186, 0.8084473999915645, 0.9917300000088289, 1.1583747999975458, 1.3171247000573203, 1.5005440000677481, 1.6839771000668406, 1.850689599988982, 2.0251168999820948, 2.1839442000491545, 2.3506331000244245, 2.508652599994093, 2.667925100075081, 2.8586775000439957, 3.284019900020212, 3.566945300088264, 3.8503648000769317, 4.12546570005361, 4.73378040001262, 4.9670883000362664, 5.84208580001723]"	22	"[0.27090720005799085, 0.4542102999985218, 0.6373708000173792, 0.804122900008224, 0.9874097000574693, 1.1540447000879794, 1.3128160000778735, 1.4962232999969274, 1.6796533000888303, 1.8463648000033572, 2.0207904000999406, 2.1796295000240207, 2.346322000026703, 2.5043257999932393, 2.6636641999939457, 2.8543631000211462, 3.279854500084184, 3.5626718000276014, 3.8460967000573874, 4.121136600035243, 4.729461900074966, 4.962762400042266]"	"[0.36238890001550317, 0.5706361000193283, 0.7457430000649765, 0.9205280999885872, 1.0874487000983208, 1.2624778000172228, 1.4291718000313267, 1.6078524000477046, 1.787299400079064, 1.9373482000082731, 2.0962510000681505, 2.270666200085543, 2.437318400014192, 2.604003700078465, 2.7627324000932276, 2.887476700008847, 3.3963100000983104, 3.654135200078599, 3.8960211999947205, 4.2375164000550285, 4.820915800053626, 5.837693400098942]"	172.1570377999451	172.16250249999575	173.65486080001574	173.67235170002095								34	01	2024-02-27_11h08.39.339	BART_exp	2023.2.3	119.78960150371987	2024-02-27 11h08.57.421776 +0100	
balloon.png	114	0	23	23	26	173.67235170002095													173.655087799998	173.67235170002095	173.67235170002095	173.67235170002095	173.67235170002095	173.67235170002095	-0.00046710006427019835	-0.00046710006427019835	-0.00046710006427019835	173.67235170002095	177.607273099944	17	0.85	False	"[-0.023148148148148147, -0.023148148148148147, -0.025, -0.025, -0.025, -0.025, -0.025, -0.025, -0.025, -0.025, -0.025, -0.025, -0.025, -0.025, -0.025, -0.025, -0.025, -0.025]"	"[-0.4064814814814815, -0.4064814814814815, -0.40370370370370373, -0.40370370370370373, -0.40370370370370373, -0.40370370370370373, -0.40370370370370373, -0.40370370370370373, -0.40370370370370373, -0.40370370370370373, -0.40370370370370373, -0.40370370370370373, -0.40370370370370373, -0.40370370370370373, -0.40370370370370373, -0.40370370370370373, -0.40370370370370373, -0.40370370370370373]"	"[1, 1, 1, 1, 1, 1, 1, 1, 1, 1, 1, 1, 1, 1, 1, 1, 1, 0]"	"[0, 0, 0, 0, 0, 0, 0, 0, 0, 0, 0, 0, 0, 0, 0, 0, 0, 0]"	"[0, 0, 0, 0, 0, 0, 0, 0, 0, 0, 0, 0, 0, 0, 0, 0, 0, 1]"	"[0.3751884000375867, 0.6002348000183702, 0.8168189000571147, 0.9836705999914557, 1.1918824000749737, 1.36701060004998, 1.5503706000745296, 1.7419534000800923, 1.9171420000493526, 2.1086565000005066, 2.308440100052394, 2.5002230000682175, 2.6771435000700876, 2.9268463000189513, 3.142080200021155, 3.367399499984458, 3.658689600066282, 3.951022000052035]"	18	"[0.36312330001965165, 0.5881681999890134, 0.8047638999996707, 0.9716345999622717, 1.1798184999497607, 1.3549536999780685, 1.5383173000300303, 1.7298986000241712, 1.9051059000194073, 2.096600400051102, 2.296375000034459, 2.4881722000427544, 2.665072900010273, 2.9149197000078857, 3.1300208000466228, 3.3553407000144944, 3.6468611999880522, 3.9389150000642985]"	"[0.4795356000540778, 0.6879663000581786, 0.879550899961032, 1.0795305999927223, 1.254626499954611, 1.4462356000440195, 1.6380418000044301, 1.8129540999652818, 1.9963459999999031, 2.1795838000252843, 2.3629475999623537, 2.579851599992253, 2.7630255999974906, 3.0048563999589533, 3.238361099967733, 3.4718255000188947, 3.763151800027117, 3.93891959998291]"	177.60820749995764	177.61291659995914	179.1051988999825	179.12223209999502								34	01	2024-02-27_11h08.39.339	BART_exp	2023.2.3	119.78960150371987	2024-02-27 11h08.57.421776 +0100	
balloon.png	105	0	24	24	24	179.12223209999502													179.10542050004005	179.12223209999502	179.12223209999502	179.12223209999502	179.12223209999502	179.12223209999502	-0.00046040001325309277	-0.00046040001325309277	-0.00046040001325309277	179.12223209999502	184.35707230004482	21	1.05	False	"[-0.046296296296296294, -0.046296296296296294, -0.046296296296296294, -0.046296296296296294, -0.046296296296296294, -0.046296296296296294, -0.046296296296296294, -0.046296296296296294, -0.046296296296296294, -0.046296296296296294, -0.046296296296296294, -0.046296296296296294, -0.046296296296296294, -0.046296296296296294, -0.046296296296296294, -0.046296296296296294, -0.046296296296296294, -0.046296296296296294, -0.046296296296296294, -0.046296296296296294, -0.046296296296296294, -0.046296296296296294]"	"[-0.39814814814814814, -0.39814814814814814, -0.39814814814814814, -0.39814814814814814, -0.39814814814814814, -0.39814814814814814, -0.39814814814814814, -0.39814814814814814, -0.39814814814814814, -0.39814814814814814, -0.39814814814814814, -0.39814814814814814, -0.39814814814814814, -0.39814814814814814, -0.39814814814814814, -0.39814814814814814, -0.39814814814814814, -0.39814814814814814, -0.39814814814814814, -0.39814814814814814, -0.39814814814814814, -0.39814814814814814]"	"[1, 1, 1, 1, 1, 1, 1, 1, 1, 1, 1, 1, 1, 1, 1, 1, 1, 1, 1, 1, 1, 0]"	"[0, 0, 0, 0, 0, 0, 0, 0, 0, 0, 0, 0, 0, 0, 0, 0, 0, 0, 0, 0, 0, 0]"	"[0, 0, 0, 0, 0, 0, 0, 0, 0, 0, 0, 0, 0, 0, 0, 0, 0, 0, 0, 0, 0, 1]"	"[0.3670797999948263, 0.558334399946034, 0.741627199924551, 0.9168310000095516, 1.1001745000248775, 1.2919016999658197, 1.5001785999629647, 1.7001842999598011, 1.9085903000086546, 2.1584507999941707, 2.375113199930638, 2.5584863999392837, 2.8085647999541834, 3.01675890001934, 3.2589335999218747, 3.5003316999645904, 3.741883000009693, 4.112960899947211, 4.375320799998008, 4.616999499965459, 4.850534599972889, 5.250473599997349]"	22	"[0.35611430008430034, 0.5467270000372082, 0.7300192000111565, 0.9052707001101226, 1.0885721000377089, 1.2802971000783145, 1.4885727000655606, 1.6885784000623971, 1.896982500096783, 2.1468422000762075, 2.3635083000408486, 2.5468753000022843, 2.796959500061348, 3.005141600035131, 3.247591200051829, 3.488736700033769, 3.730271500069648, 4.101350300014019, 4.363706700038165, 4.605405500042252, 4.838945600087754, 5.238807000103407]"	"[0.4549146000063047, 0.6548725001048297, 0.8215329000959173, 1.0299919000826776, 1.2049782000249252, 1.3966595000820234, 1.6048860000446439, 1.7882903000572696, 2.0049827001057565, 2.2466848000185564, 2.396790500031784, 2.6801386000588536, 2.8716798000968993, 3.105002000113018, 3.3551053000846878, 3.613694200059399, 3.8468051000963897, 4.219497000100091, 4.48855780006852, 4.713611900107935, 4.946873700013384, 5.238811200018972]"	184.35809049999807	184.3633964000037	185.85570309998002	185.87201279995497								34	01	2024-02-27_11h08.39.339	BART_exp	2023.2.3	119.78960150371987	2024-02-27 11h08.57.421776 +0100	
balloon.png	1	0	25	25	0	185.87201279995497													185.85592160001397	185.87201279995497	185.87201279995497	185.87201279995497	185.87201279995497	185.87201279995497	-0.0006608000257983804	-0.0006608000257983804	-0.0006608000257983804	185.87201279995497	186.457386199967	2	0.05	True	"[-0.046296296296296294, -0.046296296296296294]"	"[-0.39814814814814814, -0.39814814814814814]"	"[1, 1]"	"[0, 0]"	"[0, 0]"	"[0.34229489997960627, 0.5168852000497282]"	2	"[0.3313402000349015, 0.5059354000259191]"	"[0.4310578000731766, 0.5811509001068771]"	186.45802539994475	186.46359950001352	187.95583600003738	187.97261619998608								34	01	2024-02-27_11h08.39.339	BART_exp	2023.2.3	119.78960150371987	2024-02-27 11h08.57.421776 +0100	
balloon.png	118	0	26	26	27	187.97261619998608													187.95605499995872	187.97261619998608	187.97261619998608	187.97261619998608	187.97261619998608	187.97261619998608	-0.0004267999902367592	-0.0004267999902367592	-0.0004267999902367592	187.97261619998608	193.08243239996955	14	0.70	False	"[-0.04537037037037037, -0.04537037037037037, -0.04537037037037037, -0.040740740740740744, -0.03981481481481482, -0.03981481481481482, -0.03981481481481482, -0.03981481481481482, -0.03981481481481482, -0.03981481481481482, -0.03981481481481482, -0.03981481481481482, -0.03981481481481482, -0.03981481481481482, -0.03981481481481482]"	"[-0.39444444444444443, -0.39444444444444443, -0.39444444444444443, -0.39166666666666666, -0.39166666666666666, -0.39166666666666666, -0.39166666666666666, -0.39166666666666666, -0.39166666666666666, -0.39166666666666666, -0.39166666666666666, -0.39166666666666666, -0.39166666666666666, -0.39166666666666666, -0.39166666666666666]"	"[1, 1, 1, 1, 1, 1, 1, 1, 1, 1, 1, 1, 1, 1, 0]"	"[0, 0, 0, 0, 0, 0, 0, 0, 0, 0, 0, 0, 0, 0, 0]"	"[0, 0, 0, 0, 0, 0, 0, 0, 0, 0, 0, 0, 0, 0, 1]"	"[0.4501980000641197, 0.9676513000158593, 1.1416945999953896, 1.5835578000405803, 1.9837579999584705, 2.1671621999703348, 2.4177125999704003, 2.708472999976948, 3.0004544999683276, 3.5002215000567958, 3.708576799952425, 4.08369700005278, 4.533736299956217, 4.817197800031863, 5.125321900006384]"	15	"[0.4390798000385985, 0.9567302000941709, 1.1305685000261292, 1.5724309000652283, 1.9726634999969974, 2.156070000026375, 2.4068017000099644, 2.6973448999924585, 2.9893450000090525, 3.4890956000890583, 3.6974544000113383, 4.072570600081235, 4.522621300071478, 4.806076200096868, 5.114134400035255]"	"[0.5804439000785351, 1.0722029000753537, 1.2388877000194043, 1.6722136000171304, 2.0805120000150055, 2.2722794000292197, 2.5222999000689015, 2.8138830000534654, 3.1139168000081554, 3.5972378000151366, 3.805669300025329, 4.197445300058462, 4.630708100041375, 4.922569400048815, 5.1141386000672355]"	193.08350770000834	193.08900799998082	194.58127089997288	194.5919966000365								34	01	2024-02-27_11h08.39.339	BART_exp	2023.2.3	119.78960150371987	2024-02-27 11h08.57.421776 +0100	
balloon.png	27	0	27	27	6	194.5919966000365													194.58148059993982	194.5919966000365	194.5919966000365	194.5919966000365	194.5919966000365	194.5919966000365	-0.0004569999873638153	-0.0004569999873638153	-0.0004569999873638153	194.5919966000365	199.0662276999792	21	1.05	False	"[-0.03981481481481482, -0.03981481481481482, -0.03981481481481482, -0.03981481481481482, -0.03981481481481482, -0.03981481481481482, -0.03981481481481482, -0.03981481481481482, -0.03981481481481482, -0.03981481481481482, -0.03981481481481482, -0.03981481481481482, -0.03981481481481482, -0.03981481481481482, -0.03981481481481482, -0.03981481481481482, -0.03981481481481482, -0.03981481481481482, -0.03981481481481482, -0.03981481481481482, -0.03981481481481482, -0.03981481481481482]"	"[-0.39166666666666666, -0.39166666666666666, -0.39166666666666666, -0.39166666666666666, -0.39166666666666666, -0.39166666666666666, -0.39166666666666666, -0.39166666666666666, -0.39166666666666666, -0.39166666666666666, -0.39166666666666666, -0.39166666666666666, -0.39166666666666666, -0.39166666666666666, -0.39166666666666666, -0.39166666666666666, -0.39166666666666666, -0.39166666666666666, -0.39166666666666666, -0.39166666666666666, -0.39166666666666666, -0.39166666666666666]"	"[1, 1, 1, 1, 1, 1, 1, 1, 1, 1, 1, 1, 1, 1, 1, 1, 1, 1, 1, 1, 1, 0]"	"[0, 0, 0, 0, 0, 0, 0, 0, 0, 0, 0, 0, 0, 0, 0, 0, 0, 0, 0, 0, 0, 0]"	"[0, 0, 0, 0, 0, 0, 0, 0, 0, 0, 0, 0, 0, 0, 0, 0, 0, 0, 0, 0, 0, 1]"	"[0.2752547001000494, 0.45004990010056645, 0.6169318000320345, 0.78358859999571, 0.9421679000370204, 1.1095173000358045, 1.316716100089252, 1.475390800042078, 1.691917199990712, 1.8920006999978796, 2.0668585000094026, 2.258540500071831, 2.4756014000158757, 2.691931900102645, 2.925194300012663, 3.1336309000616893, 3.3085435000248253, 3.508536500041373, 3.6836176000069827, 3.8836186000844464, 4.142215800005943, 4.483673300012015]"	22	"[0.2700936000328511, 0.4448931999504566, 0.6117848999565467, 0.7784294999437407, 0.9370190999470651, 1.1044042999856174, 1.3115549000212923, 1.470244299969636, 1.6867863000370562, 1.8869325999403372, 2.061695799930021, 2.2534352999646217, 2.470552899991162, 2.6868353999452665, 2.9200697999913245, 3.12848319998011, 3.303378199925646, 3.5035479000071064, 3.678450600011274, 3.878458400024101, 4.137081200024113, 4.478448999929242]"	"[0.3534306000219658, 0.5280902000376955, 0.7035608999431133, 0.8781597999623045, 1.03707940003369, 1.2037791999755427, 1.3614850000012666, 1.5948522000107914, 1.7948086999822408, 1.9867173000238836, 2.1699651000089943, 2.3532767000142485, 2.569910699967295, 2.753294499940239, 2.9783030999824405, 3.228306800010614, 3.395096799940802, 3.553317999932915, 3.778355299960822, 3.936681199935265, 4.203324500005692, 4.478453399962746]"	199.0673846999416	199.0727279999992	200.56500249996316	200.58245989994612								34	01	2024-02-27_11h08.39.339	BART_exp	2023.2.3	119.78960150371987	2024-02-27 11h08.57.421776 +0100	
balloon.png	123	0	28	28	28	200.58245989994612													200.56521599995904	200.58245989994612	200.58245989994612	200.58245989994612	200.58245989994612	200.58245989994612	-0.0006514000706374645	-0.0006514000706374645	-0.0006514000706374645	200.58245989994612	204.6749484000029	19	0.95	False	"[-0.03425925925925926, -0.03425925925925926, -0.03425925925925926, -0.03425925925925926, -0.03425925925925926, -0.03425925925925926, -0.03425925925925926, -0.03425925925925926, -0.03425925925925926, -0.03425925925925926, -0.03425925925925926, -0.03425925925925926, -0.03425925925925926, -0.03425925925925926, -0.03425925925925926, -0.03425925925925926, -0.03425925925925926, -0.03425925925925926, -0.03425925925925926, -0.03425925925925926]"	"[-0.38981481481481484, -0.38981481481481484, -0.38981481481481484, -0.38981481481481484, -0.38981481481481484, -0.38981481481481484, -0.38981481481481484, -0.38981481481481484, -0.38981481481481484, -0.38981481481481484, -0.38981481481481484, -0.38981481481481484, -0.38981481481481484, -0.38981481481481484, -0.38981481481481484, -0.38981481481481484, -0.38981481481481484, -0.38981481481481484, -0.38981481481481484, -0.38981481481481484]"	"[1, 1, 1, 1, 1, 1, 1, 1, 1, 1, 1, 1, 1, 1, 1, 1, 1, 1, 1, 0]"	"[0, 0, 0, 0, 0, 0, 0, 0, 0, 0, 0, 0, 0, 0, 0, 0, 0, 0, 0, 0]"	"[0, 0, 0, 0, 0, 0, 0, 0, 0, 0, 0, 0, 0, 0, 0, 0, 0, 0, 0, 1]"	"[0.30011589999776334, 0.48345870000775903, 0.6584047999931499, 0.8668188999872655, 1.0420012000249699, 1.2253744000336155, 1.4171715000411496, 1.5919856999535114, 1.7671676999889314, 1.9586923000169918, 2.1504673999734223, 2.333663000026718, 2.5170697999419644, 2.7169975000433624, 2.8918928999919444, 3.033916699932888, 3.2585433999774978, 3.4585576000390574, 3.684115899959579, 4.108625199995004]"	20	"[0.28843590000178665, 0.4717692999402061, 0.6467270000139251, 0.8551488999510184, 1.0303182000061497, 1.2137234999099746, 1.4055179000133649, 1.5803040999453515, 1.755509699927643, 1.9470382999861613, 2.138802699977532, 2.3219815000193194, 2.5053861999185756, 2.7053143999073654, 2.8802107999799773, 3.0222470000153407, 3.2468541999114677, 3.4468738000141457, 3.6724392999894917, 4.096879999968223]"	"[0.39653599995654076, 0.5716958999400958, 0.7550592999905348, 0.9466137000126764, 1.129977299948223, 1.3217691999161616, 1.4966313999611884, 1.671833899919875, 1.8551238999934867, 2.038515199907124, 2.246842599939555, 2.4218893999932334, 2.6133965000044554, 2.7800330999307334, 2.921927599934861, 3.138704099925235, 3.322126999963075, 3.530096299946308, 3.7634448999306187, 4.09688460000325]"	204.67600159998983	204.68147820001468	206.17370059993118	206.18227590003517								34	01	2024-02-27_11h08.39.339	BART_exp	2023.2.3	119.78960150371987	2024-02-27 11h08.57.421776 +0100	
balloon.png	31	0	29	29	7	206.18227590003517													206.17391719995067	206.18227590003517	206.18227590003517	206.18227590003517	206.18227590003517	206.18227590003517	-0.0005740999476984143	-0.0005740999476984143	-0.0005740999476984143	206.18227590003517	210.25868790003005	21	1.05	False	"[-0.027777777777777776, -0.027777777777777776, -0.027777777777777776, -0.027777777777777776, -0.027777777777777776, -0.027777777777777776, -0.028703703703703703, -0.028703703703703703, -0.028703703703703703, -0.028703703703703703, -0.028703703703703703, -0.028703703703703703, -0.028703703703703703, -0.028703703703703703, -0.028703703703703703, -0.028703703703703703, -0.028703703703703703, -0.028703703703703703, -0.028703703703703703, -0.028703703703703703, -0.028703703703703703, -0.028703703703703703]"	"[-0.3888888888888889, -0.3888888888888889, -0.3888888888888889, -0.3888888888888889, -0.3888888888888889, -0.3888888888888889, -0.3888888888888889, -0.3888888888888889, -0.3888888888888889, -0.3888888888888889, -0.3888888888888889, -0.3888888888888889, -0.3888888888888889, -0.3888888888888889, -0.3888888888888889, -0.3888888888888889, -0.3888888888888889, -0.3888888888888889, -0.3888888888888889, -0.3888888888888889, -0.3888888888888889, -0.3888888888888889]"	"[1, 1, 1, 1, 1, 1, 1, 1, 1, 1, 1, 1, 1, 1, 1, 1, 1, 1, 1, 1, 1, 0]"	"[0, 0, 0, 0, 0, 0, 0, 0, 0, 0, 0, 0, 0, 0, 0, 0, 0, 0, 0, 0, 0, 0]"	"[0, 0, 0, 0, 0, 0, 0, 0, 0, 0, 0, 0, 0, 0, 0, 0, 0, 0, 0, 0, 0, 1]"	"[0.2167337000137195, 0.48342990002129227, 0.641687799943611, 0.8001691999379545, 0.9670276999240741, 1.1417189999483526, 1.291775899939239, 1.441718199988827, 1.591969299945049, 1.758628899930045, 1.925321999937296, 2.1002360000275075, 2.241770699969493, 2.433612799970433, 2.6086644999450073, 2.8005090999649838, 2.992093799985014, 3.1921339000109583, 3.3838205999927595, 3.567200299934484, 3.7172141999471933, 4.08370289998129]"	22	"[0.21352150000166148, 0.4802320000017062, 0.6384777999483049, 0.7969568999251351, 0.9638148999074474, 1.1385105999652296, 1.288564799935557, 1.4384980999166146, 1.5887695999117568, 1.7554149999050424, 1.922109599923715, 2.097017499967478, 2.238552799914032, 2.430399899953045, 2.6054483999032527, 2.797300299978815, 2.988878699950874, 3.188917599967681, 3.38061349990312, 3.563990799942985, 3.7140180999413133, 4.080436699907295]"	"[0.3300950999837369, 0.5634803998982534, 0.7134392999578267, 0.8968335000099614, 1.0635195999639109, 1.2050442999461666, 1.3801645999774337, 1.521755399997346, 1.6968911999138072, 1.8635113999480382, 2.0218221999239177, 2.18849569989834, 2.363637899979949, 2.530369099928066, 2.7218871999066323, 2.9051920999772847, 3.1053317999467254, 3.288611799944192, 3.4719569999724627, 3.6386104999110103, 3.79707089997828, 4.080440999940038]"	210.2597065999871	210.2651455999585	211.75750409998	211.76548159995582								34	01	2024-02-27_11h08.39.339	BART_exp	2023.2.3	119.78960150371987	2024-02-27 11h08.57.421776 +0100	
																																														211.75754619995132	211.76548159995582	211.76548159995582	222.5085320000071	space	10.741741899983026	None	34	01	2024-02-27_11h08.39.339	BART_exp	2023.2.3	119.78960150371987	2024-02-27 11h08.57.421776 +0100	
