"diceImage"	"d_number"	"dice_loop.thisRepN"	"dice_loop.thisTrialN"	"dice_loop.thisN"	"dice_loop.thisIndex"	"thisRow.t"	"notes"	"Start.started"	"text_start.started"	"continue_start.started"	"mouse_start.started"	"Start.stopped"	"mouse_start.x"	"mouse_start.y"	"mouse_start.leftButton"	"mouse_start.midButton"	"mouse_start.rightButton"	"mouse_start.time"	"trial.started"	"box_dice.started"	"text_dice_header.started"	"text_gain.started"	"value_gain.started"	"text_bank.started"	"value_bank.started"	"img_dice_1.started"	"img_dice_2.started"	"img_dice_3.started"	"img_dice_4.started"	"img_dice_5.started"	"img_dice_6.started"	"img_dice_1_2.started"	"img_dice_3_4.started"	"img_dice_5_6.started"	"img_dice_1_2_3.started"	"img_dice_4_5_6.started"	"img_dice_1_2_3_4.started"	"img_dice_2_3_4_5.started"	"img_dice_3_4_5_6.started"	"text_value_header.started"	"text_value_1000.started"	"text_value_500.started"	"text_value_200.started"	"text_value_100.started"	"mouse_task.started"	"gain_sound.started"	"img_dice_throw_trials.started"	"gain_sound.stopped"	"img_dice_throw_trials.stopped"	"trial.stopped"	"mouse_task.x"	"mouse_task.y"	"mouse_task.leftButton"	"mouse_task.midButton"	"mouse_task.rightButton"	"mouse_task.time"	"choice"	"gain"	"loss_sound.started"	"End.started"	"text_end.started"	"key_end.started"	"End.stopped"	"key_end.keys"	"key_end.rt"	"key_end.duration"	"participant"	"session"	"date"	"expName"	"psychopyVersion"	"frameRate"	"expStart"	"...75"
NA	NA	NA	NA	NA	NA	NA	NA	0.0010363999990659	0.00712759999987611	0.00712759999987611	0.00130639999952109	28.3350260999996	"[0.6907407407407408]"	"[-0.39444444444444443]"	"[1]"	"[0]"	"[0]"	"[28.333076300001267]"	NA	NA	NA	NA	NA	NA	NA	NA	NA	NA	NA	NA	NA	NA	NA	NA	NA	NA	NA	NA	NA	NA	NA	NA	NA	NA	NA	NA	NA	NA	NA	NA	NA	NA	NA	NA	NA	NA	NA	NA	NA	NA	NA	NA	NA	NA	NA	NA	31	"02"	"2024-02-21_11h41.34.962"	"GDT_exp"	"2023.2.3"	122.528147781681	"2024-02-21 11h41.45.363600 +0100"	NA
"dice_2.png"	2	0	0	0	1	28.4097977999991	NA	NA	NA	NA	NA	NA	NA	NA	NA	NA	NA	NA	28.3402965999994	28.4097977999991	28.4097977999991	28.4097977999991	28.4097977999991	28.4097977999991	28.4097977999991	28.4097977999991	28.4097977999991	28.4097977999991	28.4097977999991	28.4097977999991	28.4097977999991	28.4097977999991	28.4097977999991	28.4097977999991	28.4097977999991	28.4097977999991	28.4097977999991	28.4097977999991	28.4097977999991	28.4097977999991	28.4097977999991	28.4097977999991	28.4097977999991	28.4097977999991	0.0231760999995458	2.94472789999963	31.3393891999985	4.46158310000101	32.8834031999995	32.8504963999985	"[-0.2824074074074074, -0.2824074074074074]"	"[-0.35462962962962963, -0.35462962962962963]"	"[1, 0]"	"[0, 0]"	"[0, 1]"	"[2.3846972999999707, 2.8901073999986693]"	4	100	NA	NA	NA	NA	NA	NA	NA	NA	31	"02"	"2024-02-21_11h41.34.962"	"GDT_exp"	"2023.2.3"	122.528147781681	"2024-02-21 11h41.45.363600 +0100"	NA
"dice_6.png"	6	0	1	1	5	32.8834031999995	NA	NA	NA	NA	NA	NA	NA	NA	NA	NA	NA	NA	32.8513181999988	32.8834031999995	32.8834031999995	32.8834031999995	32.8834031999995	32.8834031999995	32.8834031999995	32.8834031999995	32.8834031999995	32.8834031999995	32.8834031999995	32.8834031999995	32.8834031999995	32.8834031999995	32.8834031999995	32.8834031999995	32.8834031999995	32.8834031999995	32.8834031999995	32.8834031999995	32.8834031999995	32.8834031999995	32.8834031999995	32.8834031999995	32.8834031999995	32.8834031999995	0.0126010000003589	2.15543199999956	35.0618257999995	3.66949390000082	36.6161541999991	36.5834234999984	"[-0.11203703703703703, -0.11203703703703703]"	"[-0.2574074074074074, -0.2574074074074074]"	"[1, 0]"	"[0, 0]"	"[0, 1]"	"[1.5162920999991911, 2.1426406999999017]"	3	200	NA	NA	NA	NA	NA	NA	NA	NA	31	"02"	"2024-02-21_11h41.34.962"	"GDT_exp"	"2023.2.3"	122.528147781681	"2024-02-21 11h41.45.363600 +0100"	NA
"dice_5.png"	5	0	2	2	4	36.6161541999991	NA	NA	NA	NA	NA	NA	NA	NA	NA	NA	NA	NA	36.5839720999993	36.6161541999991	36.6161541999991	36.6161541999991	36.6161541999991	36.6161541999991	36.6161541999991	36.6161541999991	36.6161541999991	36.6161541999991	36.6161541999991	36.6161541999991	36.6161541999991	36.6161541999991	36.6161541999991	36.6161541999991	36.6161541999991	36.6161541999991	36.6161541999991	36.6161541999991	36.6161541999991	36.6161541999991	36.6161541999991	36.6161541999991	36.6161541999991	36.6161541999991	0.0119578000012552	NA	38.4114327999996	NA	39.9658856999995	39.9329290999995	"[-0.5657407407407408, -0.5657407407407408]"	"[-0.3425925925925926, -0.3425925925925926]"	"[1, 0]"	"[0, 0]"	"[0, 1]"	"[1.300410700001521, 1.75809610000033]"	4	-100	1.77026420000038	NA	NA	NA	NA	NA	NA	NA	31	"02"	"2024-02-21_11h41.34.962"	"GDT_exp"	"2023.2.3"	122.528147781681	"2024-02-21 11h41.45.363600 +0100"	NA
"dice_1.png"	1	0	3	3	0	39.9658856999995	NA	NA	NA	NA	NA	NA	NA	NA	NA	NA	NA	NA	39.9335325999982	39.9658856999995	39.9658856999995	39.9658856999995	39.9658856999995	39.9658856999995	39.9658856999995	39.9658856999995	39.9658856999995	39.9658856999995	39.9658856999995	39.9658856999995	39.9658856999995	39.9658856999995	39.9658856999995	39.9658856999995	39.9658856999995	39.9658856999995	39.9658856999995	39.9658856999995	39.9658856999995	39.9658856999995	39.9658856999995	39.9658856999995	39.9658856999995	39.9658856999995	0.0119641000001138	1.24444659999972	41.2378682999988	2.76071489999958	42.7879080999992	42.7549044999996	"[-0.4185185185185185, -0.4185185185185185]"	"[-0.23703703703703705, -0.23703703703703705]"	"[1, 0]"	"[0, 0]"	"[0, 1]"	"[0.6129550999994535, 1.2322894999997516]"	3	200	NA	NA	NA	NA	NA	NA	NA	NA	31	"02"	"2024-02-21_11h41.34.962"	"GDT_exp"	"2023.2.3"	122.528147781681	"2024-02-21 11h41.45.363600 +0100"	NA
"dice_3.png"	3	0	4	4	2	42.7879080999992	NA	NA	NA	NA	NA	NA	NA	NA	NA	NA	NA	NA	42.7556848999993	42.7879080999992	42.7879080999992	42.7879080999992	42.7879080999992	42.7879080999992	42.7879080999992	42.7879080999992	42.7879080999992	42.7879080999992	42.7879080999992	42.7879080999992	42.7879080999992	42.7879080999992	42.7879080999992	42.7879080999992	42.7879080999992	42.7879080999992	42.7879080999992	42.7879080999992	42.7879080999992	42.7879080999992	42.7879080999992	42.7879080999992	42.7879080999992	42.7879080999992	0.0120235000013054	2.44910100000016	45.2629577999996	3.95965220000107	46.8123077	46.7763670999993	"[-0.25833333333333336, -0.25833333333333336, -0.25833333333333336]"	"[-0.15833333333333333, -0.15833333333333333, -0.15833333333333333]"	"[0, 1, 0]"	"[0, 0, 0]"	"[1, 0, 1]"	"[1.090159200000926, 1.8490044999998645, 2.4368524000001344]"	2	500	NA	NA	NA	NA	NA	NA	NA	NA	31	"02"	"2024-02-21_11h41.34.962"	"GDT_exp"	"2023.2.3"	122.528147781681	"2024-02-21 11h41.45.363600 +0100"	NA
"dice_4.png"	4	0	5	5	3	46.8123077	NA	NA	NA	NA	NA	NA	NA	NA	NA	NA	NA	NA	46.7771169999996	46.8123077	46.8123077	46.8123077	46.8123077	46.8123077	46.8123077	46.8123077	46.8123077	46.8123077	46.8123077	46.8123077	46.8123077	46.8123077	46.8123077	46.8123077	46.8123077	46.8123077	46.8123077	46.8123077	46.8123077	46.8123077	46.8123077	46.8123077	46.8123077	46.8123077	0.0134359999992739	1.27438599999914	48.107487199999	2.79797009999857	49.669973	49.6364092999993	"[0.08425925925925926, 0.08425925925925926]"	"[-0.3416666666666667, -0.3416666666666667]"	"[1, 0]"	"[0, 0]"	"[0, 1]"	"[0.8264029000001756, 1.2607248999993317]"	4	100	NA	NA	NA	NA	NA	NA	NA	NA	31	"02"	"2024-02-21_11h41.34.962"	"GDT_exp"	"2023.2.3"	122.528147781681	"2024-02-21 11h41.45.363600 +0100"	NA
"dice_6.png"	6	1	0	6	5	49.669973	NA	NA	NA	NA	NA	NA	NA	NA	NA	NA	NA	NA	49.6370546999988	49.669973	49.669973	49.669973	49.669973	49.669973	49.669973	49.669973	49.669973	49.669973	49.669973	49.669973	49.669973	49.669973	49.669973	49.669973	49.669973	49.669973	49.669973	49.669973	49.669973	49.669973	49.669973	49.669973	49.669973	49.669973	0.0114429000004748	1.59711500000049	51.2925517999993	3.10546570000042	52.8381077999984	52.8063780999983	"[-0.09166666666666666, -0.09166666666666666]"	"[-0.24722222222222223, -0.24722222222222223]"	"[1, 0]"	"[0, 0]"	"[0, 1]"	"[1.079838399999062, 1.5853348999989976]"	3	200	NA	NA	NA	NA	NA	NA	NA	NA	31	"02"	"2024-02-21_11h41.34.962"	"GDT_exp"	"2023.2.3"	122.528147781681	"2024-02-21 11h41.45.363600 +0100"	NA
"dice_5.png"	5	1	1	7	4	52.8381077999984	NA	NA	NA	NA	NA	NA	NA	NA	NA	NA	NA	NA	52.8070621999996	52.8381077999984	52.8381077999984	52.8381077999984	52.8381077999984	52.8381077999984	52.8381077999984	52.8381077999984	52.8381077999984	52.8381077999984	52.8381077999984	52.8381077999984	52.8381077999984	52.8381077999984	52.8381077999984	52.8381077999984	52.8381077999984	52.8381077999984	52.8381077999984	52.8381077999984	52.8381077999984	52.8381077999984	52.8381077999984	52.8381077999984	52.8381077999984	52.8381077999984	0.0108325999990484	NA	55.5373092999998	NA	57.0890824999988	57.0502676999986	"[-0.612037037037037, -0.612037037037037]"	"[-0.15092592592592594, -0.15092592592592594]"	"[1, 0]"	"[0, 0]"	"[0, 1]"	"[2.235409900000377, 2.6596915000009176]"	2	-500	2.67058419999921	NA	NA	NA	NA	NA	NA	NA	31	"02"	"2024-02-21_11h41.34.962"	"GDT_exp"	"2023.2.3"	122.528147781681	"2024-02-21 11h41.45.363600 +0100"	NA
"dice_1.png"	1	1	2	8	0	57.0890824999988	NA	NA	NA	NA	NA	NA	NA	NA	NA	NA	NA	NA	57.0509026	57.0890824999988	57.0890824999988	57.0890824999988	57.0890824999988	57.0890824999988	57.0890824999988	57.0890824999988	57.0890824999988	57.0890824999988	57.0890824999988	57.0890824999988	57.0890824999988	57.0890824999988	57.0890824999988	57.0890824999988	57.0890824999988	57.0890824999988	57.0890824999988	57.0890824999988	57.0890824999988	57.0890824999988	57.0890824999988	57.0890824999988	57.0890824999988	57.0890824999988	0.0167907000013656	1.53785560000142	58.6481287999995	3.04116350000004	60.1882702999992	60.1526781999983	"[-0.41203703703703703, -0.41203703703703703]"	"[-0.2462962962962963, -0.2462962962962963]"	"[1, 0]"	"[0, 0]"	"[0, 1]"	"[1.0747233999991295, 1.5209309999991092]"	3	200	NA	NA	NA	NA	NA	NA	NA	NA	31	"02"	"2024-02-21_11h41.34.962"	"GDT_exp"	"2023.2.3"	122.528147781681	"2024-02-21 11h41.45.363600 +0100"	NA
"dice_2.png"	2	1	3	9	1	60.1882702999992	NA	NA	NA	NA	NA	NA	NA	NA	NA	NA	NA	NA	60.153284	60.1882702999992	60.1882702999992	60.1882702999992	60.1882702999992	60.1882702999992	60.1882702999992	60.1882702999992	60.1882702999992	60.1882702999992	60.1882702999992	60.1882702999992	60.1882702999992	60.1882702999992	60.1882702999992	60.1882702999992	60.1882702999992	60.1882702999992	60.1882702999992	60.1882702999992	60.1882702999992	60.1882702999992	60.1882702999992	60.1882702999992	60.1882702999992	60.1882702999992	0.0143884000008256	1.67593920000036	61.8942932999998	3.17952800000057	63.4249088999986	63.3931371999988	"[-0.26851851851851855, -0.26851851851851855]"	"[-0.35648148148148145, -0.35648148148148145]"	"[1, 0]"	"[0, 0]"	"[0, 1]"	"[1.2095743999998376, 1.6614194999983738]"	4	100	NA	NA	NA	NA	NA	NA	NA	NA	31	"02"	"2024-02-21_11h41.34.962"	"GDT_exp"	"2023.2.3"	122.528147781681	"2024-02-21 11h41.45.363600 +0100"	NA
"dice_3.png"	3	1	4	10	2	63.4249088999986	NA	NA	NA	NA	NA	NA	NA	NA	NA	NA	NA	NA	63.3938061999997	63.4249088999986	63.4249088999986	63.4249088999986	63.4249088999986	63.4249088999986	63.4249088999986	63.4249088999986	63.4249088999986	63.4249088999986	63.4249088999986	63.4249088999986	63.4249088999986	63.4249088999986	63.4249088999986	63.4249088999986	63.4249088999986	63.4249088999986	63.4249088999986	63.4249088999986	63.4249088999986	63.4249088999986	63.4249088999986	63.4249088999986	63.4249088999986	63.4249088999986	0.0106539000007615	NA	64.7078420999987	NA	66.2401606999993	66.2035493999992	"[0.08796296296296297, 0.08796296296296297]"	"[-0.1527777777777778, -0.1527777777777778]"	"[1, 0]"	"[0, 0]"	"[0, 1]"	"[0.8234200999995664, 1.2452255000007426]"	2	-500	1.25611150000077	NA	NA	NA	NA	NA	NA	NA	31	"02"	"2024-02-21_11h41.34.962"	"GDT_exp"	"2023.2.3"	122.528147781681	"2024-02-21 11h41.45.363600 +0100"	NA
"dice_4.png"	4	1	5	11	3	66.2401606999993	NA	NA	NA	NA	NA	NA	NA	NA	NA	NA	NA	NA	66.2041566999997	66.2401606999993	66.2401606999993	66.2401606999993	66.2401606999993	66.2401606999993	66.2401606999993	66.2401606999993	66.2401606999993	66.2401606999993	66.2401606999993	66.2401606999993	66.2401606999993	66.2401606999993	66.2401606999993	66.2401606999993	66.2401606999993	66.2401606999993	66.2401606999993	66.2401606999993	66.2401606999993	66.2401606999993	66.2401606999993	66.2401606999993	66.2401606999993	66.2401606999993	0.0139380000000529	1.02927040000031	67.2942432999989	2.557311999999	68.8555682999995	68.8228167999987	"[-0.10277777777777777, -0.10277777777777777]"	"[-0.25092592592592594, -0.25092592592592594]"	"[1, 0]"	"[0, 0]"	"[0, 1]"	"[0.573537899999792, 1.015276799998901]"	3	200	NA	NA	NA	NA	NA	NA	NA	NA	31	"02"	"2024-02-21_11h41.34.962"	"GDT_exp"	"2023.2.3"	122.528147781681	"2024-02-21 11h41.45.363600 +0100"	NA
"dice_3.png"	3	2	0	12	2	68.8555682999995	NA	NA	NA	NA	NA	NA	NA	NA	NA	NA	NA	NA	68.8234021999997	68.8555682999995	68.8555682999995	68.8555682999995	68.8555682999995	68.8555682999995	68.8555682999995	68.8555682999995	68.8555682999995	68.8555682999995	68.8555682999995	68.8555682999995	68.8555682999995	68.8555682999995	68.8555682999995	68.8555682999995	68.8555682999995	68.8555682999995	68.8555682999995	68.8555682999995	68.8555682999995	68.8555682999995	68.8555682999995	68.8555682999995	68.8555682999995	68.8555682999995	0.010123800000656	1.01546170000074	69.8998047999994	2.52962789999947	71.4504057999984	71.4158290999985	"[-0.612037037037037, -0.612037037037037]"	"[-0.3416666666666667, -0.3416666666666667]"	"[1, 0]"	"[0, 0]"	"[0, 1]"	"[0.542017499999929, 1.004016099999717]"	4	100	NA	NA	NA	NA	NA	NA	NA	NA	31	"02"	"2024-02-21_11h41.34.962"	"GDT_exp"	"2023.2.3"	122.528147781681	"2024-02-21 11h41.45.363600 +0100"	NA
"dice_6.png"	6	2	1	13	5	71.4504057999984	NA	NA	NA	NA	NA	NA	NA	NA	NA	NA	NA	NA	71.4163857999993	71.4504057999984	71.4504057999984	71.4504057999984	71.4504057999984	71.4504057999984	71.4504057999984	71.4504057999984	71.4504057999984	71.4504057999984	71.4504057999984	71.4504057999984	71.4504057999984	71.4504057999984	71.4504057999984	71.4504057999984	71.4504057999984	71.4504057999984	71.4504057999984	71.4504057999984	71.4504057999984	71.4504057999984	71.4504057999984	71.4504057999984	71.4504057999984	71.4504057999984	0.0133655999998154	2.56865789999938	74.0492477999996	4.07745639999848	75.585771	75.5528033999999	"[0.03425925925925926, 0.03425925925925926]"	"[-0.3425925925925926, -0.3425925925925926]"	"[1, 0]"	"[0, 0]"	"[0, 1]"	"[2.1167602999994415, 2.556619099999807]"	4	100	NA	NA	NA	NA	NA	NA	NA	NA	31	"02"	"2024-02-21_11h41.34.962"	"GDT_exp"	"2023.2.3"	122.528147781681	"2024-02-21 11h41.45.363600 +0100"	NA
"dice_1.png"	1	2	2	14	0	75.585771	NA	NA	NA	NA	NA	NA	NA	NA	NA	NA	NA	NA	75.5534378999982	75.585771	75.585771	75.585771	75.585771	75.585771	75.585771	75.585771	75.585771	75.585771	75.585771	75.585771	75.585771	75.585771	75.585771	75.585771	75.585771	75.585771	75.585771	75.585771	75.585771	75.585771	75.585771	75.585771	75.585771	75.585771	0.0111093999985314	NA	77.7410071999984	NA	79.2912514999989	79.2552986999999	"[-0.287962962962963, -0.287962962962963]"	"[-0.3425925925925926, -0.3435185185185185]"	"[1, 0]"	"[0, 0]"	"[0, 1]"	"[1.668648300001223, 2.1160128000010445]"	4	-100	2.1273743999991	NA	NA	NA	NA	NA	NA	NA	31	"02"	"2024-02-21_11h41.34.962"	"GDT_exp"	"2023.2.3"	122.528147781681	"2024-02-21 11h41.45.363600 +0100"	NA
"dice_5.png"	5	2	3	15	4	79.2912514999989	NA	NA	NA	NA	NA	NA	NA	NA	NA	NA	NA	NA	79.2558618999992	79.2912514999989	79.2912514999989	79.2912514999989	79.2912514999989	79.2912514999989	79.2912514999989	79.2912514999989	79.2912514999989	79.2912514999989	79.2912514999989	79.2912514999989	79.2912514999989	79.2912514999989	79.2912514999989	79.2912514999989	79.2912514999989	79.2912514999989	79.2912514999989	79.2912514999989	79.2912514999989	79.2912514999989	79.2912514999989	79.2912514999989	79.2912514999989	79.2912514999989	0.0102943999991112	0.967313899998771	80.2826141999994	2.47139269999934	81.8130128999983	81.7819701999997	"[-0.2759259259259259, -0.2759259259259259]"	"[-0.3425925925925926, -0.3425925925925926]"	"[1, 0]"	"[0, 0]"	"[0, 1]"	"[0.5767937000000529, 0.9569692000004579]"	4	100	NA	NA	NA	NA	NA	NA	NA	NA	31	"02"	"2024-02-21_11h41.34.962"	"GDT_exp"	"2023.2.3"	122.528147781681	"2024-02-21 11h41.45.363600 +0100"	NA
"dice_4.png"	4	2	4	16	3	81.8130128999983	NA	NA	NA	NA	NA	NA	NA	NA	NA	NA	NA	NA	81.7825675999993	81.8130128999983	81.8130128999983	81.8130128999983	81.8130128999983	81.8130128999983	81.8130128999983	81.8130128999983	81.8130128999983	81.8130128999983	81.8130128999983	81.8130128999983	81.8130128999983	81.8130128999983	81.8130128999983	81.8130128999983	81.8130128999983	81.8130128999983	81.8130128999983	81.8130128999983	81.8130128999983	81.8130128999983	81.8130128999983	81.8130128999983	81.8130128999983	81.8130128999983	0.0101624999988417	NA	83.2381176999988	NA	84.7899109999998	84.7575717	"[-0.40555555555555556, -0.40555555555555556]"	"[-0.25, -0.25]"	"[1, 0]"	"[0, 0]"	"[0, 1]"	"[0.987260799998694, 1.3875933999988774]"	3	-200	1.3980431	NA	NA	NA	NA	NA	NA	NA	31	"02"	"2024-02-21_11h41.34.962"	"GDT_exp"	"2023.2.3"	122.528147781681	"2024-02-21 11h41.45.363600 +0100"	NA
"dice_2.png"	2	2	5	17	1	84.7899109999998	NA	NA	NA	NA	NA	NA	NA	NA	NA	NA	NA	NA	84.7581453999992	84.7899109999998	84.7899109999998	84.7899109999998	84.7899109999998	84.7899109999998	84.7899109999998	84.7899109999998	84.7899109999998	84.7899109999998	84.7899109999998	84.7899109999998	84.7899109999998	84.7899109999998	84.7899109999998	84.7899109999998	84.7899109999998	84.7899109999998	84.7899109999998	84.7899109999998	84.7899109999998	84.7899109999998	84.7899109999998	84.7899109999998	84.7899109999998	84.7899109999998	0.0110220999995363	NA	85.6529111999989	NA	87.1681091999999	87.1631916999995	"[-0.13425925925925927, -0.13425925925925927]"	"[-0.25555555555555554, -0.25555555555555554]"	"[1, 0]"	"[0, 0]"	"[0, 1]"	"[0.3078304999999091, 0.8209497999996529]"	3	-200	0.832182999998622	NA	NA	NA	NA	NA	NA	NA	31	"02"	"2024-02-21_11h41.34.962"	"GDT_exp"	"2023.2.3"	122.528147781681	"2024-02-21 11h41.45.363600 +0100"	NA
NA	NA	NA	NA	NA	NA	NA	NA	NA	NA	NA	NA	NA	NA	NA	NA	NA	NA	NA	NA	NA	NA	NA	NA	NA	NA	NA	NA	NA	NA	NA	NA	NA	NA	NA	NA	NA	NA	NA	NA	NA	NA	NA	NA	NA	NA	NA	NA	NA	NA	NA	NA	NA	NA	NA	NA	NA	NA	NA	NA	87.1636460999998	87.1681091999999	87.1681091999999	97.0729658	"space"	9.90151289999994	"None"	31	"02"	"2024-02-21_11h41.34.962"	"GDT_exp"	"2023.2.3"	122.528147781681	"2024-02-21 11h41.45.363600 +0100"	NA
