diceImage	d_number	dice_loop.thisRepN	dice_loop.thisTrialN	dice_loop.thisN	dice_loop.thisIndex	thisRow.t	notes	Start.started	text_start.started	continue_start.started	mouse_start.started	Start.stopped	mouse_start.x	mouse_start.y	mouse_start.leftButton	mouse_start.midButton	mouse_start.rightButton	mouse_start.time	trial.started	box_dice.started	text_dice_header.started	text_gain.started	value_gain.started	text_bank.started	value_bank.started	img_dice_1.started	img_dice_2.started	img_dice_3.started	img_dice_4.started	img_dice_5.started	img_dice_6.started	img_dice_1_2.started	img_dice_3_4.started	img_dice_5_6.started	img_dice_1_2_3.started	img_dice_4_5_6.started	img_dice_1_2_3_4.started	img_dice_2_3_4_5.started	img_dice_3_4_5_6.started	text_value_header.started	text_value_1000.started	text_value_500.started	text_value_200.started	text_value_100.started	mouse_task.started	gain_sound.started	img_dice_throw_trials.started	gain_sound.stopped	img_dice_throw_trials.stopped	trial.stopped	mouse_task.x	mouse_task.y	mouse_task.leftButton	mouse_task.midButton	mouse_task.rightButton	mouse_task.time	choice	gain	loss_sound.started	End.started	text_end.started	key_end.started	End.stopped	key_end.keys	key_end.rt	key_end.duration	participant	session	date	expName	psychopyVersion	frameRate	expStart	
								0.04519040009472519	0.05456480011343956	0.05456480011343956	0.04553419991862029	28.41547550004907	[0.6675925925925926]	[-0.40555555555555556]	[1]	[0]	[0]	[28.36935400008224]																																																	21	02	2024-02-14_13h57.32.391	GDT_exp	2023.2.3	120.02438902977899	2024-02-14 13h57.50.408555 +0100	
dice_4.png	4	0	0	0	3	28.498218500055373													28.420275500044227	28.498218500055373	28.498218500055373	28.498218500055373	28.498218500055373	28.498218500055373	28.498218500055373	28.498218500055373	28.498218500055373	28.498218500055373	28.498218500055373	28.498218500055373	28.498218500055373	28.498218500055373	28.498218500055373	28.498218500055373	28.498218500055373	28.498218500055373	28.498218500055373	28.498218500055373	28.498218500055373	28.498218500055373	28.498218500055373	28.498218500055373	28.498218500055373	28.498218500055373	0.022787999943830073	3.849603799986653	32.33179290010594	5.3499240999808535	33.90692910004873	33.859664900111966	"[-0.2796296296296296, -0.27685185185185185]"	"[-0.1287037037037037, -0.13333333333333333]"	"[1, 0]"	"[0, 0]"	"[0, 1]"	"[3.3202642999822274, 3.795443700044416]"	2	500									21	02	2024-02-14_13h57.32.391	GDT_exp	2023.2.3	120.02438902977899	2024-02-14 13h57.50.408555 +0100	
dice_5.png	5	0	1	1	4	33.90692910004873													33.86047270009294	33.90692910004873	33.90692910004873	33.90692910004873	33.90692910004873	33.90692910004873	33.90692910004873	33.90692910004873	33.90692910004873	33.90692910004873	33.90692910004873	33.90692910004873	33.90692910004873	33.90692910004873	33.90692910004873	33.90692910004873	33.90692910004873	33.90692910004873	33.90692910004873	33.90692910004873	33.90692910004873	33.90692910004873	33.90692910004873	33.90692910004873	33.90692910004873	33.90692910004873	0.02195999992545694		36.240400000009686		37.7821936000837	37.74291110003833	"[-0.17314814814814813, -0.17314814814814813]"	"[-0.046296296296296294, -0.046296296296296294]"	"[1, 0]"	"[0, 0]"	"[0, 1]"	"[1.7662284999387339, 2.291204600012861]"	1	-1000	2.3134079999290407								21	02	2024-02-14_13h57.32.391	GDT_exp	2023.2.3	120.02438902977899	2024-02-14 13h57.50.408555 +0100	
dice_2.png	2	0	2	2	1	37.7821936000837													37.74348290008493	37.7821936000837	37.7821936000837	37.7821936000837	37.7821936000837	37.7821936000837	37.7821936000837	37.7821936000837	37.7821936000837	37.7821936000837	37.7821936000837	37.7821936000837	37.7821936000837	37.7821936000837	37.7821936000837	37.7821936000837	37.7821936000837	37.7821936000837	37.7821936000837	37.7821936000837	37.7821936000837	37.7821936000837	37.7821936000837	37.7821936000837	37.7821936000837	37.7821936000837	0.014787800027988851		38.77391790004913		40.357372600003146	40.31008130009286	"[-0.09444444444444444, -0.09259259259259259]"	"[-0.24351851851851852, -0.24074074074074073]"	"[1, 0]"	"[0, 0]"	"[0, 1]"	"[0.39053019997663796, 0.9490932000335306]"	3	-200	0.9639401000458747								21	02	2024-02-14_13h57.32.391	GDT_exp	2023.2.3	120.02438902977899	2024-02-14 13h57.50.408555 +0100	
dice_6.png	6	0	3	3	5	40.357372600003146													40.31065480003599	40.357372600003146	40.357372600003146	40.357372600003146	40.357372600003146	40.357372600003146	40.357372600003146	40.357372600003146	40.357372600003146	40.357372600003146	40.357372600003146	40.357372600003146	40.357372600003146	40.357372600003146	40.357372600003146	40.357372600003146	40.357372600003146	40.357372600003146	40.357372600003146	40.357372600003146	40.357372600003146	40.357372600003146	40.357372600003146	40.357372600003146	40.357372600003146	40.357372600003146	0.01792430004570633		41.19908980000764		42.76593000011053	42.726892000064254	"[-0.41388888888888886, -0.41388888888888886]"	"[-0.2462962962962963, -0.2462962962962963]"	"[1, 0]"	"[0, 0]"	"[0, 1]"	"[0.5621893999632448, 0.8037156999344006]"	3	-200	0.8219039000105113								21	02	2024-02-14_13h57.32.391	GDT_exp	2023.2.3	120.02438902977899	2024-02-14 13h57.50.408555 +0100	
dice_3.png	3	0	4	4	2	42.76593000011053													42.72746340010781	42.76593000011053	42.76593000011053	42.76593000011053	42.76593000011053	42.76593000011053	42.76593000011053	42.76593000011053	42.76593000011053	42.76593000011053	42.76593000011053	42.76593000011053	42.76593000011053	42.76593000011053	42.76593000011053	42.76593000011053	42.76593000011053	42.76593000011053	42.76593000011053	42.76593000011053	42.76593000011053	42.76593000011053	42.76593000011053	42.76593000011053	42.76593000011053	42.76593000011053	0.014942099922336638	0.7969314999645576	43.59092350001447	2.3220910999225453	45.14943140000105	45.11037150002085	"[-0.275, -0.275]"	"[-0.34444444444444444, -0.34444444444444444]"	"[1, 0]"	"[0, 0]"	"[0, 1]"	"[0.2817480000667274, 0.7817288000369444]"	4	100									21	02	2024-02-14_13h57.32.391	GDT_exp	2023.2.3	120.02438902977899	2024-02-14 13h57.50.408555 +0100	
dice_1.png	1	0	5	5	0	45.14943140000105													45.110960800084285	45.14943140000105	45.14943140000105	45.14943140000105	45.14943140000105	45.14943140000105	45.14943140000105	45.14943140000105	45.14943140000105	45.14943140000105	45.14943140000105	45.14943140000105	45.14943140000105	45.14943140000105	45.14943140000105	45.14943140000105	45.14943140000105	45.14943140000105	45.14943140000105	45.14943140000105	45.14943140000105	45.14943140000105	45.14943140000105	45.14943140000105	45.14943140000105	45.14943140000105	0.01792709995061159		46.116260200040415		47.657929100096226	47.618402300053276	"[-0.2324074074074074, -0.23333333333333334]"	"[-0.15462962962962962, -0.15833333333333333]"	"[1, 0]"	"[0, 0]"	"[0, 1]"	"[0.4287597000366077, 0.9204635999631137]"	2	-500	0.9386291999835521								21	02	2024-02-14_13h57.32.391	GDT_exp	2023.2.3	120.02438902977899	2024-02-14 13h57.50.408555 +0100	
dice_1.png	1	1	0	6	0	47.657929100096226													47.61892340006307	47.657929100096226	47.657929100096226	47.657929100096226	47.657929100096226	47.657929100096226	47.657929100096226	47.657929100096226	47.657929100096226	47.657929100096226	47.657929100096226	47.657929100096226	47.657929100096226	47.657929100096226	47.657929100096226	47.657929100096226	47.657929100096226	47.657929100096226	47.657929100096226	47.657929100096226	47.657929100096226	47.657929100096226	47.657929100096226	47.657929100096226	47.657929100096226	47.657929100096226	0.015995000023394823		49.2329805000918		50.77476120006759	50.73561450000852	"[-0.05648148148148148, -0.05648148148148148]"	"[-0.2518518518518518, -0.2518518518518518]"	"[1, 0]"	"[0, 0]"	"[0, 1]"	"[1.0061363999266177, 1.5229868999449536]"	3	-200	1.539249200024642								21	02	2024-02-14_13h57.32.391	GDT_exp	2023.2.3	120.02438902977899	2024-02-14 13h57.50.408555 +0100	
dice_6.png	6	1	1	7	5	50.77476120006759													50.73621000000276	50.77476120006759	50.77476120006759	50.77476120006759	50.77476120006759	50.77476120006759	50.77476120006759	50.77476120006759	50.77476120006759	50.77476120006759	50.77476120006759	50.77476120006759	50.77476120006759	50.77476120006759	50.77476120006759	50.77476120006759	50.77476120006759	50.77476120006759	50.77476120006759	50.77476120006759	50.77476120006759	50.77476120006759	50.77476120006759	50.77476120006759	50.77476120006759	50.77476120006759	0.01472880004439503		52.116522400057875		53.6749642000068	53.627249900018796	"[-0.5462962962962963, -0.5462962962962963]"	"[-0.3648148148148148, -0.3675925925925926]"	"[1, 0]"	"[0, 0]"	"[0, 1]"	"[0.8070870999945328, 1.2987622999353334]"	4	-100	1.3137789000757039								21	02	2024-02-14_13h57.32.391	GDT_exp	2023.2.3	120.02438902977899	2024-02-14 13h57.50.408555 +0100	
dice_4.png	4	1	2	8	3	53.6749642000068													53.62778740003705	53.6749642000068	53.6749642000068	53.6749642000068	53.6749642000068	53.6749642000068	53.6749642000068	53.6749642000068	53.6749642000068	53.6749642000068	53.6749642000068	53.6749642000068	53.6749642000068	53.6749642000068	53.6749642000068	53.6749642000068	53.6749642000068	53.6749642000068	53.6749642000068	53.6749642000068	53.6749642000068	53.6749642000068	53.6749642000068	53.6749642000068	53.6749642000068	53.6749642000068	0.018678300082683563		54.99185240000952		56.55863240000326	56.51914410002064	"[-0.325, -0.32685185185185184]"	"[-0.044444444444444446, -0.04814814814814815]"	"[1, 0]"	"[0, 0]"	"[0, 1]"	"[0.9203267999691889, 1.2701316999737173]"	1	-1000	1.2890757999848574								21	02	2024-02-14_13h57.32.391	GDT_exp	2023.2.3	120.02438902977899	2024-02-14 13h57.50.408555 +0100	
dice_5.png	5	1	3	9	4	56.55863240000326													56.519712700042874	56.55863240000326	56.55863240000326	56.55863240000326	56.55863240000326	56.55863240000326	56.55863240000326	56.55863240000326	56.55863240000326	56.55863240000326	56.55863240000326	56.55863240000326	56.55863240000326	56.55863240000326	56.55863240000326	56.55863240000326	56.55863240000326	56.55863240000326	56.55863240000326	56.55863240000326	56.55863240000326	56.55863240000326	56.55863240000326	56.55863240000326	56.55863240000326	56.55863240000326	0.014613799983635545		58.56697550008539		60.13376490003429	60.09471840003971	"[-0.26944444444444443, -0.26944444444444443]"	"[-0.1425925925925926, -0.1425925925925926]"	"[1, 0]"	"[0, 0]"	"[0, 1]"	"[1.4491866999305785, 1.9658814000431448]"	2	-500	1.9807584999362007								21	02	2024-02-14_13h57.32.391	GDT_exp	2023.2.3	120.02438902977899	2024-02-14 13h57.50.408555 +0100	
dice_3.png	3	1	4	10	2	60.13376490003429													60.095268000033684	60.13376490003429	60.13376490003429	60.13376490003429	60.13376490003429	60.13376490003429	60.13376490003429	60.13376490003429	60.13376490003429	60.13376490003429	60.13376490003429	60.13376490003429	60.13376490003429	60.13376490003429	60.13376490003429	60.13376490003429	60.13376490003429	60.13376490003429	60.13376490003429	60.13376490003429	60.13376490003429	60.13376490003429	60.13376490003429	60.13376490003429	60.13376490003429	60.13376490003429	0.014901299960911274	1.0053963999962434	61.17565170000307	2.530503800022416	62.72562770009972	62.68961360002868	"[-0.19166666666666668, -0.19444444444444445]"	"[-0.3388888888888889, -0.34074074074074073]"	"[1, 0]"	"[0, 0]"	"[0, 1]"	"[0.465133799938485, 0.9902124999789521]"	4	100									21	02	2024-02-14_13h57.32.391	GDT_exp	2023.2.3	120.02438902977899	2024-02-14 13h57.50.408555 +0100	
dice_2.png	2	1	5	11	1	62.72562770009972													62.690185900079086	62.72562770009972	62.72562770009972	62.72562770009972	62.72562770009972	62.72562770009972	62.72562770009972	62.72562770009972	62.72562770009972	62.72562770009972	62.72562770009972	62.72562770009972	62.72562770009972	62.72562770009972	62.72562770009972	62.72562770009972	62.72562770009972	62.72562770009972	62.72562770009972	62.72562770009972	62.72562770009972	62.72562770009972	62.72562770009972	62.72562770009972	62.72562770009972	62.72562770009972	0.01449610001873225		64.61740010010544		66.16750830004457	66.12835790007375	"[0.03611111111111111, 0.03611111111111111]"	"[-0.3648148148148148, -0.3648148148148148]"	"[1, 0]"	"[0, 0]"	"[0, 1]"	"[1.004264899995178, 1.8459453000687063]"	4	-100	1.8606864000903443								21	02	2024-02-14_13h57.32.391	GDT_exp	2023.2.3	120.02438902977899	2024-02-14 13h57.50.408555 +0100	
dice_4.png	4	2	0	12	3	66.16750830004457													66.12893320003059	66.16750830004457	66.16750830004457	66.16750830004457	66.16750830004457	66.16750830004457	66.16750830004457	66.16750830004457	66.16750830004457	66.16750830004457	66.16750830004457	66.16750830004457	66.16750830004457	66.16750830004457	66.16750830004457	66.16750830004457	66.16750830004457	66.16750830004457	66.16750830004457	66.16750830004457	66.16750830004457	66.16750830004457	66.16750830004457	66.16750830004457	66.16750830004457	66.16750830004457	0.014838499948382378	0.747168599977158	66.94269770011306	2.247247999999672	68.52614300011192	68.47844289999921	"[-0.037037037037037035, -0.037037037037037035]"	"[-0.2564814814814815, -0.25833333333333336]"	"[1, 0]"	"[0, 0]"	"[0, 1]"	"[0.2236581000033766, 0.7321167000336573]"	3	200									21	02	2024-02-14_13h57.32.391	GDT_exp	2023.2.3	120.02438902977899	2024-02-14 13h57.50.408555 +0100	
dice_2.png	2	2	1	13	1	68.52614300011192													68.47898120002355	68.52614300011192	68.52614300011192	68.52614300011192	68.52614300011192	68.52614300011192	68.52614300011192	68.52614300011192	68.52614300011192	68.52614300011192	68.52614300011192	68.52614300011192	68.52614300011192	68.52614300011192	68.52614300011192	68.52614300011192	68.52614300011192	68.52614300011192	68.52614300011192	68.52614300011192	68.52614300011192	68.52614300011192	68.52614300011192	68.52614300011192	68.52614300011192	68.52614300011192	0.01776009995955974	1.6473053999943659	70.19289870001376	3.1641162999439985	71.75958080007695	71.71218940010294	"[-0.27314814814814814, -0.27314814814814814]"	"[-0.3490740740740741, -0.34814814814814815]"	"[1, 0]"	"[0, 0]"	"[0, 1]"	"[1.0792008999269456, 1.6292613999685273]"	4	100									21	02	2024-02-14_13h57.32.391	GDT_exp	2023.2.3	120.02438902977899	2024-02-14 13h57.50.408555 +0100	
dice_5.png	5	2	2	14	4	71.75958080007695													71.71276320004836	71.75958080007695	71.75958080007695	71.75958080007695	71.75958080007695	71.75958080007695	71.75958080007695	71.75958080007695	71.75958080007695	71.75958080007695	71.75958080007695	71.75958080007695	71.75958080007695	71.75958080007695	71.75958080007695	71.75958080007695	71.75958080007695	71.75958080007695	71.75958080007695	71.75958080007695	71.75958080007695	71.75958080007695	71.75958080007695	71.75958080007695	71.75958080007695	71.75958080007695	0.018289500032551587		73.40968640008941		74.97647120000329	74.93739540001843	"[-0.27314814814814814, -0.27314814814814814]"	"[-0.17222222222222222, -0.17222222222222222]"	"[1, 0]"	"[0, 0]"	"[0, 1]"	"[0.6370869999518618, 1.60331999999471]"	2	-500	1.6220699000405148								21	02	2024-02-14_13h57.32.391	GDT_exp	2023.2.3	120.02438902977899	2024-02-14 13h57.50.408555 +0100	
dice_6.png	6	2	3	15	5	74.97647120000329													74.93797180010006	74.97647120000329	74.97647120000329	74.97647120000329	74.97647120000329	74.97647120000329	74.97647120000329	74.97647120000329	74.97647120000329	74.97647120000329	74.97647120000329	74.97647120000329	74.97647120000329	74.97647120000329	74.97647120000329	74.97647120000329	74.97647120000329	74.97647120000329	74.97647120000329	74.97647120000329	74.97647120000329	74.97647120000329	74.97647120000329	74.97647120000329	74.97647120000329	74.97647120000329	0.015006399946287274		76.05988080007955		77.62665230000857	77.5876027001068	"[-0.3824074074074074, -0.3824074074074074]"	"[-0.26296296296296295, -0.26296296296296295]"	"[1, 0]"	"[0, 0]"	"[0, 1]"	"[0.490291399997659, 1.0401685000397265]"	3	-200	1.0554051999934018								21	02	2024-02-14_13h57.32.391	GDT_exp	2023.2.3	120.02438902977899	2024-02-14 13h57.50.408555 +0100	
dice_1.png	1	2	4	16	0	77.62665230000857													77.5881900000386	77.62665230000857	77.62665230000857	77.62665230000857	77.62665230000857	77.62665230000857	77.62665230000857	77.62665230000857	77.62665230000857	77.62665230000857	77.62665230000857	77.62665230000857	77.62665230000857	77.62665230000857	77.62665230000857	77.62665230000857	77.62665230000857	77.62665230000857	77.62665230000857	77.62665230000857	77.62665230000857	77.62665230000857	77.62665230000857	77.62665230000857	77.62665230000857	77.62665230000857	0.014988699927926064		78.85173540003598		80.40184710000176	80.35460950003471	"[-0.14444444444444443, -0.15648148148148147]"	"[-0.25925925925925924, -0.25925925925925924]"	"[1, 0]"	"[0, 0]"	"[0, 1]"	"[0.4569298999849707, 1.1817688000155613]"	3	-200	1.1970276999054477								21	02	2024-02-14_13h57.32.391	GDT_exp	2023.2.3	120.02438902977899	2024-02-14 13h57.50.408555 +0100	
dice_3.png	3	2	5	17	2	80.40184710000176													80.35515980003402	80.40184710000176	80.40184710000176	80.40184710000176	80.40184710000176	80.40184710000176	80.40184710000176	80.40184710000176	80.40184710000176	80.40184710000176	80.40184710000176	80.40184710000176	80.40184710000176	80.40184710000176	80.40184710000176	80.40184710000176	80.40184710000176	80.40184710000176	80.40184710000176	80.40184710000176	80.40184710000176	80.40184710000176	80.40184710000176	80.40184710000176	80.40184710000176	80.40184710000176	0.017969199921935797	1.2302879999624565	81.66028920002282	2.747079799999483	83.1855135000078	83.17446480004583	"[-0.5305555555555556, -0.5305555555555556]"	"[-0.3537037037037037, -0.3537037037037037]"	"[1, 0]"	"[0, 0]"	"[0, 1]"	"[0.8120649999473244, 1.213672999991104]"	4	100									21	02	2024-02-14_13h57.32.391	GDT_exp	2023.2.3	120.02438902977899	2024-02-14 13h57.50.408555 +0100	
																																																												83.17493850004394	83.1855135000078	83.1855135000078	91.98644310003147	space	8.800196199910715	None	21	02	2024-02-14_13h57.32.391	GDT_exp	2023.2.3	120.02438902977899	2024-02-14 13h57.50.408555 +0100	
