image	max_pumps	pump_loop.thisRepN	pump_loop.thisTrialN	pump_loop.thisN	pump_loop.thisIndex	thisRow.t	notes	Start.started	text_start.started	continue_start.started	mouse_start.started	Start.stopped	mouse_start.x	mouse_start.y	mouse_start.leftButton	mouse_start.midButton	mouse_start.rightButton	mouse_start.time	trials.started	stim_balloon.started	stim_balloon_burst.started	stim_balloon_burst.stopped	text_ballon_value.started	text_bank.started	mouse.started	sound_bang.started	sound_bang.stopped	button_balloon.started	trials.stopped	n_pumps	earnings	popped	mouse.x	mouse.y	mouse.leftButton	mouse.midButton	mouse.rightButton	mouse.time	button_balloon.numClicks	button_balloon.timesOn	button_balloon.timesOff	Feedback.started	text_feedback.started	Feedback.stopped	text_feedback.stopped	End.started	text_end.started	key_end.started	End.stopped	key_end.keys	key_end.rt	key_end.duration	participant	session	date	expName	psychopyVersion	frameRate	expStart	
								0.038009599898941815	0.04623229999560863	0.04623229999560863	0.03833639994263649	17.797946699894965	[0.6916666666666667]	[-0.39814814814814814]	[1]	[0]	[0]	[17.75902270001825]																																			24	01	2024-02-15_13h05.33.990	BART_exp	2023.2.3	120.01949120200969	2024-02-15 13h05.45.326345 +0100	
balloon.png	62	0	0	0	14	17.86416149989236													17.804093699902296	17.86416149989236	17.86416149989236	17.86416149989236	17.86416149989236	17.86416149989236	0.0077185999834910035	0.0077185999834910035	0.0077185999834910035	17.86416149989236	28.774845599895343	1	0.05	False	"[0.04259259259259259, 0.04259259259259259]"	"[-0.39351851851851855, -0.39351851851851855]"	"[1, 0]"	"[0, 0]"	"[0, 1]"	"[8.769826400093734, 10.969830100075342]"	2	"[8.717588200001046, 10.917528199963272]"	"[8.84229239996057, 10.917532699997537]"	28.775820499984547	28.789980400004424	30.28173239994794									24	01	2024-02-15_13h05.33.990	BART_exp	2023.2.3	120.01949120200969	2024-02-15 13h05.45.326345 +0100	
balloon.png	101	0	1	1	23	30.29835999989882													30.281904199975543	30.29835999989882	30.29835999989882	30.29835999989882	30.29835999989882	30.29835999989882	0.007290399982593954	0.007290399982593954	0.007290399982593954	30.29835999989882	38.592325199977495	10	0.50	False	"[0.04537037037037037, 0.04537037037037037, 0.04537037037037037, 0.04537037037037037, 0.04537037037037037, 0.04537037037037037, 0.04537037037037037, 0.04537037037037037, 0.04537037037037037, 0.04537037037037037, 0.04537037037037037]"	"[-0.3861111111111111, -0.3861111111111111, -0.3861111111111111, -0.3861111111111111, -0.3861111111111111, -0.3861111111111111, -0.3861111111111111, -0.3861111111111111, -0.3861111111111111, -0.3861111111111111, -0.3861111111111111]"	"[1, 1, 1, 1, 1, 1, 1, 1, 1, 1, 0]"	"[0, 0, 0, 0, 0, 0, 0, 0, 0, 0, 0]"	"[0, 0, 0, 0, 0, 0, 0, 0, 0, 0, 1]"	"[0.692195100011304, 1.7173875999869779, 2.5924876999342814, 3.434067399939522, 4.150913999998011, 4.9259622999234125, 5.709422099986114, 6.709432399948128, 7.28448169992771, 7.742883199942298, 8.309524599928409]"	11	"[0.6879052000585943, 1.713094300008379, 2.5881994999945164, 3.4297875000629574, 4.14662060001865, 4.921668900060467, 5.70512850000523, 6.705140700098127, 7.280194699997082, 7.73859480000101, 8.30516940006055]"	"[0.8127313000150025, 1.8544891000492498, 2.6879299000138417, 3.5379302999936044, 4.29634740005713, 5.029900300083682, 5.8214398000855, 6.813353600096889, 7.379875799990259, 7.8549170000478625, 8.305173400091007]"	38.59314159990754	38.598967899917625	40.090899999951944	40.107418600004166								24	01	2024-02-15_13h05.33.990	BART_exp	2023.2.3	120.01949120200969	2024-02-15 13h05.45.326345 +0100	
balloon.png	5	0	2	2	1	40.107418600004166													40.09107959992252	40.107418600004166	40.107418600004166	40.107418600004166	40.107418600004166	40.107418600004166	-0.0008565000025555491	-0.0008565000025555491	-0.0008565000025555491	40.107418600004166	45.0930754999863	6	0.25	True	"[0.05, 0.05, 0.05, 0.05, 0.05, 0.05]"	"[-0.3824074074074074, -0.3824074074074074, -0.3824074074074074, -0.3824074074074074, -0.3824074074074074, -0.3824074074074074]"	"[1, 1, 1, 1, 1, 1]"	"[0, 0, 0, 0, 0, 0]"	"[0, 0, 0, 0, 0, 0]"	"[1.0170738999731839, 1.6924639999633655, 2.3757006999803707, 3.1090070999925956, 3.992251200019382, 4.875842700013891]"	6	"[1.0116968000074849, 1.6870870999991894, 2.3703188999788836, 3.103632399928756, 3.9868707999121398, 4.870459500001743]"	"[1.1448763000080362, 1.803253199905157, 2.461688600014895, 3.1951115999836475, 4.103419499937445, 4.978435799945146]"	45.093808299978264	45.107737999991514	46.59954789991025									24	01	2024-02-15_13h05.33.990	BART_exp	2023.2.3	120.01949120200969	2024-02-15 13h05.45.326345 +0100	
balloon.png	114	0	3	3	26	46.616182199912146													46.59973809996154	46.616182199912146	46.616182199912146	46.616182199912146	46.616182199912146	46.616182199912146	0.007177400053478777	0.007177400053478777	0.007177400053478777	46.616182199912146	54.23504609998781	7	0.35	False	"[0.05, 0.05, 0.05, 0.05, 0.05, 0.05, 0.05, 0.05]"	"[-0.3851851851851852, -0.3851851851851852, -0.3851851851851852, -0.3851851851851852, -0.3851851851851852, -0.3851851851851852, -0.3851851851851852, -0.3851851851851852]"	"[1, 1, 1, 1, 1, 1, 1, 0]"	"[0, 0, 0, 0, 0, 0, 0, 0]"	"[0, 0, 0, 0, 0, 0, 0, 1]"	"[1.5840942000504583, 2.384113800013438, 3.1925257000839338, 4.092444000067189, 5.12582120008301, 5.934266600059345, 7.017965800012462, 7.634436200023629]"	8	"[1.5776889000553638, 2.3776976000517607, 3.186114300042391, 4.086036000051536, 5.119414799963124, 5.927852799999528, 7.011556799989194, 7.627955700038001]"	"[1.6940451000118628, 2.502420200034976, 3.3107596000190824, 4.210854300064966, 5.210907700005919, 6.06099779997021, 7.152719800011255, 7.627959900069982]"	54.23572329990566	54.241751199937426	55.73370519990567	55.758507199934684								24	01	2024-02-15_13h05.33.990	BART_exp	2023.2.3	120.01949120200969	2024-02-15 13h05.45.326345 +0100	
balloon.png	40	0	4	4	9	55.758507199934684													55.73388449999038	55.758507199934684	55.758507199934684	55.758507199934684	55.758507199934684	55.758507199934684	-0.00037890009116381407	-0.00037890009116381407	-0.00037890009116381407	55.758507199934684	63.152390599949285	8	0.40	False	"[0.05, 0.05, 0.05, 0.05, 0.05, 0.05, 0.05, 0.05, 0.05]"	"[-0.38333333333333336, -0.38333333333333336, -0.38333333333333336, -0.38333333333333336, -0.38333333333333336, -0.38333333333333336, -0.38333333333333336, -0.38333333333333336, -0.38333333333333336]"	"[1, 1, 1, 1, 1, 1, 1, 1, 0]"	"[0, 0, 0, 0, 0, 0, 0, 0, 0]"	"[0, 0, 0, 0, 0, 0, 0, 0, 1]"	"[1.19209739996586, 1.9919212000677362, 2.8337650999892503, 3.5753850999753922, 4.500787000055425, 5.575483600026928, 6.375717899994925, 6.8424085000297055, 7.417456900002435]"	9	"[1.1796777000417933, 1.9794899000553414, 2.8213319000788033, 3.562949400045909, 4.488353100023232, 5.563043700065464, 6.363288499996997, 6.829975200002082, 7.404958400060423]"	"[1.2876203000778332, 2.1126762999920174, 2.92104340007063, 3.696175100049004, 4.587863499997184, 5.671282800030895, 6.479684500023723, 6.946338800014928, 7.404962599975988]"	63.15316190000158	63.15904539998155	64.6510024999734	64.66744639992248								24	01	2024-02-15_13h05.33.990	BART_exp	2023.2.3	120.01949120200969	2024-02-15 13h05.45.326345 +0100	
balloon.png	127	0	5	5	29	64.66744639992248													64.65118399995845	64.66744639992248	64.66744639992248	64.66744639992248	64.66744639992248	64.66744639992248	-0.0007251000497490168	-0.0007251000497490168	-0.0007251000497490168	64.66744639992248	73.39473299996462	10	0.50	False	"[0.05, 0.05, 0.05, 0.05, 0.05, 0.05, 0.05, 0.05, 0.05, 0.05, 0.05]"	"[-0.38333333333333336, -0.38333333333333336, -0.38333333333333336, -0.38333333333333336, -0.38333333333333336, -0.38333333333333336, -0.38333333333333336, -0.38333333333333336, -0.38333333333333336, -0.38333333333333336, -0.38333333333333336]"	"[1, 1, 1, 1, 1, 1, 1, 1, 1, 1, 0]"	"[0, 0, 0, 0, 0, 0, 0, 0, 0, 0, 0]"	"[0, 0, 0, 0, 0, 0, 0, 0, 0, 0, 1]"	"[0.9921581000089645, 1.8756009999196976, 2.9339294999372214, 3.7188042999478057, 4.500713499961421, 5.375760899973102, 6.134196999948472, 7.167574799968861, 7.825787500012666, 8.425898000015877, 8.742633800022304]"	11	"[0.9871241999790072, 1.8705749000655487, 2.928894600016065, 3.713846700033173, 4.495680900057778, 5.370726600056514, 6.1291740000015125, 7.162547199986875, 7.820759300026111, 8.420861199963838, 8.737541100010276]"	"[1.0867771999910474, 1.978501099976711, 3.0370317000197247, 3.8453078999882564, 4.595358100021258, 5.470418000011705, 6.245558600057848, 7.270630600047298, 7.9289703000104055, 8.520840200013481, 8.737545300042257]"	73.39549209992401	73.40139919996727	74.89339639991522	74.91819489991758								24	01	2024-02-15_13h05.33.990	BART_exp	2023.2.3	120.01949120200969	2024-02-15 13h05.45.326345 +0100	
balloon.png	10	0	6	6	2	74.91819489991758													74.89358419994824	74.91819489991758	74.91819489991758	74.91819489991758	74.91819489991758	74.91819489991758	-0.0006688999710604548	-0.0006688999710604548	-0.0006688999710604548	74.91819489991758	82.90359269990586	8	0.40	False	"[0.05, 0.05, 0.05, 0.05, 0.05, 0.05, 0.05, 0.05, 0.05]"	"[-0.38333333333333336, -0.38333333333333336, -0.38333333333333336, -0.38333333333333336, -0.38333333333333336, -0.38333333333333336, -0.38333333333333336, -0.38333333333333336, -0.38333333333333336]"	"[1, 1, 1, 1, 1, 1, 1, 1, 0]"	"[0, 0, 0, 0, 0, 0, 0, 0, 0]"	"[0, 0, 0, 0, 0, 0, 0, 0, 1]"	"[1.108806800097227, 1.9088391000404954, 2.8505761000560597, 3.8172404000069946, 4.659122800105251, 5.617389900027774, 6.56754479999654, 7.392415600013919, 8.009114200016484]"	9	"[1.0957667999900877, 1.8958094998961315, 2.8375248999800533, 3.804190899943933, 4.646076999953948, 5.6043414999730885, 6.554494199925102, 7.379370199982077, 7.987738600000739]"	"[1.220586699899286, 2.0373660000041127, 2.9538795999251306, 3.9206497999839485, 4.762402699911036, 5.720809399965219, 6.6624998999759555, 7.495875699911267, 7.995993899996392]"	82.90438939991873	82.91040179994889	84.40235719992779	84.41884589998517								24	01	2024-02-15_13h05.33.990	BART_exp	2023.2.3	120.01949120200969	2024-02-15 13h05.45.326345 +0100	
balloon.png	79	0	7	7	18	84.41884589998517													84.40253530000336	84.41884589998517	84.41884589998517	84.41884589998517	84.41884589998517	84.41884589998517	-0.0006472000386565924	-0.0006472000386565924	-0.0006472000386565924	84.41884589998517	96.79625009989832	12	0.60	False	"[0.05, 0.05, 0.05, 0.05, 0.05, 0.05, 0.05, 0.05, 0.05, 0.05, 0.05, 0.05, 0.05]"	"[-0.38333333333333336, -0.38333333333333336, -0.38333333333333336, -0.38333333333333336, -0.38333333333333336, -0.38333333333333336, -0.38333333333333336, -0.38333333333333336, -0.38333333333333336, -0.38333333333333336, -0.38333333333333336, -0.38333333333333336, -0.38333333333333336]"	"[1, 1, 1, 1, 1, 1, 1, 1, 1, 1, 1, 1, 0]"	"[0, 0, 0, 0, 0, 0, 0, 0, 0, 0, 0, 0, 0]"	"[0, 0, 0, 0, 0, 0, 0, 0, 0, 0, 0, 0, 1]"	"[0.8087356999749318, 1.8088227999396622, 2.858863399946131, 3.925749499932863, 4.759122199960984, 5.725907999905758, 6.60087639989797, 7.492827799986117, 8.667604099959135, 9.767855699989013, 11.017897499958053, 11.751352399936877, 12.392827300005592]"	13	"[0.8050017999485135, 1.805082599981688, 2.8551256000064313, 3.9220123999984935, 4.755381199996918, 5.722175900009461, 6.597138899960555, 7.489086699904874, 8.663864400004968, 9.764116599923, 11.014161299914122, 11.747612899984233, 12.389026399934664]"	"[0.9131344999186695, 1.8965392999816686, 2.979951599962078, 4.0800321999704465, 4.871828699950129, 5.863485399982892, 6.721886499901302, 7.613601399934851, 8.772029499989003, 9.863843699917197, 11.105554000008851, 11.872323199990205, 12.389030599966645]"	96.7970345999347	96.8030429999344	98.2950317999348	98.31980820000172								24	01	2024-02-15_13h05.33.990	BART_exp	2023.2.3	120.01949120200969	2024-02-15 13h05.45.326345 +0100	
balloon.png	1	0	8	8	0	98.31980820000172													98.29521489993203	98.31980820000172	98.31980820000172	98.31980820000172	98.31980820000172	98.31980820000172	-0.0005898999515920877	-0.0005898999515920877	-0.0005898999515920877	98.31980820000172	100.49696919997223	2	0.05	True	"[0.05, 0.05]"	"[-0.38333333333333336, -0.38333333333333336]"	"[1, 1]"	"[0, 0]"	"[0, 0]"	"[1.1419680999824777, 2.100444999989122]"	2	"[1.1311835000524297, 2.0896573000354692]"	"[1.2977457999950275, 2.181398699991405]"	100.49756749998778	100.50331059994642	101.99525899998844	102.02015120000578								24	01	2024-02-15_13h05.33.990	BART_exp	2023.2.3	120.01949120200969	2024-02-15 13h05.45.326345 +0100	
balloon.png	49	0	9	9	11	102.02015120000578													101.99543659994379	102.02015120000578	102.02015120000578	102.02015120000578	102.02015120000578	102.02015120000578	-0.0008684999775141478	-0.0008684999775141478	-0.0008684999775141478	102.02015120000578	106.98868690000381	5	0.25	False	"[0.05, 0.05, 0.05, 0.05, 0.05, 0.05]"	"[-0.38333333333333336, -0.38333333333333336, -0.38333333333333336, -0.38333333333333336, -0.38333333333333336, -0.38333333333333336]"	"[1, 1, 1, 1, 1, 0]"	"[0, 0, 0, 0, 0, 0]"	"[0, 0, 0, 0, 0, 1]"	"[0.9171778000891209, 1.8673608000390232, 2.850603000028059, 3.750911300070584, 4.484305900055915, 4.992334100068547]"	6	"[0.9065034999512136, 1.8566886999178678, 2.83992339996621, 3.740240199957043, 4.473634599940851, 4.981595999910496]"	"[1.0395444999448955, 1.9479789999313653, 2.9480315999826416, 3.873063699924387, 4.598196899984032, 4.9816002999432385]"	106.98937929992098	106.99543079989962	108.48740129999351	108.50391159998253								24	01	2024-02-15_13h05.33.990	BART_exp	2023.2.3	120.01949120200969	2024-02-15 13h05.45.326345 +0100	
balloon.png	84	0	10	10	19	108.50391159998253													108.48758299998008	108.50391159998253	108.50391159998253	108.50391159998253	108.50391159998253	108.50391159998253	-0.0005753000732511282	-0.0005753000732511282	-0.0005753000732511282	108.50391159998253	114.79753359989263	10	0.50	False	"[0.05, 0.05, 0.05, 0.05, 0.05, 0.05, 0.05, 0.05, 0.05, 0.05, 0.05]"	"[-0.38333333333333336, -0.38333333333333336, -0.38333333333333336, -0.38333333333333336, -0.38333333333333336, -0.38333333333333336, -0.38333333333333336, -0.38333333333333336, -0.38333333333333336, -0.38333333333333336, -0.38333333333333336]"	"[1, 1, 1, 1, 1, 1, 1, 1, 1, 1, 0]"	"[0, 0, 0, 0, 0, 0, 0, 0, 0, 0, 0]"	"[0, 0, 0, 0, 0, 0, 0, 0, 0, 0, 1]"	"[0.8838722000364214, 1.4505043999524787, 2.31842579995282, 2.758794700028375, 3.3925191999878734, 3.883910999982618, 4.4340978999389336, 4.89230409997981, 5.375772999948822, 5.817482399987057, 6.309031900018454]"	11	"[0.8754287000047043, 1.4420612000394613, 2.310142100090161, 2.7503565000370145, 3.3840748000657186, 3.875469100079499, 4.425653300015256, 4.883858400047757, 5.367331000044942, 5.809041200089268, 6.300529500003904]"	"[0.9917191000422463, 1.558497800026089, 2.4502726000500843, 2.867062000092119, 3.5016594000626355, 3.975261399988085, 4.550304800039157, 4.992000800091773, 5.500380699988455, 5.925433900090866, 6.300533800036646]"	114.7983297999017	114.80430719989818	116.29635799990501	116.31278529996052								24	01	2024-02-15_13h05.33.990	BART_exp	2023.2.3	120.01949120200969	2024-02-15 13h05.45.326345 +0100	
balloon.png	97	0	11	11	22	116.31278529996052													116.29654439992737	116.31278529996052	116.31278529996052	116.31278529996052	116.31278529996052	116.31278529996052	-0.00046140002086758614	-0.00046140002086758614	-0.00046140002086758614	116.31278529996052	122.79814400000032	10	0.50	False	"[0.05, 0.05, 0.05, 0.05, 0.05, 0.05, 0.05, 0.05, 0.05, 0.05, 0.05]"	"[-0.37407407407407406, -0.37407407407407406, -0.37407407407407406, -0.37407407407407406, -0.37407407407407406, -0.37407407407407406, -0.37407407407407406, -0.37407407407407406, -0.37407407407407406, -0.37407407407407406, -0.37407407407407406]"	"[1, 1, 1, 1, 1, 1, 1, 1, 1, 1, 0]"	"[0, 0, 0, 0, 0, 0, 0, 0, 0, 0, 0]"	"[0, 0, 0, 0, 0, 0, 0, 0, 0, 0, 1]"	"[0.8836043999763206, 1.5337443000171334, 2.167146799969487, 2.8089883000357077, 3.359016800066456, 3.875482700066641, 4.500586300040595, 4.9340815000468865, 5.58549490000587, 6.075608300045133, 6.500645100022666]"	11	"[0.8735264000715688, 1.5236638000933453, 2.157062300015241, 2.7989107000175864, 3.348940300056711, 3.865400700015016, 4.4905056999996305, 4.924010300077498, 5.5755783000495285, 6.065529000014067, 6.490507100010291]"	"[0.9650658000027761, 1.6401139000663534, 2.2567747000139207, 2.9318205000599846, 3.4402732000453398, 3.973595099989325, 4.590381000074558, 5.023628100054339, 5.698687600088306, 6.165393600007519, 6.490511400043033]"	122.79894519993104	122.80487699992955	124.2968560999725	124.31337959994562								24	01	2024-02-15_13h05.33.990	BART_exp	2023.2.3	120.01949120200969	2024-02-15 13h05.45.326345 +0100	
balloon.png	18	0	12	12	4	124.31337959994562													124.29704019997735	124.31337959994562	124.31337959994562	124.31337959994562	124.31337959994562	124.31337959994562	-0.0006660999497398734	-0.0006660999497398734	-0.0006660999497398734	124.31337959994562	132.91568669991102	14	0.70	False	"[0.05, 0.05, 0.05, 0.05, 0.05, 0.05, 0.05, 0.05, 0.05, 0.05, 0.05, 0.05, 0.05, 0.05, 0.05]"	"[-0.37407407407407406, -0.37407407407407406, -0.37407407407407406, -0.37407407407407406, -0.37407407407407406, -0.37407407407407406, -0.37407407407407406, -0.37407407407407406, -0.37407407407407406, -0.37407407407407406, -0.37407407407407406, -0.37407407407407406, -0.37407407407407406, -0.37407407407407406, -0.37407407407407406]"	"[1, 1, 1, 1, 1, 1, 1, 1, 1, 1, 1, 1, 1, 1, 0]"	"[0, 0, 0, 0, 0, 0, 0, 0, 0, 0, 0, 0, 0, 0, 0]"	"[0, 0, 0, 0, 0, 0, 0, 0, 0, 0, 0, 0, 0, 0, 1]"	"[0.9253092999570072, 1.550465999986045, 2.1186952999560162, 2.6256275000050664, 3.1005490999668837, 3.667158699943684, 4.200712900026701, 4.6838816000381485, 5.134074199944735, 5.584122800035402, 5.993818199960515, 6.450726000010036, 7.267403700039722, 8.025978000019677, 8.617700399947353]"	15	"[0.9159845999674872, 1.5411470999242738, 2.109535999945365, 2.616307199932635, 3.0912252999842167, 3.657844500034116, 4.191389899933711, 4.674561999971047, 5.124753399984911, 5.57480109995231, 5.984507899964228, 6.4414021000266075, 7.258081499952823, 8.016660699970089, 8.608315699966624]"	"[1.0158209999790415, 1.657576199970208, 2.2492485999828205, 2.7409425999503583, 3.1909942999482155, 3.791020300006494, 4.324403999955393, 4.782792799989693, 5.2244532000040635, 5.674499599961564, 6.099724899977446, 6.582879299996421, 7.366294199950062, 8.157988299964927, 8.60832300002221]"	132.91651169990655	132.92225579998922	134.41432139999233	134.43905609997455								24	01	2024-02-15_13h05.33.990	BART_exp	2023.2.3	120.01949120200969	2024-02-15 13h05.45.326345 +0100	
balloon.png	71	0	13	13	16	134.43905609997455													134.41451199993026	134.43905609997455	134.43905609997455	134.43905609997455	134.43905609997455	134.43905609997455	-0.0006952000549063087	-0.0006952000549063087	-0.0006952000549063087	134.43905609997455	140.95775239996146	11	0.55	False	"[0.04722222222222222, 0.04722222222222222, 0.04722222222222222, 0.04722222222222222, 0.04722222222222222, 0.04722222222222222, 0.04722222222222222, 0.04722222222222222, 0.04722222222222222, 0.04722222222222222, 0.04722222222222222, 0.04722222222222222]"	"[-0.38425925925925924, -0.38425925925925924, -0.38425925925925924, -0.38425925925925924, -0.38425925925925924, -0.38425925925925924, -0.38425925925925924, -0.38425925925925924, -0.38425925925925924, -0.38425925925925924, -0.38425925925925924, -0.38425925925925924]"	"[1, 1, 1, 1, 1, 1, 1, 1, 1, 1, 1, 0]"	"[0, 0, 0, 0, 0, 0, 0, 0, 0, 0, 0, 0]"	"[0, 0, 0, 0, 0, 0, 0, 0, 0, 0, 0, 1]"	"[1.1670413000974804, 1.6170696000335738, 2.1253154000733048, 2.5502613000571728, 3.067184300045483, 3.5170413000741974, 4.017204000032507, 4.4756018000189215, 4.900636600097641, 5.392425200087018, 5.850677900016308, 6.54226340004243]"	12	"[1.1549564000451937, 1.6049831000855193, 2.1132245000917464, 2.5381746999919415, 3.055096000083722, 3.5049572000280023, 4.0051162000745535, 4.463513900060207, 4.888557800091803, 5.380348400096409, 5.838589200051501, 6.530112500069663]"	"[1.2464153000619262, 1.7130041000200436, 2.196392900077626, 2.646377900033258, 3.1881256999913603, 3.604936800082214, 4.129812000086531, 4.571533200098202, 4.988223600084893, 5.479998200084083, 5.921830000006594, 6.530116800102405]"	140.95856639998965	140.96450899995398	142.45643919997383	142.47291819995735								24	01	2024-02-15_13h05.33.990	BART_exp	2023.2.3	120.01949120200969	2024-02-15 13h05.45.326345 +0100	
balloon.png	66	0	14	14	15	142.47291819995735													142.45661689992994	142.47291819995735	142.47291819995735	142.47291819995735	142.47291819995735	142.47291819995735	-0.0007496000034734607	-0.0007496000034734607	-0.0007496000034734607	142.47291819995735	152.14180109999143	16	0.80	False	"[0.04722222222222222, 0.04722222222222222, 0.04722222222222222, 0.04722222222222222, 0.04722222222222222, 0.04722222222222222, 0.04722222222222222, 0.04722222222222222, 0.04722222222222222, 0.04722222222222222, 0.04722222222222222, 0.04722222222222222, 0.04722222222222222, 0.04722222222222222, 0.04722222222222222, 0.04722222222222222, 0.04722222222222222]"	"[-0.38425925925925924, -0.38425925925925924, -0.38425925925925924, -0.38425925925925924, -0.38425925925925924, -0.38425925925925924, -0.38425925925925924, -0.38425925925925924, -0.38425925925925924, -0.38425925925925924, -0.38425925925925924, -0.38425925925925924, -0.38425925925925924, -0.38425925925925924, -0.38425925925925924, -0.38425925925925924, -0.38425925925925924]"	"[1, 1, 1, 1, 1, 1, 1, 1, 1, 1, 1, 1, 1, 1, 1, 1, 0]"	"[0, 0, 0, 0, 0, 0, 0, 0, 0, 0, 0, 0, 0, 0, 0, 0, 0]"	"[0, 0, 0, 0, 0, 0, 0, 0, 0, 0, 0, 0, 0, 0, 0, 0, 1]"	"[0.6255964000010863, 1.1840045999269933, 1.7087841000175104, 2.325505999964662, 2.8091490999795496, 3.3173092999495566, 3.809099799953401, 4.24244349997025, 4.750985299935564, 5.24237649992574, 5.717498800018802, 6.325893500004895, 7.126136199920438, 7.767689600004815, 8.592758400016464, 9.309298999956809, 9.684307100018486]"	17	"[0.6159487999975681, 1.1743444999447092, 1.69912599993404, 2.3158464999869466, 2.799492899910547, 3.307646399945952, 3.799450699938461, 4.232781399972737, 4.74132519995328, 5.232717199949548, 5.70783779991325, 6.316235599922948, 7.116483699996024, 7.75802810001187, 8.583098399918526, 9.299637399963103, 9.674585399916396]"	"[0.7822544999653473, 1.298932799953036, 1.8156613999744877, 2.39067959995009, 2.924262899905443, 3.390876599936746, 3.9158509999979287, 4.332511299988255, 4.849311499972828, 5.349239600007422, 5.82561609998811, 6.432706899940968, 7.241091899923049, 7.857739400002174, 8.691424999968149, 9.399513399926946, 9.67458989995066]"	152.1428273000056	152.14860289997887	153.64064209989738	153.65706689993385								24	01	2024-02-15_13h05.33.990	BART_exp	2023.2.3	120.01949120200969	2024-02-15 13h05.45.326345 +0100	
balloon.png	123	0	15	15	28	153.65706689993385													153.64082529989537	153.65706689993385	153.65706689993385	153.65706689993385	153.65706689993385	153.65706689993385	-0.0007192000048235059	-0.0007192000048235059	-0.0007192000048235059	153.65706689993385	164.13430989999324	17	0.85	False	"[0.04722222222222222, 0.04722222222222222, 0.04722222222222222, 0.04722222222222222, 0.04722222222222222, 0.04722222222222222, 0.04722222222222222, 0.04722222222222222, 0.04722222222222222, 0.04722222222222222, 0.04722222222222222, 0.04722222222222222, 0.04722222222222222, 0.04722222222222222, 0.04722222222222222, 0.04722222222222222, 0.04722222222222222, 0.04722222222222222]"	"[-0.38425925925925924, -0.38425925925925924, -0.38425925925925924, -0.38425925925925924, -0.38425925925925924, -0.38425925925925924, -0.38425925925925924, -0.38425925925925924, -0.38425925925925924, -0.38425925925925924, -0.38425925925925924, -0.38425925925925924, -0.38425925925925924, -0.38425925925925924, -0.38425925925925924, -0.38425925925925924, -0.38425925925925924, -0.38425925925925924]"	"[1, 1, 1, 1, 1, 1, 1, 1, 1, 1, 1, 1, 1, 1, 1, 1, 1, 0]"	"[0, 0, 0, 0, 0, 0, 0, 0, 0, 0, 0, 0, 0, 0, 0, 0, 0, 0]"	"[0, 0, 0, 0, 0, 0, 0, 0, 0, 0, 0, 0, 0, 0, 0, 0, 0, 1]"	"[1.4919335999293253, 2.033796399948187, 2.7421719999983907, 3.183909000013955, 3.7756507999729365, 4.2173168999142945, 4.742354099988006, 5.234197299927473, 5.675700999912806, 6.159134399960749, 6.7089838000247255, 7.200834300019778, 7.617592399939895, 8.259095899993554, 8.675917899934575, 9.217658299952745, 9.609333099913783, 10.492555000004359]"	18	"[1.4866969999857247, 2.0285572999855503, 2.736934099928476, 3.178665499901399, 3.770413599908352, 4.2120750999310985, 4.737117899931036, 5.228963700006716, 5.670464799972251, 6.1538976998999715, 6.703741799923591, 7.195595399942249, 7.612358499900438, 8.253860999946482, 8.670684899901971, 9.212414799956605, 9.604091299930587, 10.48725399991963]"	"[1.5948697999119759, 2.119940400007181, 2.8200685000047088, 3.2866692999377847, 3.8950988999567926, 4.328498199931346, 4.84511539991945, 5.336939299944788, 5.7951871999539435, 6.278689799946733, 6.803594199940562, 7.312120599905029, 7.7203340999549255, 8.35369559994433, 8.77877420000732, 9.303817699896172, 9.737148399930447, 10.487258299952373]"	164.13517919997685	164.14113979996182	165.63314879999962	165.64958229998592								24	01	2024-02-15_13h05.33.990	BART_exp	2023.2.3	120.01949120200969	2024-02-15 13h05.45.326345 +0100	
balloon.png	27	0	16	16	6	165.64958229998592													165.6333355999086	165.64958229998592	165.64958229998592	165.64958229998592	165.64958229998592	165.64958229998592	-0.00045549997594207525	-0.00045549997594207525	-0.00045549997594207525	165.64958229998592	172.34320939995814	17	0.85	False	"[0.03425925925925926, 0.03425925925925926, 0.03425925925925926, 0.03425925925925926, 0.03425925925925926, 0.03425925925925926, 0.03425925925925926, 0.03425925925925926, 0.03425925925925926, 0.03425925925925926, 0.03425925925925926, 0.03425925925925926, 0.03425925925925926, 0.03425925925925926, 0.03425925925925926, 0.03425925925925926, 0.03425925925925926, 0.03425925925925926]"	"[-0.375, -0.375, -0.375, -0.375, -0.375, -0.375, -0.375, -0.375, -0.375, -0.375, -0.375, -0.375, -0.375, -0.375, -0.375, -0.375, -0.375, -0.375]"	"[1, 1, 1, 1, 1, 1, 1, 1, 1, 1, 1, 1, 1, 1, 1, 1, 1, 0]"	"[0, 0, 0, 0, 0, 0, 0, 0, 0, 0, 0, 0, 0, 0, 0, 0, 0, 0]"	"[0, 0, 0, 0, 0, 0, 0, 0, 0, 0, 0, 0, 0, 0, 0, 0, 0, 1]"	"[0.6253716999199241, 0.9837271999567747, 1.3839286000002176, 1.7422779999906197, 2.091992700006813, 2.4172703999793157, 2.733816899941303, 3.0921958999242634, 3.4503925999160856, 3.792238099966198, 4.133981499937363, 4.450572000001557, 4.792360899969935, 5.142470299964771, 5.450527300010435, 5.800723999971524, 6.150766399921849, 6.7089377999072894]"	18	"[0.6220658000092953, 0.9804187000263482, 1.3806410999968648, 1.7389644000213593, 2.0886889999965206, 2.4139651999576017, 2.7305061999941245, 3.0888823999557644, 3.447083399980329, 3.7889291999163106, 4.130678399931639, 4.447260699933395, 4.789055999950506, 5.139163799933158, 5.447214199928567, 5.797412800020538, 6.147455399972387, 6.705567999975756]"	"[0.7301338999532163, 1.096787799964659, 1.4469066999154165, 1.8135241999989375, 2.1635212999535725, 2.5385368999559432, 2.8635619999840856, 3.1719155999599025, 3.538597399950959, 3.8970895999809727, 4.247013899963349, 4.555354699958116, 4.922118499991484, 5.2470835000276566, 5.555419399985112, 5.913815299980342, 6.247185999993235, 6.705572200007737]"	172.34420699998736	172.35004980000667	173.84202139999252	173.85849049990065								24	01	2024-02-15_13h05.33.990	BART_exp	2023.2.3	120.01949120200969	2024-02-15 13h05.45.326345 +0100	
balloon.png	105	0	17	17	24	173.85849049990065													173.8421949999174	173.85849049990065	173.85849049990065	173.85849049990065	173.85849049990065	173.85849049990065	-0.0007401000475510955	-0.0007401000475510955	-0.0007401000475510955	173.85849049990065	183.96097439993173	29	1.45	False	"[0.03425925925925926, 0.03425925925925926, 0.03425925925925926, 0.03425925925925926, 0.03425925925925926, 0.03425925925925926, 0.03425925925925926, 0.03425925925925926, 0.03425925925925926, 0.03425925925925926, 0.03425925925925926, 0.03425925925925926, 0.03425925925925926, 0.03425925925925926, 0.03425925925925926, 0.03425925925925926, 0.03425925925925926, 0.03425925925925926, 0.03425925925925926, 0.03425925925925926, 0.03425925925925926, 0.03425925925925926, 0.03425925925925926, 0.03425925925925926, 0.03425925925925926, 0.03425925925925926, 0.03425925925925926, 0.03425925925925926, 0.03425925925925926, 0.03425925925925926]"	"[-0.375, -0.375, -0.375, -0.375, -0.375, -0.375, -0.375, -0.375, -0.375, -0.375, -0.375, -0.375, -0.375, -0.375, -0.375, -0.375, -0.375, -0.375, -0.375, -0.375, -0.375, -0.375, -0.375, -0.375, -0.375, -0.375, -0.375, -0.375, -0.375, -0.375]"	"[1, 1, 1, 1, 1, 1, 1, 1, 1, 1, 1, 1, 1, 1, 1, 1, 1, 1, 1, 1, 1, 1, 1, 1, 1, 1, 1, 1, 1, 0]"	"[0, 0, 0, 0, 0, 0, 0, 0, 0, 0, 0, 0, 0, 0, 0, 0, 0, 0, 0, 0, 0, 0, 0, 0, 0, 0, 0, 0, 0, 0]"	"[0, 0, 0, 0, 0, 0, 0, 0, 0, 0, 0, 0, 0, 0, 0, 0, 0, 0, 0, 0, 0, 0, 0, 0, 0, 0, 0, 0, 0, 1]"	"[0.6836686000460759, 0.9754539000568911, 1.3086373000405729, 1.6087330000009388, 1.8920583000872284, 2.175558799994178, 2.4920519000152126, 2.7923408000497147, 3.085014400072396, 3.35894210007973, 3.650521900039166, 3.925640400033444, 4.208916800096631, 4.517387000028975, 4.817326000076719, 5.109067299985327, 5.4423980000428855, 5.725831800024025, 6.034006100031547, 6.350812299991958, 6.717529300018214, 7.025703500024974, 7.3356545000569895, 7.700901100062765, 8.050823500030674, 8.384327700012363, 8.701190000050701, 9.059191500069574, 9.39256110007409, 10.117827899986878]"	30	"[0.6792797000380233, 0.9710765000199899, 1.304245000006631, 1.604345600004308, 1.8876658999361098, 2.1711741000181064, 2.4876655000261962, 2.7879559999564663, 3.080773700028658, 3.3545531999552622, 3.6461278999922797, 3.921259499969892, 4.204525099950843, 4.512995500001125, 4.812941999989562, 5.1046829000115395, 5.438003799994476, 5.721449499949813, 6.029619500041008, 6.346423599985428, 6.713141800020821, 7.021310699987225, 7.331426599994302, 7.696510799927637, 8.046436400036328, 8.37993799999822, 8.6968029999407, 9.054799400037155, 9.388169000041671, 10.113381500006653]"	"[0.7874424000037834, 1.0957545000128448, 1.379110399982892, 1.6791341999778524, 2.004136599949561, 2.2875005999812856, 2.6043108999729156, 2.912573399953544, 3.1806921999668702, 3.4626385000301525, 3.729467900004238, 4.037715999991633, 4.312743699993007, 4.604696499998681, 4.929384500021115, 5.204381700023077, 5.554404499940574, 5.837747799931094, 6.121103600016795, 6.454509199946187, 6.829481999971904, 7.129513000021689, 7.429631400038488, 7.812924199970439, 8.139287399942987, 8.479629299952649, 8.821338100009598, 9.154669099953026, 9.504666700027883, 10.113385700038634]"	183.96218709996901	183.96752459998243	185.45945979992393	185.46772219997365								24	01	2024-02-15_13h05.33.990	BART_exp	2023.2.3	120.01949120200969	2024-02-15 13h05.45.326345 +0100	
balloon.png	53	0	18	18	12	185.46772219997365													185.45964269991964	185.46772219997365	185.46772219997365	185.46772219997365	185.46772219997365	185.46772219997365	0.005597900017164648	0.005597900017164648	0.005597900017164648	185.46772219997365	192.4530025999993	25	1.25	False	"[0.03425925925925926, 0.03425925925925926, 0.03425925925925926, 0.03425925925925926, 0.03425925925925926, 0.03425925925925926, 0.03425925925925926, 0.03425925925925926, 0.03425925925925926, 0.03425925925925926, 0.03425925925925926, 0.03425925925925926, 0.03425925925925926, 0.03425925925925926, 0.03425925925925926, 0.03425925925925926, 0.03425925925925926, 0.03425925925925926, 0.03425925925925926, 0.03425925925925926, 0.03425925925925926, 0.03425925925925926, 0.03425925925925926, 0.03425925925925926, 0.03425925925925926, 0.03425925925925926]"	"[-0.375, -0.375, -0.375, -0.375, -0.375, -0.375, -0.375, -0.375, -0.375, -0.375, -0.375, -0.375, -0.375, -0.375, -0.375, -0.375, -0.375, -0.375, -0.375, -0.375, -0.375, -0.375, -0.375, -0.375, -0.375, -0.375]"	"[1, 1, 1, 1, 1, 1, 1, 1, 1, 1, 1, 1, 1, 1, 1, 1, 1, 1, 1, 1, 1, 1, 1, 1, 1, 0]"	"[0, 0, 0, 0, 0, 0, 0, 0, 0, 0, 0, 0, 0, 0, 0, 0, 0, 0, 0, 0, 0, 0, 0, 0, 0, 0]"	"[0, 0, 0, 0, 0, 0, 0, 0, 0, 0, 0, 0, 0, 0, 0, 0, 0, 0, 0, 0, 0, 0, 0, 0, 0, 1]"	"[0.3671505000675097, 0.7005029000574723, 0.9338633000152186, 1.217087100027129, 1.4840066001052037, 1.7423332000616938, 1.9673181000398472, 2.2171381000662223, 2.4671287001110613, 2.726128500071354, 2.9687514000106603, 3.2089986000210047, 3.442290300037712, 3.692381600034423, 3.9259148000273854, 4.134074500063434, 4.383961100014858, 4.633983300067484, 4.875956700067036, 5.134153400082141, 5.400770600070246, 5.625700500095263, 5.884275100077502, 6.167603600071743, 6.451086500077508, 6.9924599000951275]"	26	"[0.36529859993606806, 0.6986478999024257, 0.9320092999842018, 1.2152376999147236, 1.4821478999219835, 1.7404741999926046, 1.9654648000141606, 2.2152828999096528, 2.465274199959822, 2.724437199998647, 2.967058999929577, 3.2071442999877036, 3.4404371000127867, 3.6905281000072137, 3.92406609992031, 4.132216199999675, 4.382101999945007, 4.632134599960409, 4.874100499902852, 5.13229149999097, 5.398909999988973, 5.6238405999029055, 5.882416100008413, 6.165746200014837, 6.44923549995292, 6.990538400015794]"	"[0.4733196999877691, 0.7983688999665901, 1.0233705999562517, 1.3150539000052959, 1.573479300015606, 1.8318348999600857, 2.0651146000018343, 2.2901165999937803, 2.5486889999592677, 2.7984894999535754, 3.0568421999923885, 3.2818900999845937, 3.531869399943389, 3.7570478999987245, 3.998589799972251, 4.231964899925515, 4.465307799982838, 4.715289899962954, 4.965376099920832, 5.240326599916443, 5.498747600009665, 5.733432299923152, 5.957158999983221, 6.273738699965179, 6.548806499922648, 6.990542799932882]"	192.4540866999887	192.45977149996907	193.95172569993883	193.96821479999926								24	01	2024-02-15_13h05.33.990	BART_exp	2023.2.3	120.01949120200969	2024-02-15 13h05.45.326345 +0100	
balloon.png	75	0	19	19	17	193.96821479999926													193.95190159999765	193.96821479999926	193.96821479999926	193.96821479999926	193.96821479999926	193.96821479999926	-0.0009582999628037214	-0.0009582999628037214	-0.0009582999628037214	193.96821479999926	199.7621898999205	21	1.05	False	"[0.03425925925925926, 0.03425925925925926, 0.03425925925925926, 0.03425925925925926, 0.03425925925925926, 0.03425925925925926, 0.03425925925925926, 0.03425925925925926, 0.03425925925925926, 0.03425925925925926, 0.03425925925925926, 0.03425925925925926, 0.03425925925925926, 0.03425925925925926, 0.03425925925925926, 0.03425925925925926, 0.03425925925925926, 0.03425925925925926, 0.03425925925925926, 0.03425925925925926, 0.03425925925925926, 0.03425925925925926]"	"[-0.375, -0.375, -0.375, -0.375, -0.375, -0.375, -0.375, -0.375, -0.375, -0.375, -0.375, -0.375, -0.375, -0.375, -0.375, -0.375, -0.375, -0.375, -0.375, -0.375, -0.375, -0.375]"	"[1, 1, 1, 1, 1, 1, 1, 1, 1, 1, 1, 1, 1, 1, 1, 1, 1, 1, 1, 1, 1, 0]"	"[0, 0, 0, 0, 0, 0, 0, 0, 0, 0, 0, 0, 0, 0, 0, 0, 0, 0, 0, 0, 0, 0]"	"[0, 0, 0, 0, 0, 0, 0, 0, 0, 0, 0, 0, 0, 0, 0, 0, 0, 0, 0, 0, 0, 1]"	"[0.33372250001411885, 0.567273800028488, 0.8006332999793813, 1.0339487999444827, 1.2670852999435738, 1.5087697999551892, 1.7671255000168458, 1.9839818000327796, 2.2090217999648303, 2.4423180000158027, 2.6755450000055134, 2.908945200033486, 3.150615199934691, 3.360429699998349, 3.592534599942155, 3.800822200020775, 4.03412720002234, 4.275751100038178, 4.50897059997078, 4.74384030001238, 4.992538599995896, 5.809398100012913]"	22	"[0.3292111998889595, 0.562785099959001, 0.7961236999835819, 1.0294366999296471, 1.262576499953866, 1.5042585999472067, 1.7626159999053925, 1.9794698999030516, 2.2045239999424666, 2.4378093999112025, 2.671036599902436, 2.9044304999988526, 3.1378135998966172, 3.3560759999090806, 3.5880264999577776, 3.7963110998971388, 4.029618999920785, 4.27124469995033, 4.504456499940716, 4.739445999963209, 4.988031899905764, 5.804824399994686]"	"[0.4373710999498144, 0.6711058999644592, 0.9041022999444976, 1.129059899947606, 1.3540843999944627, 1.604151799925603, 1.837441899930127, 2.0707995999837294, 2.320818799897097, 2.545856999931857, 2.7876047999598086, 3.0375830999109894, 3.2292431999230757, 3.4626017999835312, 3.68771349999588, 3.9042489998973906, 4.137638699961826, 4.362731699948199, 4.5878639000002295, 4.837691999971867, 5.087693899986334, 5.804828599910252]"	199.7634593999246	199.76863929990213	201.26059359998908	201.26876789995003								24	01	2024-02-15_13h05.33.990	BART_exp	2023.2.3	120.01949120200969	2024-02-15 13h05.45.326345 +0100	
balloon.png	23	0	20	20	5	201.26876789995003													201.26077029993758	201.26876789995003	201.26876789995003	201.26876789995003	201.26876789995003	201.26876789995003	0.005369100021198392	0.005369100021198392	0.005369100021198392	201.26876789995003	207.39606319996528	24	1.15	True	"[0.03425925925925926, 0.03425925925925926, 0.03425925925925926, 0.03425925925925926, 0.03425925925925926, 0.03425925925925926, 0.03425925925925926, 0.03425925925925926, 0.03425925925925926, 0.03425925925925926, 0.03425925925925926, 0.03425925925925926, 0.03425925925925926, 0.03425925925925926, 0.03425925925925926, 0.03425925925925926, 0.03425925925925926, 0.03425925925925926, 0.03425925925925926, 0.03425925925925926, 0.03425925925925926, 0.03425925925925926, 0.03425925925925926, 0.03425925925925926]"	"[-0.375, -0.375, -0.375, -0.375, -0.375, -0.375, -0.375, -0.375, -0.375, -0.375, -0.375, -0.375, -0.375, -0.375, -0.375, -0.375, -0.375, -0.375, -0.375, -0.375, -0.375, -0.375, -0.375, -0.375]"	"[1, 1, 1, 1, 1, 1, 1, 1, 1, 1, 1, 1, 1, 1, 1, 1, 1, 1, 1, 1, 1, 1, 1, 1]"	"[0, 0, 0, 0, 0, 0, 0, 0, 0, 0, 0, 0, 0, 0, 0, 0, 0, 0, 0, 0, 0, 0, 0, 0]"	"[0, 0, 0, 0, 0, 0, 0, 0, 0, 0, 0, 0, 0, 0, 0, 0, 0, 0, 0, 0, 0, 0, 0, 0]"	"[0.41696149995550513, 0.6504637999460101, 0.9171732000540942, 1.1587157000321895, 1.383700200007297, 1.6170506000053138, 1.8588825999759138, 2.09229930001311, 2.375443600001745, 2.6089609999908134, 2.850599900004454, 3.0841139999683946, 3.3173304999945685, 3.567187799955718, 3.8255237999837846, 4.075747000053525, 4.309076700010337, 4.558923200005665, 4.808930699946359, 5.067442100029439, 5.292475900030695, 5.534130600048229, 5.784005200024694, 6.017579399980605]"	24	"[0.41510009998455644, 0.6485986999468878, 0.9153085999423638, 1.1568502000300214, 1.3818346000043675, 1.615186500013806, 1.857022100011818, 2.0904480000026524, 2.373583599925041, 2.6071048999438062, 2.848732899990864, 3.082253500004299, 3.3154697000281885, 3.5653281999984756, 3.823659099987708, 4.073882199940272, 4.307213000021875, 4.557062899926677, 4.8070655999472365, 5.0655790999298915, 5.290616999962367, 5.532269199960865, 5.782140600029379, 6.01571479998529]"	"[0.5400061999680474, 0.7746614000061527, 1.0316532999277115, 1.2649960999842733, 1.4817626000149176, 1.7234226999571547, 1.9483818999724463, 2.206964200013317, 2.465079399989918, 2.7151119000045583, 2.9484530999325216, 3.1902246000245214, 3.431843400001526, 3.6653715999564156, 3.948532999958843, 4.181876600021496, 4.398684300016612, 4.66529759997502, 4.923595399945043, 5.173668299918063, 5.406999500002712, 5.6320398999378085, 5.890397400013171, 6.123924999963492]"	207.39710389997344	207.4025361998938	208.89447909989394	208.90261749993078								24	01	2024-02-15_13h05.33.990	BART_exp	2023.2.3	120.01949120200969	2024-02-15 13h05.45.326345 +0100	
balloon.png	44	0	21	21	10	208.90261749993078													208.8946535999421	208.90261749993078	208.90261749993078	208.90261749993078	208.90261749993078	208.90261749993078	0.005576499970629811			208.90261749993078	215.86307779990602	20	1.00	False	"[0.03425925925925926, 0.03425925925925926, 0.03425925925925926, 0.03425925925925926, 0.03425925925925926, 0.03425925925925926, 0.03425925925925926, 0.03425925925925926, 0.03425925925925926, 0.03425925925925926, 0.03425925925925926, 0.03425925925925926, 0.03425925925925926, 0.03425925925925926, 0.03425925925925926, 0.03425925925925926, 0.03425925925925926, 0.03425925925925926, 0.03425925925925926, 0.03425925925925926, 0.03425925925925926]"	"[-0.375, -0.375, -0.375, -0.375, -0.375, -0.375, -0.375, -0.375, -0.375, -0.375, -0.375, -0.375, -0.375, -0.375, -0.375, -0.375, -0.375, -0.375, -0.375, -0.375, -0.375]"	"[1, 1, 1, 1, 1, 1, 1, 1, 1, 1, 1, 1, 1, 1, 1, 1, 1, 1, 1, 1, 0]"	"[0, 0, 0, 0, 0, 0, 0, 0, 0, 0, 0, 0, 0, 0, 0, 0, 0, 0, 0, 0, 0]"	"[0, 0, 0, 0, 0, 0, 0, 0, 0, 0, 0, 0, 0, 0, 0, 0, 0, 0, 0, 0, 1]"	"[0.7669688999885693, 1.083825100096874, 1.3336819000542164, 1.5920201000990346, 1.842322500073351, 2.0673886000877246, 2.3171509000239894, 2.592087800032459, 2.8506022000219673, 3.1171297000255436, 3.3588308000471443, 3.5923074000747874, 3.859043800039217, 4.100723800016567, 4.358894000062719, 4.58404490002431, 4.800758700002916, 5.05927209998481, 5.492316100047901, 5.884305100073107, 6.967510899994522]"	21	"[0.7650283999973908, 1.0818830999778584, 1.331734300008975, 1.5900768999708816, 1.8403896000236273, 2.0654435999458656, 2.315206400002353, 2.590143600013107, 2.8486596000147983, 3.115182699984871, 3.3568900999380276, 3.590361399925314, 3.8570996000198647, 4.098787699942477, 4.3569528999505565, 4.582098699989729, 4.798820200026967, 5.057333400007337, 5.490373999928124, 5.882363899960183, 6.965504199964926]"	"[0.8830064999638125, 1.1732768999645486, 1.4315899999346584, 1.656606899923645, 1.9400434999261051, 2.173376000020653, 2.431655199965462, 2.681797800003551, 2.9483600999228656, 3.198533899965696, 3.4317286999430507, 3.698497899924405, 3.9317532000131905, 4.165165900019929, 4.415162799996324, 4.665186799946241, 4.915163400000893, 5.156886199954897, 5.581879599951208, 5.9819244999671355, 6.9655083999969065]"	215.863988099969	215.86974899994675	217.36172589997295	217.37819919991307								24	01	2024-02-15_13h05.33.990	BART_exp	2023.2.3	120.01949120200969	2024-02-15 13h05.45.326345 +0100	
balloon.png	57	0	22	22	13	217.37819919991307													217.36190209991764	217.37819919991307	217.37819919991307	217.37819919991307	217.37819919991307	217.37819919991307	-0.000824199989438057	-0.000824199989438057	-0.000824199989438057	217.37819919991307	223.63849379995372	19	0.95	False	"[0.02962962962962963, 0.02962962962962963, 0.02962962962962963, 0.02962962962962963, 0.02962962962962963, 0.02962962962962963, 0.02962962962962963, 0.02962962962962963, 0.02962962962962963, 0.02962962962962963, 0.02962962962962963, 0.02962962962962963, 0.02962962962962963, 0.02962962962962963, 0.02962962962962963, 0.02962962962962963, 0.02962962962962963, 0.02962962962962963, 0.02962962962962963, 0.02962962962962963]"	"[-0.37222222222222223, -0.37222222222222223, -0.37222222222222223, -0.37222222222222223, -0.37222222222222223, -0.37222222222222223, -0.37222222222222223, -0.37222222222222223, -0.37222222222222223, -0.37222222222222223, -0.37222222222222223, -0.37222222222222223, -0.37222222222222223, -0.37222222222222223, -0.37222222222222223, -0.37222222222222223, -0.37222222222222223, -0.37222222222222223, -0.37222222222222223, -0.37222222222222223]"	"[1, 1, 1, 1, 1, 1, 1, 1, 1, 1, 1, 1, 1, 1, 1, 1, 1, 1, 1, 0]"	"[0, 0, 0, 0, 0, 0, 0, 0, 0, 0, 0, 0, 0, 0, 0, 0, 0, 0, 0, 0]"	"[0, 0, 0, 0, 0, 0, 0, 0, 0, 0, 0, 0, 0, 0, 0, 0, 0, 0, 0, 1]"	"[0.5421809999970719, 0.7756078999955207, 1.050330700003542, 1.2836908000754192, 1.550571999978274, 1.8005596000002697, 2.067106500035152, 2.417263300041668, 2.708797900006175, 2.925715700024739, 3.200785900000483, 3.500540600041859, 3.725831300020218, 4.0172551000723615, 4.275600700057112, 4.567413900047541, 4.817310400074348, 5.083954700035974, 5.3016524000559, 6.27568630001042]"	20	"[0.5372630000347272, 0.7706890000263229, 1.0454144000541419, 1.2787703999783844, 1.5456623999634758, 1.795639600022696, 2.062189699965529, 2.4123649999964982, 2.703876300016418, 2.9208017999771982, 3.195868300041184, 3.4956196000566706, 3.72092310001608, 4.012334399973042, 4.270683499984443, 4.562494400073774, 4.81238979997579, 5.0790391999762505, 5.296894400031306, 6.270702000008896]"	"[0.6452281000092626, 0.8786181000759825, 1.120349399978295, 1.378660500049591, 1.6370007999939844, 1.9036779999732971, 2.1704269000329077, 2.512333399965428, 2.778723399969749, 3.0371617999626324, 3.295539600076154, 3.5954340000171214, 3.837123900069855, 4.120523800025694, 4.3872329000150785, 4.670571199967526, 4.912345099961385, 5.170563600026071, 5.3955563000636175, 6.270706200040877]"	223.6394818999106	223.6453016999876	225.13725079991855	225.15378709998913								24	01	2024-02-15_13h05.33.990	BART_exp	2023.2.3	120.01949120200969	2024-02-15 13h05.45.326345 +0100	
balloon.png	36	0	23	23	8	225.15378709998913													225.1374224999454	225.15378709998913	225.15378709998913	225.15378709998913	225.15378709998913	225.15378709998913	-0.0008166000479832292	-0.0008166000479832292	-0.0008166000479832292	225.15378709998913	230.0975700999843	18	0.90	False	"[0.02962962962962963, 0.02962962962962963, 0.02962962962962963, 0.02962962962962963, 0.02962962962962963, 0.02962962962962963, 0.02962962962962963, 0.02962962962962963, 0.02962962962962963, 0.02962962962962963, 0.02962962962962963, 0.02962962962962963, 0.02962962962962963, 0.02962962962962963, 0.02962962962962963, 0.02962962962962963, 0.02962962962962963, 0.02962962962962963, 0.02962962962962963]"	"[-0.37037037037037035, -0.37037037037037035, -0.37037037037037035, -0.37037037037037035, -0.37037037037037035, -0.37037037037037035, -0.37037037037037035, -0.37037037037037035, -0.37037037037037035, -0.37037037037037035, -0.37037037037037035, -0.37037037037037035, -0.37037037037037035, -0.37037037037037035, -0.37037037037037035, -0.37037037037037035, -0.37037037037037035, -0.37037037037037035, -0.37037037037037035]"	"[1, 1, 1, 1, 1, 1, 1, 1, 1, 1, 1, 1, 1, 1, 1, 1, 1, 1, 0]"	"[0, 0, 0, 0, 0, 0, 0, 0, 0, 0, 0, 0, 0, 0, 0, 0, 0, 0, 0]"	"[0, 0, 0, 0, 0, 0, 0, 0, 0, 0, 0, 0, 0, 0, 0, 0, 0, 0, 1]"	"[0.4171874999301508, 0.6586962998844683, 0.942375999991782, 1.1839702998986468, 1.4670990998856723, 1.7338940999470651, 1.9687070999061689, 2.2172904999461025, 2.475560199934989, 2.7507836999138817, 3.0089963999344036, 3.2590012999717146, 3.517286599962972, 3.717352799954824, 3.9172439998947084, 4.12584369990509, 4.350763699971139, 4.5674820999847725, 4.959217899944633]"	19	"[0.40807850006967783, 0.6495887000346556, 0.9332671000156552, 1.1748662000754848, 1.4579952000640333, 1.7247930000303313, 1.959764500032179, 2.2081804000772536, 2.4664522000821307, 2.741677000070922, 2.999889900092967, 3.24989150010515, 3.508180500008166, 3.7082423000829294, 3.90813670004718, 4.11673420004081, 4.341654400108382, 4.558376000029966, 4.9500620000762865]"	"[0.5411186000565067, 0.782792100100778, 1.0244641000172123, 1.2828146000392735, 1.6079205001005903, 1.8413675000192598, 2.074532200000249, 2.3161964000901207, 2.5578942000865936, 2.857953800004907, 3.1080391000723466, 3.3747009000508115, 3.591328400070779, 3.799659000011161, 4.018016300047748, 4.191387500031851, 4.433061000076123, 4.666375400032848, 4.950066300109029]"	230.09867219999433	230.1041041999124	231.59612539992668	231.60423499997705								24	01	2024-02-15_13h05.33.990	BART_exp	2023.2.3	120.01949120200969	2024-02-15 13h05.45.326345 +0100	
balloon.png	110	0	24	24	25	231.60423499997705													231.5963126999559	231.60423499997705	231.60423499997705	231.60423499997705	231.60423499997705	231.60423499997705	0.005621999967843294	0.005621999967843294	0.005621999967843294	231.60423499997705	237.5645097999368	20	1.00	False	"[0.02962962962962963, 0.02962962962962963, 0.02962962962962963, 0.02962962962962963, 0.02962962962962963, 0.02962962962962963, 0.02962962962962963, 0.02962962962962963, 0.02962962962962963, 0.02962962962962963, 0.02962962962962963, 0.02962962962962963, 0.02962962962962963, 0.02962962962962963, 0.02962962962962963, 0.02962962962962963, 0.02962962962962963, 0.02962962962962963, 0.02962962962962963, 0.02962962962962963, 0.02962962962962963]"	"[-0.3712962962962963, -0.37222222222222223, -0.37222222222222223, -0.37222222222222223, -0.37222222222222223, -0.37222222222222223, -0.37222222222222223, -0.37222222222222223, -0.37222222222222223, -0.37222222222222223, -0.37222222222222223, -0.37222222222222223, -0.37222222222222223, -0.37222222222222223, -0.37222222222222223, -0.37222222222222223, -0.37222222222222223, -0.37222222222222223, -0.37222222222222223, -0.37222222222222223, -0.37222222222222223]"	"[1, 1, 1, 1, 1, 1, 1, 1, 1, 1, 1, 1, 1, 1, 1, 1, 1, 1, 1, 1, 0]"	"[0, 0, 0, 0, 0, 0, 0, 0, 0, 0, 0, 0, 0, 0, 0, 0, 0, 0, 0, 0, 0]"	"[0, 0, 0, 0, 0, 0, 0, 0, 0, 0, 0, 0, 0, 0, 0, 0, 0, 0, 0, 0, 1]"	"[0.667373500065878, 0.8838575000409037, 1.1337776000145823, 1.3505774000659585, 1.6003072001039982, 1.8421445999993011, 2.0671764001017436, 2.300570600084029, 2.5339467000449076, 2.758887300034985, 2.9588122999994084, 3.208956800051965, 3.425474900053814, 3.642197500099428, 3.8756366000743583, 4.0840262999990955, 4.325703400070779, 4.542353000026196, 4.967454900033772, 5.2841108000138775, 5.967305700061843]"	21	"[0.6655219999374822, 0.8819972999626771, 1.1319169999333099, 1.3487236999208108, 1.598449599929154, 1.840290499967523, 2.0653161999071017, 2.298715299926698, 2.5320885999826714, 2.7570340998936445, 2.9569654999068007, 3.207094599958509, 3.423618899891153, 3.6403373999055475, 3.873777899891138, 4.0821654999163, 4.323853099951521, 4.540495799970813, 4.965592899941839, 5.282251399941742, 5.965387100004591]"	"[0.806622999953106, 1.006645099958405, 1.223272699979134, 1.4484792998991907, 1.6817037999862805, 1.9399979999288917, 2.173351199948229, 2.415080599952489, 2.6317249999847263, 2.8567201999248937, 3.056814399897121, 3.273519799928181, 3.498481099959463, 3.740142099908553, 3.9568915999261662, 4.181839399971068, 4.423515499918722, 4.665195299894549, 5.065296499989927, 5.390332999988459, 5.965391299920157]"	237.56559579994064	237.5712803999195	239.063262199983	239.07972139993217								24	01	2024-02-15_13h05.33.990	BART_exp	2023.2.3	120.01949120200969	2024-02-15 13h05.45.326345 +0100	
balloon.png	88	0	25	25	20	239.07972139993217													239.0634388999315	239.07972139993217	239.07972139993217	239.07972139993217	239.07972139993217	239.07972139993217	-0.000920299906283617	-0.000920299906283617	-0.000920299906283617	239.07972139993217	246.69032639998477	27	1.35	False	"[0.02962962962962963, 0.02962962962962963, 0.02962962962962963, 0.02962962962962963, 0.02962962962962963, 0.02962962962962963, 0.02962962962962963, 0.02962962962962963, 0.02962962962962963, 0.02962962962962963, 0.02962962962962963, 0.02962962962962963, 0.02962962962962963, 0.02962962962962963, 0.02962962962962963, 0.02962962962962963, 0.02962962962962963, 0.02962962962962963, 0.02962962962962963, 0.02962962962962963, 0.02962962962962963, 0.02962962962962963, 0.02962962962962963, 0.02962962962962963, 0.02962962962962963, 0.02962962962962963, 0.02962962962962963, 0.02962962962962963]"	"[-0.37222222222222223, -0.37222222222222223, -0.37222222222222223, -0.37222222222222223, -0.37222222222222223, -0.37222222222222223, -0.37222222222222223, -0.37222222222222223, -0.37222222222222223, -0.37222222222222223, -0.37222222222222223, -0.37222222222222223, -0.37222222222222223, -0.37222222222222223, -0.37222222222222223, -0.37222222222222223, -0.37222222222222223, -0.37222222222222223, -0.37222222222222223, -0.37222222222222223, -0.37222222222222223, -0.37222222222222223, -0.37222222222222223, -0.37222222222222223, -0.37222222222222223, -0.37222222222222223, -0.37222222222222223, -0.37222222222222223]"	"[1, 1, 1, 1, 1, 1, 1, 1, 1, 1, 1, 1, 1, 1, 1, 1, 1, 1, 1, 1, 1, 1, 1, 1, 1, 1, 1, 0]"	"[0, 0, 0, 0, 0, 0, 0, 0, 0, 0, 0, 0, 0, 0, 0, 0, 0, 0, 0, 0, 0, 0, 0, 0, 0, 0, 0, 0]"	"[0, 0, 0, 0, 0, 0, 0, 0, 0, 0, 0, 0, 0, 0, 0, 0, 0, 0, 0, 0, 0, 0, 0, 0, 0, 0, 0, 1]"	"[0.37543879996519536, 0.6018664999864995, 0.817154899938032, 1.0338945999974385, 1.2422275999560952, 1.442203399958089, 1.650638599996455, 1.8588898000307381, 2.0589173999615014, 2.267303999979049, 2.467374900006689, 2.6839508999837562, 2.8838531000074, 3.0921989999478683, 3.3255100999958813, 3.5590074999490753, 3.7755601999815553, 3.992368799983524, 4.225735899992287, 4.442413299926557, 4.659137499984354, 4.88405450002756, 5.250849999953061, 5.684216300025582, 5.91735429991968, 6.309043399989605, 6.709092699922621, 7.62597359996289]"	28	"[0.37217640003655106, 0.5987636999925599, 0.8138935000170022, 1.0306341999676079, 1.2389660000335425, 1.4389410000294447, 1.6473729000426829, 1.8556228999514133, 2.055656500044279, 2.264046899974346, 2.4641091000521556, 2.680686500039883, 2.880586800049059, 3.0889337999979034, 3.322249799966812, 3.5557519999565557, 3.772296000039205, 3.9891029000282288, 4.222470000036992, 4.439150099991821, 4.655873000039719, 4.880792299984023, 5.247589400038123, 5.680954799987376, 5.914088899968192, 6.30577680002898, 6.705828299978748, 7.622653199941851]"	"[0.5052537999581546, 0.6969523000298068, 0.9135874999919906, 1.113613300025463, 1.3136559999547899, 1.5386421999428421, 1.738742099958472, 1.9303962000412866, 2.1303467999678105, 2.3220686999848112, 2.5472127000102773, 2.7637187000364065, 2.9554995000362396, 3.163833500002511, 3.405590199981816, 3.6304562999866903, 3.8554551999550313, 4.073575700051151, 4.313863100018352, 4.5306016999529675, 4.747395599959418, 4.9722529000137, 5.380620999960229, 5.755632600048557, 6.005639299983159, 6.415461899945512, 6.789063600008376, 7.622657299973071]"	246.69150929991156	246.69692039990332	248.18887319997884	248.19711409998126								24	01	2024-02-15_13h05.33.990	BART_exp	2023.2.3	120.01949120200969	2024-02-15 13h05.45.326345 +0100	
balloon.png	118	0	26	26	27	248.19711409998126													248.1890476999106	248.19711409998126	248.19711409998126	248.19711409998126	248.19711409998126	248.19711409998126	0.005664299940690398	0.005664299940690398	0.005664299940690398	248.19711409998126	256.2328720999649	30	1.50	False	"[0.02962962962962963, 0.02962962962962963, 0.02962962962962963, 0.02962962962962963, 0.02962962962962963, 0.02962962962962963, 0.02962962962962963, 0.02962962962962963, 0.02962962962962963, 0.02962962962962963, 0.02962962962962963, 0.02962962962962963, 0.02962962962962963, 0.02962962962962963, 0.02962962962962963, 0.02962962962962963, 0.02962962962962963, 0.02962962962962963, 0.02962962962962963, 0.02962962962962963, 0.02962962962962963, 0.02962962962962963, 0.02962962962962963, 0.02962962962962963, 0.02962962962962963, 0.02962962962962963, 0.02962962962962963, 0.02962962962962963, 0.02962962962962963, 0.02962962962962963, 0.02962962962962963]"	"[-0.37222222222222223, -0.37222222222222223, -0.37222222222222223, -0.37222222222222223, -0.37222222222222223, -0.37222222222222223, -0.37222222222222223, -0.37222222222222223, -0.37222222222222223, -0.37222222222222223, -0.37222222222222223, -0.37222222222222223, -0.37222222222222223, -0.37222222222222223, -0.37222222222222223, -0.37222222222222223, -0.37222222222222223, -0.37222222222222223, -0.37222222222222223, -0.37222222222222223, -0.37222222222222223, -0.37222222222222223, -0.37222222222222223, -0.37222222222222223, -0.37222222222222223, -0.37222222222222223, -0.37222222222222223, -0.37222222222222223, -0.37222222222222223, -0.37222222222222223, -0.37222222222222223]"	"[1, 1, 1, 1, 1, 1, 1, 1, 1, 1, 1, 1, 1, 1, 1, 1, 1, 1, 1, 1, 1, 1, 1, 1, 1, 1, 1, 1, 1, 1, 0]"	"[0, 0, 0, 0, 0, 0, 0, 0, 0, 0, 0, 0, 0, 0, 0, 0, 0, 0, 0, 0, 0, 0, 0, 0, 0, 0, 0, 0, 0, 0, 0]"	"[0, 0, 0, 0, 0, 0, 0, 0, 0, 0, 0, 0, 0, 0, 0, 0, 0, 0, 0, 0, 0, 0, 0, 0, 0, 0, 0, 0, 0, 0, 1]"	"[0.5588397999526933, 0.7837153999134898, 1.0171084000030532, 1.225615100003779, 1.4337610999355093, 1.675599499954842, 1.8839415999827906, 2.1090063999872655, 2.3339565999340266, 2.5671598999761045, 2.800541599979624, 3.033995999954641, 3.2423519999720156, 3.467388999997638, 3.6925120999803767, 3.9257469999138266, 4.1423262999160215, 4.383962599909864, 4.600995599990711, 4.825657599954866, 5.025857499917038, 5.275846599950455, 5.500909199938178, 5.734101299894974, 5.959071299992502, 6.192446299945004, 6.426057899952866, 6.692852499894798, 6.9508137999800965, 7.209190199966542, 8.042920499923639]"	31	"[0.5569175999844447, 0.7817811999702826, 1.0151701999129727, 1.2236821999540552, 1.4318328999215737, 1.6736613999819383, 1.8820071999216452, 2.1070722999284044, 2.332024100003764, 2.565228599938564, 2.7986061999108642, 3.0320590999908745, 3.2404184999177232, 3.465452399919741, 3.690579899935983, 3.9238147999858484, 4.14039389998652, 4.38202649995219, 4.599070199998096, 4.8237238000147045, 5.023936599958688, 5.273916799924336, 5.498991700005718, 5.732165899942629, 5.957135299919173, 6.190520399948582, 6.424133599968627, 6.690929199918173, 6.948880999931134, 7.207259199931286, 8.040926499990746]"	"[0.6482913999352604, 0.8733373999129981, 1.0733068999834359, 1.2983585000038147, 1.5150011000223458, 1.7319184999214485, 1.9734587999992073, 2.1984223999315873, 2.415074300020933, 2.648431699955836, 2.8817784999264404, 3.098588699940592, 3.3318153999280185, 3.5653583999956027, 3.773516200017184, 4.01517689996399, 4.248693999950774, 4.465210099937394, 4.690302199916914, 4.906899099936709, 5.140266199945472, 5.36544939992018, 5.5987231999170035, 5.79871819994878, 6.065345300012268, 6.265331399976276, 6.532221299945377, 6.78220599994529, 7.0071489999536425, 7.290413899929263, 8.040930600021966]"	256.2343586999923	256.2393153999001	257.7312571000075	257.7393760998966								24	01	2024-02-15_13h05.33.990	BART_exp	2023.2.3	120.01949120200969	2024-02-15 13h05.45.326345 +0100	
balloon.png	92	0	27	27	21	257.7393760998966													257.7314438999165	257.7393760998966	257.7393760998966	257.7393760998966	257.7393760998966	257.7393760998966	0.005089599988423288	0.005089599988423288	0.005089599988423288	257.7393760998966	266.458539599902	32	1.60	False	"[0.02962962962962963, 0.02962962962962963, 0.02962962962962963, 0.02962962962962963, 0.02962962962962963, 0.02962962962962963, 0.02962962962962963, 0.02962962962962963, 0.02962962962962963, 0.02962962962962963, 0.02962962962962963, 0.02962962962962963, 0.02962962962962963, 0.02962962962962963, 0.02962962962962963, 0.02962962962962963, 0.02962962962962963, 0.02962962962962963, 0.02962962962962963, 0.02962962962962963, 0.02962962962962963, 0.02962962962962963, 0.02962962962962963, 0.02962962962962963, 0.02962962962962963, 0.02962962962962963, 0.02962962962962963, 0.02962962962962963, 0.02962962962962963, 0.02962962962962963, 0.02962962962962963, 0.02962962962962963, 0.02962962962962963]"	"[-0.37222222222222223, -0.37222222222222223, -0.37222222222222223, -0.37222222222222223, -0.37222222222222223, -0.37222222222222223, -0.37222222222222223, -0.37222222222222223, -0.37222222222222223, -0.37222222222222223, -0.37222222222222223, -0.37222222222222223, -0.37222222222222223, -0.37222222222222223, -0.37222222222222223, -0.37222222222222223, -0.37222222222222223, -0.37222222222222223, -0.37222222222222223, -0.37222222222222223, -0.37222222222222223, -0.37222222222222223, -0.37222222222222223, -0.37222222222222223, -0.37222222222222223, -0.37222222222222223, -0.37222222222222223, -0.37222222222222223, -0.37222222222222223, -0.37222222222222223, -0.37222222222222223, -0.37222222222222223, -0.37222222222222223]"	"[1, 1, 1, 1, 1, 1, 1, 1, 1, 1, 1, 1, 1, 1, 1, 1, 1, 1, 1, 1, 1, 1, 1, 1, 1, 1, 1, 1, 1, 1, 1, 1, 0]"	"[0, 0, 0, 0, 0, 0, 0, 0, 0, 0, 0, 0, 0, 0, 0, 0, 0, 0, 0, 0, 0, 0, 0, 0, 0, 0, 0, 0, 0, 0, 0, 0, 0]"	"[0, 0, 0, 0, 0, 0, 0, 0, 0, 0, 0, 0, 0, 0, 0, 0, 0, 0, 0, 0, 0, 0, 0, 0, 0, 0, 0, 0, 0, 0, 0, 0, 1]"	"[0.3919741999125108, 0.5919537999434397, 0.7920038999291137, 1.0086499999742955, 1.2087751999497414, 1.425386399962008, 1.6754776999587193, 1.9005546999396756, 2.1508012999547645, 2.400413299910724, 2.633865399984643, 2.8671455999137834, 3.0922847000183538, 3.31731089996174, 3.5341750999214128, 3.7590443999506533, 3.983900099992752, 4.217350099934265, 4.442286200006492, 4.6505711999488994, 4.859185199951753, 5.100872399983928, 5.309105399996042, 5.550793799920939, 5.834090500022285, 6.242342400015332, 6.467378499917686, 6.70927919994574, 7.0676104999147356, 7.334244099911302, 7.6007786999689415, 7.967648999998346, 8.726196800009347]"	33	"[0.39009679993614554, 0.5900750999571756, 0.7901261999504641, 1.0067780999233946, 1.2068980999756604, 1.423506599967368, 1.6736014999914914, 1.898677199962549, 2.1489236999768764, 2.398537699948065, 2.6319886000128463, 2.8652709999587387, 3.090407299925573, 3.31543319998309, 3.532297599944286, 3.7571643999544904, 3.982026799931191, 4.21547549997922, 4.440411499934271, 4.648690799949691, 4.8573072999715805, 5.0989968999056146, 5.307230299920775, 5.548919999971986, 5.832212599925697, 6.2404623999027535, 6.4654994999291375, 6.707401599967852, 7.065737099968828, 7.332368399947882, 7.5989049999043345, 7.965774799929932, 8.724257499910891]"	"[0.48167719994671643, 0.6732792999828234, 0.8732822999591008, 1.090051000006497, 1.2899818998994306, 1.5316429999656975, 1.7650066999485716, 2.006713300012052, 2.2567121000029147, 2.498542599962093, 2.7400888999691233, 2.965083299903199, 3.198442899971269, 3.423467099899426, 3.6234814999625087, 3.8486030999338254, 4.07350860000588, 4.298515799921006, 4.515322599909268, 4.74868959991727, 4.957082199980505, 5.181951200007461, 5.406929499935359, 5.665303299902007, 5.923690199968405, 6.331994600011967, 6.573678799904883, 6.78203979996033, 7.157061800011434, 7.407285899971612, 7.673754299990833, 8.040564099908806, 8.72426159994211]"	266.45971899991855	266.4650239999173	267.95693509990815	267.9650998999132								24	01	2024-02-15_13h05.33.990	BART_exp	2023.2.3	120.01949120200969	2024-02-15 13h05.45.326345 +0100	
balloon.png	31	0	28	28	7	267.9650998999132													267.95711439999286	267.9650998999132	267.9650998999132	267.9650998999132	267.9650998999132	267.9650998999132	0.005441199988126755	0.005441199988126755	0.005441199988126755	267.9650998999132	275.10924469993915	32	1.55	True	"[0.02962962962962963, 0.02962962962962963, 0.02962962962962963, 0.02962962962962963, 0.02962962962962963, 0.02962962962962963, 0.03148148148148148, 0.03148148148148148, 0.03148148148148148, 0.03148148148148148, 0.03148148148148148, 0.032407407407407406, 0.032407407407407406, 0.032407407407407406, 0.032407407407407406, 0.032407407407407406, 0.032407407407407406, 0.032407407407407406, 0.032407407407407406, 0.032407407407407406, 0.032407407407407406, 0.032407407407407406, 0.032407407407407406, 0.032407407407407406, 0.032407407407407406, 0.032407407407407406, 0.032407407407407406, 0.032407407407407406, 0.032407407407407406, 0.032407407407407406, 0.032407407407407406, 0.032407407407407406]"	"[-0.37222222222222223, -0.37222222222222223, -0.37222222222222223, -0.37222222222222223, -0.37222222222222223, -0.37222222222222223, -0.37222222222222223, -0.37222222222222223, -0.37222222222222223, -0.37222222222222223, -0.37222222222222223, -0.37222222222222223, -0.37222222222222223, -0.37222222222222223, -0.37222222222222223, -0.37222222222222223, -0.37222222222222223, -0.37222222222222223, -0.37222222222222223, -0.37222222222222223, -0.37222222222222223, -0.37222222222222223, -0.37222222222222223, -0.37222222222222223, -0.37222222222222223, -0.37222222222222223, -0.37222222222222223, -0.37222222222222223, -0.37222222222222223, -0.37222222222222223, -0.37222222222222223, -0.37222222222222223]"	"[1, 1, 1, 1, 1, 1, 1, 1, 1, 1, 1, 1, 1, 1, 1, 1, 1, 1, 1, 1, 1, 1, 1, 1, 1, 1, 1, 1, 1, 1, 1, 1]"	"[0, 0, 0, 0, 0, 0, 0, 0, 0, 0, 0, 0, 0, 0, 0, 0, 0, 0, 0, 0, 0, 0, 0, 0, 0, 0, 0, 0, 0, 0, 0, 0]"	"[0, 0, 0, 0, 0, 0, 0, 0, 0, 0, 0, 0, 0, 0, 0, 0, 0, 0, 0, 0, 0, 0, 0, 0, 0, 0, 0, 0, 0, 0, 0, 0]"	"[0.31717379996553063, 0.5255047000246122, 0.7587080000666901, 0.9420458000386134, 1.1670633000321686, 1.3754553999751806, 1.5920977999921888, 1.8004291000543162, 2.025501500000246, 2.2507952000014484, 2.4757762000663206, 2.6925569999730214, 2.9256925999652594, 3.1340170999756083, 3.342364800046198, 3.5673121999716386, 3.79225239995867, 4.017299300059676, 4.208967400016263, 4.434073599986732, 4.650925399968401, 4.892540800035931, 5.109147800016217, 5.3176728000398725, 5.550714200013317, 5.7590450999559835, 5.959071099990979, 6.167447800049558, 6.4090854000533, 6.617634700029157, 6.82591939996928, 7.042611300013959]"	32	"[0.3153160000219941, 0.5236457000719383, 0.7568486999953166, 0.9401849000714719, 1.1652027000673115, 1.3735957000171766, 1.5902450999710709, 1.7985676999669522, 2.0236404000315815, 2.2489375000586733, 2.4739261000650004, 2.690701200044714, 2.9238331000087783, 3.1321599000366405, 3.340507199987769, 3.565451300004497, 3.790398900047876, 4.0154381999745965, 4.20711050007958, 4.432210200000554, 4.649091099970974, 4.890682899975218, 5.107289500068873, 5.315814099973068, 5.548858299967833, 5.757187000010163, 5.957213200046681, 6.165586300077848, 6.40722429996822, 6.615787500049919, 6.82406000001356, 7.040754200075753]"	"[0.4234445000765845, 0.640058399992995, 0.8650556000648066, 1.0483653000555933, 1.2567109999945387, 1.4650659000035375, 1.690124300075695, 1.8901108000427485, 2.1068206999916583, 2.331895900075324, 2.565206600003876, 2.7985398999881, 3.015228800009936, 3.2152535000350326, 3.440326299984008, 3.665313999983482, 3.890249800053425, 4.090280600008555, 4.323596099973656, 4.540523600066081, 4.757015899987891, 4.998670400003903, 5.198671799967997, 5.424063300015405, 5.640406199963763, 5.848709900048561, 6.0570897000143304, 6.273778200033121, 6.490427399985492, 6.70712989999447, 6.915462900069542, 7.140522600035183]"	275.1107772999676	275.11571749998257	276.6075806999579	276.6156930999132								24	01	2024-02-15_13h05.33.990	BART_exp	2023.2.3	120.01949120200969	2024-02-15 13h05.45.326345 +0100	
balloon.png	14	0	29	29	3	276.6156930999132													276.6077633999521	276.6156930999132	276.6156930999132	276.6156930999132	276.6156930999132	276.6156930999132	0.004975500050932169			276.6156930999132	280.74283859995194	15	0.70	True	"[0.03425925925925926, 0.03425925925925926, 0.03425925925925926, 0.03425925925925926, 0.03425925925925926, 0.03425925925925926, 0.03425925925925926, 0.03425925925925926, 0.03425925925925926, 0.03425925925925926, 0.03425925925925926, 0.03425925925925926, 0.03425925925925926, 0.03425925925925926, 0.03425925925925926]"	"[-0.38425925925925924, -0.38425925925925924, -0.38425925925925924, -0.38425925925925924, -0.38425925925925924, -0.38425925925925924, -0.38425925925925924, -0.38425925925925924, -0.38425925925925924, -0.38425925925925924, -0.38425925925925924, -0.38425925925925924, -0.38425925925925924, -0.38425925925925924, -0.38425925925925924]"	"[1, 1, 1, 1, 1, 1, 1, 1, 1, 1, 1, 1, 1, 1, 1]"	"[0, 0, 0, 0, 0, 0, 0, 0, 0, 0, 0, 0, 0, 0, 0]"	"[0, 0, 0, 0, 0, 0, 0, 0, 0, 0, 0, 0, 0, 0, 0]"	"[0.5587885000277311, 0.7754144000355154, 1.0087985000573099, 1.575513800024055, 1.800511300098151, 2.075450800010003, 2.3007377000758424, 2.5254309000447392, 2.7672233000630513, 2.983918600017205, 3.20062850008253, 3.392294800025411, 3.5923960000509396, 3.8173843000549823, 4.034019300015643]"	15	"[0.5568968000588939, 0.7735040000407025, 1.0068920999765396, 1.5736084000673145, 1.7986042000120506, 2.0735414000228047, 2.2988334000110626, 2.5235212000552565, 2.765317599987611, 2.982009300030768, 3.1987222000025213, 3.390384600032121, 3.5904913999838755, 3.815483700018376, 4.032109100022353]"	"[0.656611500075087, 0.8732274000067264, 1.106647500069812, 1.6733251999830827, 1.898316300008446, 2.1650124000152573, 2.4067147000459954, 2.6401376000139862, 2.8817764000268653, 3.0984285000013188, 3.3067815999966115, 3.523568300064653, 3.7067822000244632, 3.915104000014253, 4.1234736000187695]"	280.743624499999	280.7493238999741	282.2412772999378	282.24942519993056								24	01	2024-02-15_13h05.33.990	BART_exp	2023.2.3	120.01949120200969	2024-02-15 13h05.45.326345 +0100	
																																														282.2413134999806	282.24942519993056	282.24942519993056	291.75890359992627	space	9.501100599998608	None	24	01	2024-02-15_13h05.33.990	BART_exp	2023.2.3	120.01949120200969	2024-02-15 13h05.45.326345 +0100	
