image	max_pumps	pump_loop.thisRepN	pump_loop.thisTrialN	pump_loop.thisN	pump_loop.thisIndex	thisRow.t	notes	Start.started	text_start.started	continue_start.started	mouse_start.started	Start.stopped	mouse_start.x	mouse_start.y	mouse_start.leftButton	mouse_start.midButton	mouse_start.rightButton	mouse_start.time	trials.started	stim_balloon.started	stim_balloon_burst.started	stim_balloon_burst.stopped	text_ballon_value.started	text_bank.started	mouse.started	sound_bang.started	sound_bang.stopped	button_balloon.started	trials.stopped	n_pumps	earnings	popped	mouse.x	mouse.y	mouse.leftButton	mouse.midButton	mouse.rightButton	mouse.time	button_balloon.numClicks	button_balloon.timesOn	button_balloon.timesOff	Feedback.started	text_feedback.started	Feedback.stopped	text_feedback.stopped	End.started	text_end.started	key_end.started	End.stopped	key_end.keys	key_end.rt	key_end.duration	participant	session	date	expName	psychopyVersion	frameRate	expStart	
								0.03722819999893545	0.04580759999953443	0.04580759999953443	0.03754990000015823	44.69953979999991	[0.6564814814814814]	[-0.4166666666666667]	[1]	[0]	[0]	[44.66139570000087]																																			18	01	2024-02-08_15h07.20.116	BART_exp	2023.2.3	119.97917161259792	2024-02-08 15h07.35.586734 +0100	
balloon.png	31	0	0	0	7	44.765607499997714													44.70704420000038	44.765607499997714	44.765607499997714	44.765607499997714	44.765607499997714	44.765607499997714	0.009086899997782893	0.009086899997782893	0.009086899997782893	44.765607499997714	54.19309570000041	20	1.00	False	"[-0.005555555555555556, -0.005555555555555556, -0.005555555555555556, -0.005555555555555556, -0.005555555555555556, -0.005555555555555556, -0.005555555555555556, -0.005555555555555556, -0.005555555555555556, -0.005555555555555556, -0.005555555555555556, -0.005555555555555556, -0.005555555555555556, -0.005555555555555556, -0.005555555555555556, -0.005555555555555556, -0.005555555555555556, -0.005555555555555556, -0.005555555555555556, -0.005555555555555556, 0.0824074074074074]"	"[-0.3962962962962963, -0.3962962962962963, -0.3962962962962963, -0.3962962962962963, -0.3962962962962963, -0.3962962962962963, -0.3962962962962963, -0.3962962962962963, -0.3962962962962963, -0.3962962962962963, -0.3962962962962963, -0.3962962962962963, -0.3962962962962963, -0.3962962962962963, -0.3962962962962963, -0.3962962962962963, -0.3962962962962963, -0.3962962962962963, -0.3962962962962963, -0.3962962962962963, -0.1398148148148148]"	"[1, 1, 1, 1, 1, 1, 1, 1, 1, 1, 1, 1, 1, 1, 1, 1, 1, 1, 1, 1, 0]"	"[0, 0, 0, 0, 0, 0, 0, 0, 0, 0, 0, 0, 0, 0, 0, 0, 0, 0, 0, 0, 0]"	"[0, 0, 0, 0, 0, 0, 0, 0, 0, 0, 0, 0, 0, 0, 0, 0, 0, 0, 0, 0, 1]"	"[2.034341900001891, 2.5260957999998936, 2.892880100000184, 3.101229500000045, 3.3346087999998417, 3.6344291000023077, 3.934607999999571, 4.517987200000789, 4.751189900001918, 4.959532000000763, 5.1762253000015335, 5.592895600002521, 5.976263300002756, 6.409618699999555, 6.743137100002059, 7.101524500001688, 7.4348530999996, 7.784745100001601, 8.084911900001316, 8.476768300002732, 9.485115100000257]"	20	"[1.9850275999997393, 2.476783999998588, 2.84356470000057, 3.0519237000007706, 3.28529669999989, 3.5851101000007475, 3.8852915999996185, 4.468669499998214, 4.701872400000866, 4.910216500000388, 5.126910599999974, 5.543575699997746, 5.926942300000519, 6.360300099997403, 6.693818100000499, 7.052219099998183, 7.385534000000916, 7.735432800000126, 8.035598099999333, 8.427458099999058]"	"[2.1015275999998266, 2.58491739999954, 2.960075399998459, 3.1682776999987254, 3.401624999998603, 3.7101182000005792, 3.9849982999985514, 4.576743599998736, 4.810069200000726, 5.0183895000009215, 5.235172599997895, 5.626800699999876, 6.026990999998816, 6.460285499997553, 6.793506199999683, 7.160290299998451, 7.501900999999634, 7.852119700000912, 8.152116499997646, 8.535339599999133]"	54.19466309999916	54.20786539999972	55.69974110000112									18	01	2024-02-08_15h07.20.116	BART_exp	2023.2.3	119.97917161259792	2024-02-08 15h07.35.586734 +0100	
balloon.png	127	0	1	1	29	55.71637899999769													55.69991630000004	55.71637899999769	55.71637899999769	55.71637899999769	55.71637899999769	55.71637899999769	0.0064354999994975515	0.0064354999994975515	0.0064354999994975515	55.71637899999769	68.10210659999939	30	1.50	False	"[0.05092592592592592, 0.05092592592592592, 0.05092592592592592, 0.05092592592592592, 0.05092592592592592, 0.05092592592592592, 0.05092592592592592, 0.05092592592592592, 0.05092592592592592, 0.05092592592592592, 0.05092592592592592, 0.05092592592592592, 0.05092592592592592, 0.05092592592592592, 0.05092592592592592, 0.05092592592592592, 0.05092592592592592, 0.05092592592592592, 0.05092592592592592, 0.05092592592592592, 0.05092592592592592, 0.05092592592592592, 0.05092592592592592, 0.05092592592592592, 0.05092592592592592, 0.05092592592592592, 0.05092592592592592, 0.05092592592592592, 0.05092592592592592, 0.05092592592592592, 0.09444444444444444]"	"[-0.3712962962962963, -0.3712962962962963, -0.3712962962962963, -0.3712962962962963, -0.3712962962962963, -0.3712962962962963, -0.3712962962962963, -0.3712962962962963, -0.3712962962962963, -0.3712962962962963, -0.3712962962962963, -0.3712962962962963, -0.3712962962962963, -0.3712962962962963, -0.3712962962962963, -0.3712962962962963, -0.3712962962962963, -0.3712962962962963, -0.3712962962962963, -0.3712962962962963, -0.3712962962962963, -0.3712962962962963, -0.3712962962962963, -0.3712962962962963, -0.3712962962962963, -0.3712962962962963, -0.3712962962962963, -0.3712962962962963, -0.3712962962962963, -0.3712962962962963, -0.17222222222222222]"	"[1, 1, 1, 1, 1, 1, 1, 1, 1, 1, 1, 1, 1, 1, 1, 1, 1, 1, 1, 1, 1, 1, 1, 1, 1, 1, 1, 1, 1, 1, 0]"	"[0, 0, 0, 0, 0, 0, 0, 0, 0, 0, 0, 0, 0, 0, 0, 0, 0, 0, 0, 0, 0, 0, 0, 0, 0, 0, 0, 0, 0, 0, 0]"	"[0, 0, 0, 0, 0, 0, 0, 0, 0, 0, 0, 0, 0, 0, 0, 0, 0, 0, 0, 0, 0, 0, 0, 0, 0, 0, 0, 0, 0, 0, 1]"	"[0.7423318000001018, 1.2088872999993328, 1.5257246999972267, 1.9007693999992625, 2.2255968999998004, 2.6676619999998366, 3.067553000000771, 3.425739300000714, 3.77572009999858, 4.200859599997784, 4.509272100000089, 4.967478899998241, 5.659532300000137, 5.967655000000377, 6.2013012999996135, 6.651148900000408, 6.9010887000004, 7.126094600000215, 7.392689099997369, 7.776145100000576, 8.351073699999688, 8.717905099998461, 9.034581199997774, 9.40961999999854, 9.734521099999256, 10.142848799998319, 10.476433899999392, 10.876506199998403, 11.293066199999885, 11.676422699998511, 12.401302700000087]"	30	"[0.7352826000023924, 1.201829000001453, 1.5186758000018017, 1.8937119000001985, 2.218544000003021, 2.6606083000006038, 3.0604976000031456, 3.418685300002835, 3.7686689000001934, 4.193803300000582, 4.502219800000603, 4.960421900002984, 5.652476500003104, 5.960602000002837, 6.194255400001566, 6.644095600000583, 6.894029000002774, 7.119034600000305, 7.385640500000591, 7.769091900001513, 8.344018300002062, 8.710852700001851, 9.027523200002179, 9.402560300000914, 9.727461000002222, 10.1357917000023, 10.469379600002867, 10.869451900001877, 11.286011100000906, 11.669361200001731]"	"[0.8518253000002005, 1.301647200001753, 1.6433706000025268, 2.0267203000003065, 2.326744100002543, 2.7684329000003345, 3.1768525000006775, 3.551810700002534, 3.8685088000020187, 4.318521600001986, 4.626933700001246, 5.085252500000934, 5.818656700001156, 6.0692039000023215, 6.302024500000698, 6.78537690000303, 7.010415000000648, 7.227077100000315, 7.527194100002816, 7.902127800000017, 8.477239600000757, 8.827186000002257, 9.127240100002382, 9.51893360000031, 9.843917400001374, 10.25234249999994, 10.594008800002484, 10.977321800000936, 11.385694400003558, 11.785741300001973]"	68.10324290000062	68.10893489999944	69.60092609999992	69.6173889999991								18	01	2024-02-08_15h07.20.116	BART_exp	2023.2.3	119.97917161259792	2024-02-08 15h07.35.586734 +0100	
balloon.png	44	0	2	2	10	69.6173889999991													69.60111179999876	69.6173889999991	69.6173889999991	69.6173889999991	69.6173889999991	69.6173889999991	-0.0008116999997582752	-0.0008116999997582752	-0.0008116999997582752	69.6173889999991	80.96170499999789	30	1.50	False	"[0.03425925925925926, 0.03425925925925926, 0.03425925925925926, 0.03425925925925926, 0.03425925925925926, 0.03425925925925926, 0.03425925925925926, 0.03425925925925926, 0.03425925925925926, 0.03425925925925926, 0.03425925925925926, 0.03425925925925926, 0.03425925925925926, 0.03425925925925926, 0.03425925925925926, 0.03425925925925926, 0.03425925925925926, 0.03425925925925926, 0.03425925925925926, 0.03425925925925926, 0.03425925925925926, 0.03425925925925926, 0.03425925925925926, 0.03425925925925926, 0.03425925925925926, 0.03425925925925926, 0.03425925925925926, 0.03425925925925926, 0.03425925925925926, 0.03425925925925926, 0.08703703703703704]"	"[-0.3814814814814815, -0.3814814814814815, -0.3814814814814815, -0.3814814814814815, -0.3814814814814815, -0.3814814814814815, -0.3814814814814815, -0.3814814814814815, -0.3814814814814815, -0.3814814814814815, -0.3814814814814815, -0.3814814814814815, -0.3814814814814815, -0.3814814814814815, -0.3814814814814815, -0.3814814814814815, -0.3814814814814815, -0.3814814814814815, -0.3814814814814815, -0.3814814814814815, -0.3814814814814815, -0.3814814814814815, -0.3814814814814815, -0.3814814814814815, -0.3814814814814815, -0.3814814814814815, -0.3814814814814815, -0.3814814814814815, -0.3814814814814815, -0.3814814814814815, -0.2]"	"[1, 1, 1, 1, 1, 1, 1, 1, 1, 1, 1, 1, 1, 1, 1, 1, 1, 1, 1, 1, 1, 1, 1, 1, 1, 1, 1, 1, 1, 1, 0]"	"[0, 0, 0, 0, 0, 0, 0, 0, 0, 0, 0, 0, 0, 0, 0, 0, 0, 0, 0, 0, 0, 0, 0, 0, 0, 0, 0, 0, 0, 0, 0]"	"[0, 0, 0, 0, 0, 0, 0, 0, 0, 0, 0, 0, 0, 0, 0, 0, 0, 0, 0, 0, 0, 0, 0, 0, 0, 0, 0, 0, 0, 0, 1]"	"[0.7086302000025171, 0.9254060999992362, 1.1337693999994372, 1.3338667999996687, 1.5255429999997432, 1.7505415000014182, 2.3422049000000698, 2.750592399999732, 3.0588430000025255, 3.3172617000018363, 3.63387910000165, 3.9591446000013093, 4.25886299999911, 4.67564670000138, 4.984046800000215, 5.209060000001045, 5.56750920000195, 5.9508091999996395, 6.39257329999964, 6.709255900001153, 7.0688891999998305, 7.367615700000897, 7.784294900000532, 8.184423300001072, 8.584441999999399, 8.934356600002502, 9.28418629999942, 9.709452200000669, 10.209277699999802, 10.65932679999969, 11.359674700001051]"	30	"[0.7031838000002608, 0.9199600000029022, 1.1283238000032725, 1.328419000001304, 1.5200957000015478, 1.7450954000014463, 2.336757300003228, 2.7451457000024675, 3.0534011000017927, 3.311814600001526, 3.6284271000004082, 3.953696900000068, 4.253411900001083, 4.670200399999885, 4.97859530000278, 5.203612600002089, 5.562060600001132, 5.945360400000936, 6.387127600002714, 6.703809100003127, 7.063598700002331, 7.3621730000013486, 7.778850100003183, 8.1789783000022, 8.578996400003234, 8.928908900001261, 9.278741100002662, 9.70400200000222, 10.203830900001776, 10.65387710000141]"	"[0.8113654000007955, 1.0280108000006294, 1.2364065000001574, 1.4364211000029172, 1.6364029000033042, 1.8864107000008516, 2.4614672000025166, 2.8614868000004208, 3.1698364000003494, 3.453208500002802, 3.7365731000027154, 4.078247500001453, 4.394952300001023, 4.795077500002662, 5.044978400001128, 5.311639800002013, 5.728338200002327, 6.061701600003289, 6.5284139000032155, 6.820319600003131, 7.203601100001833, 7.486802300001727, 7.886984500000835, 8.311954600001627, 8.678542700003163, 9.028655900001468, 9.395259900000383, 9.803727500002424, 10.336985700003424, 10.820399700001872]"	80.9631276	80.96818789999816	82.46010419999948	82.46825629999876								18	01	2024-02-08_15h07.20.116	BART_exp	2023.2.3	119.97917161259792	2024-02-08 15h07.35.586734 +0100	
balloon.png	5	0	3	3	1	82.46825629999876													82.46027930000128	82.46825629999876	82.46825629999876	82.46825629999876	82.46825629999876	82.46825629999876	0.005189600000448991	0.005189600000448991	0.005189600000448991	82.46825629999876	85.26202569999805	6	0.25	True	"[0.002777777777777778, 0.002777777777777778, 0.002777777777777778, 0.002777777777777778, 0.002777777777777778, 0.002777777777777778]"	"[-0.37962962962962965, -0.37962962962962965, -0.37962962962962965, -0.37962962962962965, -0.37962962962962965, -0.37962962962962965]"	"[1, 1, 1, 1, 1, 1]"	"[0, 0, 0, 0, 0, 0]"	"[0, 0, 0, 0, 0, 0]"	"[0.5255280000019411, 1.0172308000001067, 1.4422067000014067, 1.7754358000020147, 2.2340738000020792, 2.625673900001857]"	6	"[0.5237095999982557, 1.015412099997775, 1.4403875999996671, 1.7736125999981596, 2.2322587999988173, 2.623854299999948]"	"[0.6150460999997449, 1.098595799998293, 1.5400939999999537, 1.881922199998371, 2.340198699999746, 2.7902102999978524]"	85.26271690000067	85.27678829999786	86.76861289999943									18	01	2024-02-08_15h07.20.116	BART_exp	2023.2.3	119.97917161259792	2024-02-08 15h07.35.586734 +0100	
balloon.png	36	0	4	4	8	86.78521980000005													86.76879689999987	86.78521980000005	86.78521980000005	86.78521980000005	86.78521980000005	86.78521980000005	0.007331299999350449	0.007331299999350449	0.007331299999350449	86.78521980000005	102.1712211999984	30	1.50	False	"[0.002777777777777778, 0.002777777777777778, 0.002777777777777778, 0.002777777777777778, 0.002777777777777778, 0.002777777777777778, 0.002777777777777778, 0.002777777777777778, 0.002777777777777778, 0.002777777777777778, 0.002777777777777778, 0.002777777777777778, 0.002777777777777778, 0.002777777777777778, 0.002777777777777778, 0.002777777777777778, 0.002777777777777778, 0.002777777777777778, 0.002777777777777778, 0.002777777777777778, 0.002777777777777778, 0.002777777777777778, 0.002777777777777778, 0.002777777777777778, 0.002777777777777778, 0.002777777777777778, 0.002777777777777778, 0.002777777777777778, 0.002777777777777778, 0.002777777777777778, 0.012962962962962963]"	"[-0.3824074074074074, -0.3824074074074074, -0.3824074074074074, -0.3824074074074074, -0.3824074074074074, -0.3824074074074074, -0.3824074074074074, -0.3824074074074074, -0.3824074074074074, -0.3824074074074074, -0.3824074074074074, -0.3824074074074074, -0.3824074074074074, -0.3824074074074074, -0.3824074074074074, -0.3824074074074074, -0.3824074074074074, -0.3824074074074074, -0.3824074074074074, -0.3824074074074074, -0.3824074074074074, -0.3824074074074074, -0.3824074074074074, -0.3824074074074074, -0.3824074074074074, -0.3824074074074074, -0.3824074074074074, -0.3824074074074074, -0.3824074074074074, -0.3824074074074074, -0.2222222222222222]"	"[1, 1, 1, 1, 1, 1, 1, 1, 1, 1, 1, 1, 1, 1, 1, 1, 1, 1, 1, 1, 1, 1, 1, 1, 1, 1, 1, 1, 1, 1, 0]"	"[0, 0, 0, 0, 0, 0, 0, 0, 0, 0, 0, 0, 0, 0, 0, 0, 0, 0, 0, 0, 0, 0, 0, 0, 0, 0, 0, 0, 0, 0, 0]"	"[0, 0, 0, 0, 0, 0, 0, 0, 0, 0, 0, 0, 0, 0, 0, 0, 0, 0, 0, 0, 0, 0, 0, 0, 0, 0, 0, 0, 0, 0, 1]"	"[0.9006769999978133, 1.300478799999837, 1.6588667999967583, 2.0505293999995047, 2.409084199996869, 2.7006958999991184, 3.09234689999721, 3.4506852999984403, 3.8923376999991888, 4.292484999998123, 4.725857699999324, 5.22579069999847, 5.642475199998444, 6.067511299999751, 6.517776599997887, 6.909352899998339, 7.326049899998907, 7.74279899999965, 8.26768059999813, 8.734570699998585, 9.34287519999998, 9.959598699999333, 10.476148899997497, 10.901486599999771, 11.334692599997652, 11.759774299996934, 12.25126729999829, 12.65963019999981, 13.468196399997396, 14.343302199999016, 15.401498699997319]"	30	"[0.892845499998657, 1.2926184999996622, 1.6510135999997146, 2.042673799998738, 2.4012251000021934, 2.692835699999705, 3.084496700001182, 3.4428307999987737, 3.884482699999353, 4.284625399999641, 4.718004000002111, 5.2179386999996495, 5.634618100000807, 6.059655900000507, 6.509925099999236, 6.90149300000121, 7.3181904000011855, 7.734943999999814, 8.259832499999902, 8.726718099998834, 9.335017199999129, 9.951744800000597, 10.468290900000284, 10.893626900000527, 11.326838100001623, 11.75191730000006, 12.243410999999469, 12.651771799999551, 13.46034299999883, 14.335450800001126]"	"[1.0091772000014316, 1.3841467000020202, 1.7591848000010941, 2.1175207999986014, 2.5008816000008665, 2.8010099999992235, 3.1843718999989505, 3.5426432000022032, 4.009332400000858, 4.401018799999292, 4.842711600002076, 5.334431200000836, 5.760907200001384, 6.192844100001821, 6.642848800001957, 7.017967300002056, 7.434606300001178, 7.842926100001932, 8.3679587000006, 8.884816000001592, 9.451415200001065, 10.051418600000034, 10.576555700001336, 11.00159580000036, 11.460099200001423, 11.91820430000007, 12.343249900000956, 12.776615200000379, 13.60167999999976, 14.468456499998865]"	102.17232869999862	102.17798050000056	103.66997619999893	103.6864416999997								18	01	2024-02-08_15h07.20.116	BART_exp	2023.2.3	119.97917161259792	2024-02-08 15h07.35.586734 +0100	
balloon.png	101	0	5	5	23	103.6864416999997													103.6701565000003	103.6864416999997	103.6864416999997	103.6864416999997	103.6864416999997	103.6864416999997	-0.00083710000035353	-0.00083710000035353	-0.00083710000035353	103.6864416999997	116.92245159999948	30	1.50	False	"[0.004629629629629629, 0.004629629629629629, 0.004629629629629629, 0.004629629629629629, 0.004629629629629629, 0.004629629629629629, 0.004629629629629629, 0.004629629629629629, 0.004629629629629629, 0.004629629629629629, 0.004629629629629629, 0.004629629629629629, 0.004629629629629629, 0.004629629629629629, 0.004629629629629629, 0.004629629629629629, 0.004629629629629629, 0.004629629629629629, 0.004629629629629629, 0.004629629629629629, 0.004629629629629629, 0.004629629629629629, 0.004629629629629629, 0.004629629629629629, 0.004629629629629629, 0.004629629629629629, 0.004629629629629629, 0.004629629629629629, 0.004629629629629629, 0.004629629629629629, 0.008333333333333333]"	"[-0.36666666666666664, -0.36666666666666664, -0.36666666666666664, -0.36666666666666664, -0.36666666666666664, -0.36666666666666664, -0.36666666666666664, -0.36666666666666664, -0.36666666666666664, -0.36666666666666664, -0.36666666666666664, -0.36666666666666664, -0.36666666666666664, -0.36666666666666664, -0.36666666666666664, -0.36666666666666664, -0.36666666666666664, -0.36666666666666664, -0.36666666666666664, -0.36666666666666664, -0.36666666666666664, -0.36666666666666664, -0.36666666666666664, -0.36666666666666664, -0.36666666666666664, -0.36666666666666664, -0.36666666666666664, -0.36666666666666664, -0.36666666666666664, -0.36666666666666664, -0.24537037037037038]"	"[1, 1, 1, 1, 1, 1, 1, 1, 1, 1, 1, 1, 1, 1, 1, 1, 1, 1, 1, 1, 1, 1, 1, 1, 1, 1, 1, 1, 1, 1, 0]"	"[0, 0, 0, 0, 0, 0, 0, 0, 0, 0, 0, 0, 0, 0, 0, 0, 0, 0, 0, 0, 0, 0, 0, 0, 0, 0, 0, 0, 0, 0, 0]"	"[0, 0, 0, 0, 0, 0, 0, 0, 0, 0, 0, 0, 0, 0, 0, 0, 0, 0, 0, 0, 0, 0, 0, 0, 0, 0, 0, 0, 0, 0, 1]"	"[0.5754116000025533, 0.9420318000011321, 1.3087082000020018, 1.5586502000005567, 1.825548400000116, 2.2505762000000686, 2.708712800002104, 3.1837579000020924, 3.5671460000012303, 3.9504775000023074, 4.5171771000023, 4.800747699999192, 5.050755399999616, 5.459091900000203, 5.859111900001153, 6.133967000001576, 6.750727300001017, 7.217569399999775, 7.692434600001434, 8.067654800001037, 8.475960899999336, 8.78442619999987, 9.19269880000138, 9.550919400000566, 9.90922910000154, 10.334318400000484, 10.734312900000077, 11.176165299999411, 11.659546999999293, 12.109392800000933, 13.251368100001855]"	30	"[0.5686066000016581, 0.9351850999992166, 1.3018617999987327, 1.5518025999990641, 1.8186992000009923, 2.2437290999987454, 2.701866899999004, 3.176913899998908, 3.5602930999993987, 3.9436241000003065, 4.510328799999115, 4.793901900000492, 5.043907700001, 5.45224479999888, 5.852270300001692, 6.127118700002029, 6.743880199999694, 7.210727000001498, 7.685590199998842, 8.060805799999798, 8.469110199999704, 8.777579500001593, 9.185851099999127, 9.54407429999992, 9.90237740000157, 10.327465000002121, 10.727461300000869, 11.169314999999187, 11.65269679999983, 12.102543500001048]"	"[0.6349116000019421, 1.0349897999985842, 1.4016719999999623, 1.6684887000010349, 1.9516738000020268, 2.3767337999997835, 2.835114400000748, 3.3017816999999923, 3.6851472000016656, 4.068488000000798, 4.593531800001074, 4.926959700002044, 5.152019900000596, 5.568585900000471, 5.968744300000253, 6.26053150000007, 6.860347500001808, 7.343840199999249, 7.810464199999842, 8.185464900001534, 8.610476900001231, 8.927193600000464, 9.343852699999843, 9.710593300002074, 10.035571700002038, 10.443928400000004, 10.860624900000403, 11.31067940000139, 11.769026699999813, 12.235732199998893]"	116.92358909999894	116.92903459999798	118.42097089999879	118.42911169999934								18	01	2024-02-08_15h07.20.116	BART_exp	2023.2.3	119.97917161259792	2024-02-08 15h07.35.586734 +0100	
balloon.png	18	0	6	6	4	118.42911169999934													118.42114329999822	118.42911169999934	118.42911169999934	118.42911169999934	118.42911169999934	118.42911169999934	0.005583900001511211	0.005583900001511211	0.005583900001511211	118.42911169999934	125.7482577999981	19	0.90	True	"[0.004629629629629629, 0.004629629629629629, 0.004629629629629629, 0.004629629629629629, 0.004629629629629629, 0.004629629629629629, 0.004629629629629629, 0.004629629629629629, 0.004629629629629629, 0.004629629629629629, 0.004629629629629629, 0.004629629629629629, 0.004629629629629629, 0.004629629629629629, 0.004629629629629629, 0.004629629629629629, 0.004629629629629629, 0.004629629629629629, 0.004629629629629629]"	"[-0.3648148148148148, -0.3648148148148148, -0.3648148148148148, -0.3648148148148148, -0.3648148148148148, -0.3648148148148148, -0.3648148148148148, -0.3648148148148148, -0.3648148148148148, -0.3648148148148148, -0.3648148148148148, -0.3648148148148148, -0.3648148148148148, -0.3648148148148148, -0.3648148148148148, -0.3648148148148148, -0.3648148148148148, -0.3648148148148148, -0.3648148148148148]"	"[1, 1, 1, 1, 1, 1, 1, 1, 1, 1, 1, 1, 1, 1, 1, 1, 1, 1, 1]"	"[0, 0, 0, 0, 0, 0, 0, 0, 0, 0, 0, 0, 0, 0, 0, 0, 0, 0, 0]"	"[0, 0, 0, 0, 0, 0, 0, 0, 0, 0, 0, 0, 0, 0, 0, 0, 0, 0, 0]"	"[0.6921780000011495, 1.0505517000019609, 1.483925000000454, 1.8756389000009221, 2.2257589000000735, 2.617269900001702, 2.9171979000020656, 3.1673265999997966, 3.4089923999999883, 3.6924608000008448, 4.100751099998888, 4.417423400002008, 4.834117999998853, 5.217465599998832, 5.60076509999999, 6.025961399998778, 6.434273900002154, 6.825912700001936, 7.192456000000675]"	19	"[0.6903630000015255, 1.0487446000006457, 1.482116400002269, 1.8738297000018065, 2.2239661000021442, 2.615453999998863, 2.9153846000008343, 3.165512800002034, 3.407180900001549, 3.690654199999699, 4.098939200001041, 4.415609899999254, 4.832301499998721, 5.215667700002086, 5.598955400000705, 6.024159000000509, 6.432463199998892, 6.824099000001297, 7.190642300000036]"	"[0.8067129000010027, 1.1484086999989813, 1.5901010000015958, 1.9984648999998171, 2.356855000001815, 2.748524999999063, 3.04857500000071, 3.2902533000014955, 3.565502600002219, 3.832153399998788, 4.206948499999271, 4.5403107999991335, 4.95704200000182, 5.340383400001883, 5.715450600000622, 6.148748800002068, 6.5571579999996175, 6.9738174000012805, 7.315614700000879]"	125.74915089999922	125.75469059999887	127.2466585000002	127.26315089999844								18	01	2024-02-08_15h07.20.116	BART_exp	2023.2.3	119.97917161259792	2024-02-08 15h07.35.586734 +0100	
balloon.png	49	0	7	7	11	127.26315089999844													127.24683999999979	127.26315089999844	127.26315089999844	127.26315089999844	127.26315089999844	127.26315089999844	-0.0009737999971548561	-0.0009737999971548561	-0.0009737999971548561	127.26315089999844	139.83233420000033	30	1.50	False	"[-0.005555555555555556, -0.005555555555555556, -0.005555555555555556, -0.005555555555555556, -0.005555555555555556, -0.005555555555555556, -0.005555555555555556, -0.005555555555555556, -0.005555555555555556, -0.005555555555555556, -0.005555555555555556, -0.005555555555555556, -0.005555555555555556, -0.005555555555555556, -0.005555555555555556, -0.005555555555555556, -0.005555555555555556, -0.005555555555555556, -0.005555555555555556, -0.005555555555555556, -0.005555555555555556, -0.005555555555555556, -0.005555555555555556, -0.005555555555555556, -0.005555555555555556, -0.005555555555555556, -0.005555555555555556, -0.005555555555555556, -0.005555555555555556, -0.005555555555555556, 0.0]"	"[-0.37592592592592594, -0.37592592592592594, -0.37592592592592594, -0.37592592592592594, -0.37592592592592594, -0.37592592592592594, -0.37592592592592594, -0.37592592592592594, -0.37592592592592594, -0.37592592592592594, -0.37592592592592594, -0.37592592592592594, -0.37592592592592594, -0.37592592592592594, -0.37592592592592594, -0.37592592592592594, -0.37592592592592594, -0.37592592592592594, -0.37592592592592594, -0.37592592592592594, -0.37592592592592594, -0.37592592592592594, -0.37592592592592594, -0.37592592592592594, -0.37592592592592594, -0.37592592592592594, -0.37592592592592594, -0.37592592592592594, -0.37592592592592594, -0.37592592592592594, -0.22314814814814815]"	"[1, 1, 1, 1, 1, 1, 1, 1, 1, 1, 1, 1, 1, 1, 1, 1, 1, 1, 1, 1, 1, 1, 1, 1, 1, 1, 1, 1, 1, 1, 0]"	"[0, 0, 0, 0, 0, 0, 0, 0, 0, 0, 0, 0, 0, 0, 0, 0, 0, 0, 0, 0, 0, 0, 0, 0, 0, 0, 0, 0, 0, 0, 0]"	"[0, 0, 0, 0, 0, 0, 0, 0, 0, 0, 0, 0, 0, 0, 0, 0, 0, 0, 0, 0, 0, 0, 0, 0, 0, 0, 0, 0, 0, 0, 1]"	"[0.6587390999993659, 0.9754057999998622, 1.300267899998289, 1.6588195000003907, 1.9754804000003787, 2.342044299999543, 2.658881699997437, 3.000575599999138, 3.3504121999976633, 3.7756812000006903, 4.133797300000879, 4.417355300000054, 4.825919899998553, 5.225689099999727, 5.634069499999896, 6.192418399998132, 6.492295000000013, 6.917333900000813, 7.484041299998353, 7.934065699999337, 8.234257599997363, 8.592623399999866, 8.9174783999988, 9.292538599998807, 9.700842099999136, 10.10920989999795, 10.542569699999149, 10.959477000000334, 11.384477499999775, 11.776346399998147, 12.58454300000085]"	30	"[0.6491445999999996, 0.9658085000010033, 1.2906736000004457, 1.649227099998825, 1.965884900000674, 2.3324500000016997, 2.6492901999990863, 2.990984500000195, 3.3408138000013423, 3.7660872000014933, 4.12420370000109, 4.407767699998658, 4.816331500001979, 5.216092599999683, 5.624476199998753, 6.182820500001981, 6.4827006999985315, 6.9077369000006, 7.474450699999579, 7.924474100000225, 8.22466379999969, 8.583024399998976, 8.90788109999994, 9.282947100000456, 9.691242000000784, 10.099611900001037, 10.532967999999528, 10.94988050000029, 11.374880200000916, 11.766755600001488]"	"[0.7488172000012128, 1.0739199999989069, 1.3906010999999125, 1.7408615999993344, 2.091556800001854, 2.448937900000601, 2.7574086999993597, 3.1073217000011937, 3.4491766999999527, 3.8908203999999387, 4.232399399999849, 4.532530899999983, 4.9324603999994, 5.349240200001077, 5.749226200001431, 6.290858600001229, 6.615919399999257, 7.015944999999192, 7.582663299999695, 8.041216900001018, 8.357722199998534, 8.732855000002019, 9.01623870000185, 9.39941589999944, 9.799456900000223, 10.216134700000111, 10.674505300001329, 11.074542900001688, 11.507931399999507, 11.891947600001004]"	139.83360270000048	139.83895370000027	141.3309683999978	141.33907199999885								18	01	2024-02-08_15h07.20.116	BART_exp	2023.2.3	119.97917161259792	2024-02-08 15h07.35.586734 +0100	
balloon.png	23	0	8	8	5	141.33907199999885													141.33114990000104	141.33907199999885	141.33907199999885	141.33907199999885	141.33907199999885	141.33907199999885	0.005551999998715473	0.005551999998715473	0.005551999998715473	141.33907199999885	150.1833536999984	24	1.15	True	"[-0.005555555555555556, -0.005555555555555556, -0.005555555555555556, -0.005555555555555556, -0.005555555555555556, -0.005555555555555556, -0.005555555555555556, -0.005555555555555556, -0.005555555555555556, -0.005555555555555556, -0.005555555555555556, -0.005555555555555556, -0.005555555555555556, -0.005555555555555556, -0.005555555555555556, -0.005555555555555556, -0.005555555555555556, -0.005555555555555556, -0.005555555555555556, -0.005555555555555556, -0.005555555555555556, -0.005555555555555556, -0.005555555555555556, -0.005555555555555556]"	"[-0.39166666666666666, -0.39166666666666666, -0.39166666666666666, -0.39166666666666666, -0.39166666666666666, -0.39166666666666666, -0.39166666666666666, -0.39166666666666666, -0.39166666666666666, -0.39166666666666666, -0.39166666666666666, -0.39166666666666666, -0.39166666666666666, -0.39166666666666666, -0.39166666666666666, -0.39166666666666666, -0.39166666666666666, -0.39166666666666666, -0.39166666666666666, -0.39166666666666666, -0.39166666666666666, -0.39166666666666666, -0.39166666666666666, -0.39166666666666666]"	"[1, 1, 1, 1, 1, 1, 1, 1, 1, 1, 1, 1, 1, 1, 1, 1, 1, 1, 1, 1, 1, 1, 1, 1]"	"[0, 0, 0, 0, 0, 0, 0, 0, 0, 0, 0, 0, 0, 0, 0, 0, 0, 0, 0, 0, 0, 0, 0, 0]"	"[0, 0, 0, 0, 0, 0, 0, 0, 0, 0, 0, 0, 0, 0, 0, 0, 0, 0, 0, 0, 0, 0, 0, 0]"	"[0.6922642999998061, 1.0670446000003722, 1.3255134000028193, 1.5671502000004693, 1.808799700000236, 2.017008700000588, 2.2503986000010627, 2.542219999999361, 2.7921867000004568, 3.083935599999677, 3.4087804000009783, 3.800524800000858, 4.25903720000133, 4.559085299999424, 4.767371000001731, 5.067450000002282, 5.375595800000156, 5.833963400000357, 6.1354592999996385, 6.608988300002238, 7.17570600000181, 7.650927099999535, 8.167511200001172, 8.719187900001998]"	23	"[0.6902377000005799, 1.3234919999995327, 1.565118700000312, 1.8067661999994016, 2.0149796000005153, 2.2483662000013283, 2.5401925000005576, 2.7901629000007233, 3.0819064999996044, 3.406747799999721, 3.7984954999992624, 4.25700549999965, 4.557057900001382, 4.765340999998443, 5.065418599999248, 5.37357129999873, 5.831934300000285, 6.133606200000941, 6.606958299998951, 7.1736737999999605, 7.648894199999631, 8.165482000000338, 8.71731699999873]"	"[1.1397560000004887, 1.4482083000002604, 1.6898598000007041, 1.9148157999989053, 2.123213599999872, 2.3482182000007015, 2.664866899998742, 2.8983391000001575, 3.231592299998738, 3.5149493999997503, 3.931630300001416, 4.398469700001442, 4.640133100001549, 4.865024800001265, 5.190067499999714, 5.515282500000467, 5.940119800001412, 6.248479800000496, 6.715402599998924, 7.2818990999985544, 7.773560099998576, 8.290292400000908, 8.840457400001469]"	150.18438500000047	150.18968730000051	151.68167109999922	151.68987109999944								18	01	2024-02-08_15h07.20.116	BART_exp	2023.2.3	119.97917161259792	2024-02-08 15h07.35.586734 +0100	
balloon.png	71	0	9	9	16	151.68987109999944													151.68185169999924	151.68987109999944	151.68987109999944	151.68987109999944	151.68987109999944	151.68987109999944	0.005546899999899324			151.68987109999944	156.3591809999998	10	0.50	False	"[-0.020370370370370372, -0.020370370370370372, -0.020370370370370372, -0.020370370370370372, -0.020370370370370372, -0.020370370370370372, -0.020370370370370372, -0.020370370370370372, -0.020370370370370372, -0.020370370370370372, -0.016666666666666666]"	"[-0.3814814814814815, -0.3814814814814815, -0.3814814814814815, -0.3814814814814815, -0.3814814814814815, -0.3814814814814815, -0.3814814814814815, -0.3814814814814815, -0.3814814814814815, -0.3814814814814815, -0.2037037037037037]"	"[1, 1, 1, 1, 1, 1, 1, 1, 1, 1, 0]"	"[0, 0, 0, 0, 0, 0, 0, 0, 0, 0, 0]"	"[0, 0, 0, 0, 0, 0, 0, 0, 0, 0, 1]"	"[0.6670857999997679, 0.8669219000003068, 1.2170102000018233, 1.5920967999991262, 1.9588480000020354, 2.2836462000013853, 2.7338854000008723, 3.1672354000002088, 3.4587651000001642, 3.9921467999993183, 4.6762253000015335]"	10	"[0.6651420000016515, 0.8649672000028659, 1.2150570000012522, 1.5901464000016858, 1.9569012000029034, 2.2816950000014913, 2.7319364000031783, 3.1652855000029376, 3.456810800002131, 3.9902011000012862]"	"[0.7898351000003458, 0.9731357000018761, 1.2981730999999854, 1.673266000001604, 2.073216600001615, 2.38991210000313, 2.848286000000371, 3.2649541000027966, 3.5649666000026627, 4.098349700001563]"	156.35991759999888	156.36513320000086	157.85710349999863	157.86529370000062								18	01	2024-02-08_15h07.20.116	BART_exp	2023.2.3	119.97917161259792	2024-02-08 15h07.35.586734 +0100	
balloon.png	92	0	10	10	21	157.86529370000062													157.85728240000026	157.86529370000062	157.86529370000062	157.86529370000062	157.86529370000062	157.86529370000062	0.005442099998617778	0.005442099998617778	0.005442099998617778	157.86529370000062	171.90941999999995	30	1.50	False	"[-0.025, -0.025, -0.025, -0.025, -0.025, -0.025, -0.025, -0.025, -0.025, -0.025, -0.025, -0.025, -0.025, -0.025, -0.025, -0.025, -0.025, -0.025, -0.025, -0.025, -0.025, -0.025, -0.025, -0.025, -0.025, -0.025, -0.025, -0.025, -0.025, -0.025, -0.017592592592592594]"	"[-0.3814814814814815, -0.3814814814814815, -0.3814814814814815, -0.3814814814814815, -0.3814814814814815, -0.3814814814814815, -0.3814814814814815, -0.3814814814814815, -0.3814814814814815, -0.3814814814814815, -0.3814814814814815, -0.3814814814814815, -0.3814814814814815, -0.3814814814814815, -0.3814814814814815, -0.3814814814814815, -0.3814814814814815, -0.3814814814814815, -0.3814814814814815, -0.3814814814814815, -0.3814814814814815, -0.3814814814814815, -0.3814814814814815, -0.3814814814814815, -0.3814814814814815, -0.3814814814814815, -0.3814814814814815, -0.3814814814814815, -0.3814814814814815, -0.3814814814814815, -0.1962962962962963]"	"[1, 1, 1, 1, 1, 1, 1, 1, 1, 1, 1, 1, 1, 1, 1, 1, 1, 1, 1, 1, 1, 1, 1, 1, 1, 1, 1, 1, 1, 1, 0]"	"[0, 0, 0, 0, 0, 0, 0, 0, 0, 0, 0, 0, 0, 0, 0, 0, 0, 0, 0, 0, 0, 0, 0, 0, 0, 0, 0, 0, 0, 0, 0]"	"[0, 0, 0, 0, 0, 0, 0, 0, 0, 0, 0, 0, 0, 0, 0, 0, 0, 0, 0, 0, 0, 0, 0, 0, 0, 0, 0, 0, 0, 0, 1]"	"[0.5754889000018011, 0.9170641000018804, 1.3003064000004088, 1.717293300000165, 2.300455000000511, 2.550605100001121, 2.8337707000027876, 3.0925978000013856, 3.4421363000001293, 3.842166400001588, 4.200685100000555, 4.517395700000634, 4.883906300001399, 5.309078599999339, 5.967544900002395, 6.351004000000103, 6.767644100000325, 7.24241560000155, 7.834181800000806, 8.375965800001723, 9.17603919999965, 9.559402700000646, 9.867626600000222, 10.451063100001193, 10.967870800002856, 11.434355700002925, 11.90965789999973, 12.492918399999326, 13.034574600002088, 13.409518899999966, 14.051187900000514]"	30	"[0.5736593000001449, 0.9152288999976008, 1.2984741000000213, 1.715461799998593, 2.2903435999978683, 2.548770900000818, 2.8319331999991846, 3.0909350000001723, 3.4402972999996564, 3.840330700000777, 4.198851499997545, 4.515563299999485, 4.882071399999404, 5.307241800001066, 5.965709699998115, 6.349167299998953, 6.765806899999006, 7.240578599998116, 7.8323433000005025, 8.374133799999981, 9.174200800000108, 9.557588499999838, 9.865794900000765, 10.44923039999776, 10.966032500000438, 11.432526900000084, 11.907824699999765, 12.491083400000207, 13.032739800000854, 13.40768079999907]"	"[0.6900241000003007, 1.0233258999978716, 1.3733820999987074, 1.8401993000006769, 2.406766100000823, 2.6818920000005164, 2.965126600000076, 3.2234471999981906, 3.5901849000001675, 3.948540099998354, 4.3068767999975535, 4.631977900000493, 4.990455499999371, 5.456984699998429, 6.082060500000807, 6.465519800000038, 6.865402999999787, 7.348759299999074, 7.957127199999377, 8.507194800000434, 9.298874899999646, 9.673924700000498, 9.99894789999962, 10.565655099999276, 11.082370299998729, 11.557402300000831, 12.040741599998, 12.607487900000706, 13.149197300001106, 13.524173499998142]"	171.9106752000007	171.91625139999815	173.4082415999983	173.42471339999975								18	01	2024-02-08_15h07.20.116	BART_exp	2023.2.3	119.97917161259792	2024-02-08 15h07.35.586734 +0100	
balloon.png	84	0	11	11	19	173.42471339999975													173.4084503999984	173.42471339999975	173.42471339999975	173.42471339999975	173.42471339999975	173.42471339999975	-0.0006686000015179161	-0.0006686000015179161	-0.0006686000015179161	173.42471339999975	188.96914249999827	30	1.50	False	"[-0.022222222222222223, -0.022222222222222223, -0.022222222222222223, -0.022222222222222223, -0.022222222222222223, -0.022222222222222223, -0.022222222222222223, -0.022222222222222223, -0.022222222222222223, -0.022222222222222223, -0.022222222222222223, -0.022222222222222223, -0.022222222222222223, -0.022222222222222223, -0.022222222222222223, -0.022222222222222223, -0.022222222222222223, -0.022222222222222223, -0.022222222222222223, -0.022222222222222223, -0.022222222222222223, -0.022222222222222223, -0.022222222222222223, -0.022222222222222223, -0.022222222222222223, -0.022222222222222223, -0.022222222222222223, -0.022222222222222223, -0.022222222222222223, -0.022222222222222223, 0.020370370370370372]"	"[-0.4083333333333333, -0.4083333333333333, -0.4083333333333333, -0.4083333333333333, -0.4083333333333333, -0.4083333333333333, -0.4083333333333333, -0.4083333333333333, -0.4083333333333333, -0.4083333333333333, -0.4083333333333333, -0.4083333333333333, -0.4083333333333333, -0.4083333333333333, -0.4083333333333333, -0.4083333333333333, -0.4083333333333333, -0.4083333333333333, -0.4083333333333333, -0.4083333333333333, -0.4083333333333333, -0.4083333333333333, -0.4083333333333333, -0.4083333333333333, -0.4083333333333333, -0.4083333333333333, -0.4083333333333333, -0.4083333333333333, -0.4083333333333333, -0.4083333333333333, -0.2111111111111111]"	"[1, 1, 1, 1, 1, 1, 1, 1, 1, 1, 1, 1, 1, 1, 1, 1, 1, 1, 1, 1, 1, 1, 1, 1, 1, 1, 1, 1, 1, 1, 0]"	"[0, 0, 0, 0, 0, 0, 0, 0, 0, 0, 0, 0, 0, 0, 0, 0, 0, 0, 0, 0, 0, 0, 0, 0, 0, 0, 0, 0, 0, 0, 0]"	"[0, 0, 0, 0, 0, 0, 0, 0, 0, 0, 0, 0, 0, 0, 0, 0, 0, 0, 0, 0, 0, 0, 0, 0, 0, 0, 0, 0, 0, 0, 1]"	"[0.35031439999875147, 0.7169670000002952, 1.1671088000002783, 2.125508600001922, 2.3754530000005616, 2.7087047999993956, 3.0836944000002404, 3.475377999999182, 4.025465400001849, 4.500442000000476, 5.292243700001563, 5.742346899998665, 6.417403899999044, 6.85196519999954, 7.259026600000652, 7.692358200001763, 8.284077200001775, 8.617677900001581, 9.025996899999882, 9.42596229999981, 10.084176799999113, 10.44254649999857, 11.059273999999277, 11.492876399999659, 11.96788419999939, 12.442661699999007, 13.126183100001072, 13.692791800000123, 14.234498300000269, 14.609695300001476, 15.559723099999246]"	30	"[0.34219060000032187, 0.7086964000009175, 1.1588354000014078, 2.1172502000008535, 2.3671781000011833, 2.7004432000030647, 3.0754209000006085, 3.4671041000001424, 4.01719580000281, 4.492170000001352, 5.2839702000019315, 5.734072500003094, 6.409129600000597, 6.843852700003481, 7.250753400003305, 7.684081600000354, 8.275805900000705, 8.609407400002965, 9.017748700000084, 9.41769740000018, 10.07590700000219, 10.434269300003507, 11.051000600000407, 11.484607200000028, 11.959614200000942, 12.434391100003268, 13.117912100002286, 13.684520900002099, 14.226227000002837, 14.601424100001168]"	"[0.4500958000026003, 0.8000915000011446, 1.233453200002259, 2.2337087000014435, 2.508539100002963, 2.817015900000115, 3.1919325000017125, 3.5836475000032806, 4.142005300000164, 4.63369060000332, 5.417092200001207, 5.892135300000518, 6.550538900002721, 6.958847400001105, 7.375552100002096, 7.800670900000114, 8.38394960000005, 8.72564340000099, 9.14266210000278, 9.525716600001033, 10.1842037000024, 10.559101400001964, 11.175839100000303, 11.625896800000191, 12.092563000001974, 12.542624600002455, 13.2593603000023, 13.817716800000198, 14.342749400002504, 14.701058500002546]"	188.9702682999996	188.9757475999977	190.4678289000003	190.4842260000005								18	01	2024-02-08_15h07.20.116	BART_exp	2023.2.3	119.97917161259792	2024-02-08 15h07.35.586734 +0100	
balloon.png	105	0	12	12	24	190.4842260000005													190.46801299999788	190.4842260000005	190.4842260000005	190.4842260000005	190.4842260000005	190.4842260000005	-0.0007886999992479105	-0.0007886999992479105	-0.0007886999992479105	190.4842260000005	200.01978229999804	20	1.00	False	"[-0.007407407407407408, -0.007407407407407408, -0.007407407407407408, -0.007407407407407408, -0.007407407407407408, -0.007407407407407408, -0.007407407407407408, -0.007407407407407408, -0.007407407407407408, -0.007407407407407408, -0.007407407407407408, -0.007407407407407408, -0.007407407407407408, -0.007407407407407408, -0.007407407407407408, -0.007407407407407408, -0.007407407407407408, -0.007407407407407408, -0.007407407407407408, -0.007407407407407408, 0.011111111111111112]"	"[-0.38055555555555554, -0.38055555555555554, -0.38055555555555554, -0.38055555555555554, -0.38055555555555554, -0.38055555555555554, -0.38055555555555554, -0.38055555555555554, -0.38055555555555554, -0.38055555555555554, -0.38055555555555554, -0.38055555555555554, -0.38055555555555554, -0.38055555555555554, -0.38055555555555554, -0.38055555555555554, -0.38055555555555554, -0.38055555555555554, -0.38055555555555554, -0.38055555555555554, -0.16203703703703703]"	"[1, 1, 1, 1, 1, 1, 1, 1, 1, 1, 1, 1, 1, 1, 1, 1, 1, 1, 1, 1, 0]"	"[0, 0, 0, 0, 0, 0, 0, 0, 0, 0, 0, 0, 0, 0, 0, 0, 0, 0, 0, 0, 0]"	"[0, 0, 0, 0, 0, 0, 0, 0, 0, 0, 0, 0, 0, 0, 0, 0, 0, 0, 0, 0, 1]"	"[0.9419802999982494, 1.308751000000484, 1.7434623000008287, 2.0753684999981488, 2.567038400000456, 2.8170234999997774, 3.0754722999990918, 3.4838539000011224, 3.7837661000012304, 4.167058099999849, 5.217112599999382, 5.558793799998966, 5.975523299999622, 6.300671799999691, 6.784061999998812, 7.183901100001094, 7.575641100000212, 8.025680499998998, 8.434161299999687, 8.917535900000075, 9.550770699999703]"	20	"[0.9333425000004354, 1.3001082000009774, 1.734976600000664, 2.0667364000000816, 2.5584029000019655, 2.8083824000023014, 3.0668322000019543, 3.475210700002208, 3.7751369000034174, 4.15841900000305, 5.20846850000089, 5.550148500002251, 5.966878300001554, 6.292032800000015, 6.775422900002013, 7.1752605000001495, 7.567003200001636, 8.017037500001607, 8.425515599999926, 8.908892500003276]"	"[1.0413375000025553, 1.391427600003226, 1.8247435000012047, 2.1914272000030905, 2.6665554999999586, 2.9164724000002025, 3.1998327000001154, 3.583207300001959, 3.8916168000032485, 4.266616700002487, 5.366666400001122, 5.658516700001201, 6.100192800000514, 6.400267100001656, 6.891764200001489, 7.291790100000071, 7.725152200000593, 8.125206400000025, 8.558589400003257, 9.016934900002525]"	200.02070399999866	200.02652210000088	201.51849819999916	201.53496670000095								18	01	2024-02-08_15h07.20.116	BART_exp	2023.2.3	119.97917161259792	2024-02-08 15h07.35.586734 +0100	
balloon.png	40	0	13	13	9	201.53496670000095													201.5186771000008	201.53496670000095	201.53496670000095	201.53496670000095	201.53496670000095	201.53496670000095	-0.0007826000000932254	-0.0007826000000932254	-0.0007826000000932254	201.53496670000095	214.8959661000008	30	1.50	False	"[0.007407407407407408, 0.007407407407407408, 0.007407407407407408, 0.007407407407407408, 0.007407407407407408, 0.007407407407407408, 0.007407407407407408, 0.007407407407407408, 0.007407407407407408, 0.007407407407407408, 0.007407407407407408, 0.007407407407407408, 0.007407407407407408, 0.007407407407407408, 0.007407407407407408, 0.007407407407407408, 0.007407407407407408, 0.007407407407407408, 0.007407407407407408, 0.007407407407407408, 0.007407407407407408, 0.007407407407407408, 0.007407407407407408, 0.007407407407407408, 0.007407407407407408, 0.007407407407407408, 0.007407407407407408, 0.007407407407407408, 0.007407407407407408, 0.007407407407407408, 0.008333333333333333]"	"[-0.3638888888888889, -0.3638888888888889, -0.3638888888888889, -0.3638888888888889, -0.3638888888888889, -0.3638888888888889, -0.3638888888888889, -0.3638888888888889, -0.3638888888888889, -0.3638888888888889, -0.3638888888888889, -0.3638888888888889, -0.3638888888888889, -0.3638888888888889, -0.3638888888888889, -0.3638888888888889, -0.3638888888888889, -0.3638888888888889, -0.3638888888888889, -0.3638888888888889, -0.3638888888888889, -0.3638888888888889, -0.3638888888888889, -0.3638888888888889, -0.3638888888888889, -0.3638888888888889, -0.3638888888888889, -0.3638888888888889, -0.3638888888888889, -0.3638888888888889, -0.2064814814814815]"	"[1, 1, 1, 1, 1, 1, 1, 1, 1, 1, 1, 1, 1, 1, 1, 1, 1, 1, 1, 1, 1, 1, 1, 1, 1, 1, 1, 1, 1, 1, 0]"	"[0, 0, 0, 0, 0, 0, 0, 0, 0, 0, 0, 0, 0, 0, 0, 0, 0, 0, 0, 0, 0, 0, 0, 0, 0, 0, 0, 0, 0, 0, 0]"	"[0, 0, 0, 0, 0, 0, 0, 0, 0, 0, 0, 0, 0, 0, 0, 0, 0, 0, 0, 0, 0, 0, 0, 0, 0, 0, 0, 0, 0, 0, 1]"	"[0.6754763999997522, 1.100356399998418, 1.4171833000000333, 1.7838851000014984, 2.1088013000007777, 2.575471700001799, 2.892297599999438, 3.2590770999995584, 3.692231199998787, 4.134049200001755, 4.567550799998571, 4.975812399999995, 5.417460600001505, 5.842528900000616, 6.2843108999986725, 6.625894299999345, 6.959200000001147, 7.3592424999988, 7.850979999999254, 8.24273280000125, 8.709251799999038, 9.24273969999922, 9.692625799998495, 10.042870400000538, 10.44282110000131, 10.842879799998627, 11.284436099998857, 11.659568700000818, 12.067784099999699, 12.484477199999674, 13.376360199999908]"	30	"[0.6672795000013139, 1.092149200001586, 1.4089753000007477, 1.7756766999991669, 2.1005989000004774, 2.5672727999990457, 2.8840903999989678, 3.250879700000951, 3.684023400001024, 4.125840500000777, 4.5593665999986115, 4.967613400000118, 5.409260399999766, 5.834325100000569, 6.276109099999303, 6.61769170000116, 6.950999799999408, 7.351035600000614, 7.842775900000561, 8.234543099999428, 8.701042600001529, 9.234538299999258, 9.684419400000479, 10.034675399998378, 10.434619499999826, 10.834678600000188, 11.276230999999825, 11.651367599999503, 12.059578799999144, 12.47627250000005]"	"[0.7586257000002661, 1.2171476000003167, 1.5253320999981952, 1.942043700000795, 2.2337378000011086, 2.6837560999993, 3.0087745999990148, 3.3838150999981735, 3.7923408999995445, 4.242203300000256, 4.6672446000011405, 5.117348200001288, 5.53404109999974, 5.950654799999029, 6.400678699999844, 6.759058899999218, 7.092461899999762, 7.484211999999388, 7.959116699999868, 8.384143499999482, 8.817513699999836, 9.35934189999898, 9.800946399998793, 10.142618400001084, 10.567666499999177, 10.96765460000097, 11.384373199998663, 11.776138099998207, 12.167849999997998, 12.534472200000891]"	214.89716899999985	214.90258149999863	216.3946109999997	216.41102239999964								18	01	2024-02-08_15h07.20.116	BART_exp	2023.2.3	119.97917161259792	2024-02-08 15h07.35.586734 +0100	
balloon.png	110	0	14	14	25	216.41102239999964													216.39480080000067	216.41102239999964	216.41102239999964	216.41102239999964	216.41102239999964	216.41102239999964	-0.0009991000006266404	-0.0009991000006266404	-0.0009991000006266404	216.41102239999964	221.23794830000043	10	0.50	False	"[0.009259259259259259, 0.009259259259259259, 0.009259259259259259, 0.009259259259259259, 0.009259259259259259, 0.009259259259259259, 0.009259259259259259, 0.009259259259259259, 0.009259259259259259, 0.009259259259259259, -0.001851851851851852]"	"[-0.37777777777777777, -0.37777777777777777, -0.37777777777777777, -0.37777777777777777, -0.37777777777777777, -0.37777777777777777, -0.37777777777777777, -0.37777777777777777, -0.37777777777777777, -0.37777777777777777, -0.2175925925925926]"	"[1, 1, 1, 1, 1, 1, 1, 1, 1, 1, 0]"	"[0, 0, 0, 0, 0, 0, 0, 0, 0, 0, 0]"	"[0, 0, 0, 0, 0, 0, 0, 0, 0, 0, 1]"	"[0.6252209999984188, 1.0252604999986943, 1.5172418000001926, 1.825302199998987, 2.2504289999997127, 2.5505105999982334, 2.933861400000751, 3.3256798000002163, 3.7672553999982483, 4.109336400000757, 4.8422162999995635]"	10	"[0.6228126000023622, 1.0228483999999298, 1.5148283000016818, 1.8228861000025063, 2.248010000002978, 2.5480917999993835, 2.9314465999996173, 3.3232628000005207, 3.764840700001514, 4.106925899999624]"	"[0.7143034000000625, 1.131069800001569, 1.6227442000017618, 1.9310637000016868, 2.3561021000023175, 2.647781900002883, 3.031209200002195, 3.4061765000005835, 3.8645568000029016, 4.231472600000416]"	221.23882980000053	221.24470010000005	222.73663690000103	222.75318549999793								18	01	2024-02-08_15h07.20.116	BART_exp	2023.2.3	119.97917161259792	2024-02-08 15h07.35.586734 +0100	
balloon.png	66	0	15	15	15	222.75318549999793													222.73681189999843	222.75318549999793	222.75318549999793	222.75318549999793	222.75318549999793	222.75318549999793	-0.0007613999987370335	-0.0007613999987370335	-0.0007613999987370335	222.75318549999793	236.0904862999996	30	1.50	False	"[-0.008333333333333333, -0.008333333333333333, -0.008333333333333333, -0.008333333333333333, -0.008333333333333333, -0.008333333333333333, -0.008333333333333333, -0.008333333333333333, -0.008333333333333333, -0.008333333333333333, -0.008333333333333333, -0.008333333333333333, -0.008333333333333333, -0.008333333333333333, -0.008333333333333333, -0.008333333333333333, -0.008333333333333333, -0.008333333333333333, -0.008333333333333333, -0.008333333333333333, -0.008333333333333333, -0.008333333333333333, -0.008333333333333333, -0.008333333333333333, -0.008333333333333333, -0.008333333333333333, -0.008333333333333333, -0.008333333333333333, -0.008333333333333333, -0.008333333333333333, -0.026851851851851852]"	"[-0.3861111111111111, -0.3861111111111111, -0.3861111111111111, -0.3861111111111111, -0.3861111111111111, -0.3861111111111111, -0.3861111111111111, -0.3861111111111111, -0.3861111111111111, -0.3861111111111111, -0.3861111111111111, -0.3861111111111111, -0.3861111111111111, -0.3861111111111111, -0.3861111111111111, -0.3861111111111111, -0.3861111111111111, -0.3861111111111111, -0.3861111111111111, -0.3861111111111111, -0.3861111111111111, -0.3861111111111111, -0.3861111111111111, -0.3861111111111111, -0.3861111111111111, -0.3861111111111111, -0.3861111111111111, -0.3861111111111111, -0.3861111111111111, -0.3861111111111111, -0.19537037037037036]"	"[1, 1, 1, 1, 1, 1, 1, 1, 1, 1, 1, 1, 1, 1, 1, 1, 1, 1, 1, 1, 1, 1, 1, 1, 1, 1, 1, 1, 1, 1, 0]"	"[0, 0, 0, 0, 0, 0, 0, 0, 0, 0, 0, 0, 0, 0, 0, 0, 0, 0, 0, 0, 0, 0, 0, 0, 0, 0, 0, 0, 0, 0, 0]"	"[0, 0, 0, 0, 0, 0, 0, 0, 0, 0, 0, 0, 0, 0, 0, 0, 0, 0, 0, 0, 0, 0, 0, 0, 0, 0, 0, 0, 0, 0, 1]"	"[0.7760607000018354, 1.083727600002021, 1.3255016000002797, 1.6754103000021132, 2.1087609000023804, 2.4504940000006172, 2.7757147000011173, 3.250528500000655, 3.8422355000002426, 4.425608600002306, 4.925810400000046, 5.317422700001771, 5.625842400000693, 6.050715400000627, 6.484116200001154, 6.767834700000094, 7.017453000000387, 7.217554100003326, 7.450856500003283, 7.700820699999895, 8.242573800001992, 8.617870800000674, 9.026147000000492, 9.500935600000957, 9.884342600002128, 10.351227500003006, 10.701036500002374, 11.184574300001259, 11.726314600000478, 12.126279800002521, 13.352751000002172]"	30	"[0.7664549000000989, 1.073952200000349, 1.315732900002331, 1.66564389999985, 2.0989871000019775, 2.440728500001569, 2.7659442000003764, 3.2407579999999143, 3.8324610000017856, 4.415836500000296, 4.9160461999999825, 5.307652800001961, 5.616075400001137, 6.040945299999294, 6.474340500000835, 6.758072500000708, 7.007675000000745, 7.2077888999992865, 7.441078899999411, 7.691046700001607, 8.232797700002266, 8.60810979999951, 9.016372100002627, 9.49115940000047, 9.87457060000088, 10.341456000001926, 10.682950599999458, 11.174800900000264, 11.716539799999737, 12.11650709999958]"	"[0.8570813000005728, 1.1404504000020097, 1.4321975000020757, 1.790510800001357, 2.2155165000003763, 2.5824405000021216, 2.890559800001938, 3.3491418000012345, 3.9989915000005567, 4.565740300000471, 4.999022800002422, 5.4076616000020294, 5.732428600000276, 6.157454800002597, 6.582775200000469, 6.890879400001722, 7.107592200001818, 7.307600399999501, 7.549256599999353, 7.807585599999584, 8.340996499999164, 8.716012400000182, 9.13270150000244, 9.616041500001302, 10.02440480000223, 10.48277489999964, 10.841126900002564, 11.316273700002057, 11.857923800002027, 12.249644800001988]"	236.09157179999966	236.09564200000023	237.5877322999986	237.6041879000004								18	01	2024-02-08_15h07.20.116	BART_exp	2023.2.3	119.97917161259792	2024-02-08 15h07.35.586734 +0100	
balloon.png	118	0	16	16	27	237.6041879000004													237.58791080000083	237.6041879000004	237.6041879000004	237.6041879000004	237.6041879000004	237.6041879000004	0.012685099998634541	0.012685099998634541	0.012685099998634541	237.6041879000004	245.02304770000046	20	1.00	False	"[-0.011111111111111112, -0.011111111111111112, -0.011111111111111112, -0.011111111111111112, -0.011111111111111112, -0.011111111111111112, -0.011111111111111112, -0.011111111111111112, -0.011111111111111112, -0.011111111111111112, -0.011111111111111112, -0.011111111111111112, -0.011111111111111112, -0.011111111111111112, -0.011111111111111112, -0.011111111111111112, -0.011111111111111112, -0.011111111111111112, -0.011111111111111112, -0.011111111111111112, -0.011111111111111112]"	"[-0.37592592592592594, -0.37592592592592594, -0.37592592592592594, -0.37592592592592594, -0.37592592592592594, -0.37592592592592594, -0.37592592592592594, -0.37592592592592594, -0.37592592592592594, -0.37592592592592594, -0.37592592592592594, -0.37592592592592594, -0.37592592592592594, -0.37592592592592594, -0.37592592592592594, -0.37592592592592594, -0.37592592592592594, -0.37592592592592594, -0.37592592592592594, -0.37592592592592594, -0.20277777777777778]"	"[1, 1, 1, 1, 1, 1, 1, 1, 1, 1, 1, 1, 1, 1, 1, 1, 1, 1, 1, 1, 0]"	"[0, 0, 0, 0, 0, 0, 0, 0, 0, 0, 0, 0, 0, 0, 0, 0, 0, 0, 0, 0, 0]"	"[0, 0, 0, 0, 0, 0, 0, 0, 0, 0, 0, 0, 0, 0, 0, 0, 0, 0, 0, 0, 1]"	"[0.7503749999996217, 1.1256107000008342, 1.4671863999974448, 1.750505100000737, 2.05057239999951, 2.40054980000059, 2.642360899997584, 2.8755992999977025, 3.092370499998651, 3.300680599997577, 3.5006484999976237, 3.6923234999994747, 3.8923400999992737, 4.125769999998738, 4.358885899997404, 4.600723299998208, 4.942310099999304, 5.367334899998241, 5.758979300000647, 6.1924417999980506, 7.434230899998511]"	20	"[0.7483222000009846, 1.123558299997967, 1.465135200000077, 1.748459999998886, 2.0485167000006186, 2.3984987000003457, 2.6403066999992006, 2.873547299997881, 3.090320999999676, 3.298623700000462, 3.4985890999996627, 3.690271700001176, 3.8902894999991986, 4.123715300000185, 4.35682799999995, 4.598671600000671, 4.940257999998721, 5.365278799999942, 5.756925999998202, 6.1903987000005145]"	"[0.8315278999980364, 1.206464999999298, 1.573150500000338, 1.8481692999994266, 2.1565096000013, 2.4982534000009764, 2.756598500000109, 2.981595199998992, 3.206649699997797, 3.406724500000564, 3.6066377999995893, 3.8067029000012553, 4.006641699997999, 4.231696200000442, 4.465001199998369, 4.715222999999241, 5.065158099998371, 5.465074600000662, 5.856814499999018, 6.306840799999918]"	245.024001400001	245.0296957999999	246.52166639999996	246.5381325999988								18	01	2024-02-08_15h07.20.116	BART_exp	2023.2.3	119.97917161259792	2024-02-08 15h07.35.586734 +0100	
balloon.png	114	0	17	17	26	246.5381325999988													246.52184339999803	246.5381325999988	246.5381325999988	246.5381325999988	246.5381325999988	246.5381325999988	-0.000910999999177875	-0.000910999999177875	-0.000910999999177875	246.5381325999988	251.0985686999993	10	0.50	False	"[-0.013888888888888888, -0.013888888888888888, -0.013888888888888888, -0.013888888888888888, -0.013888888888888888, -0.013888888888888888, -0.013888888888888888, -0.013888888888888888, -0.013888888888888888, -0.013888888888888888, -0.017592592592592594]"	"[-0.36944444444444446, -0.36944444444444446, -0.36944444444444446, -0.36944444444444446, -0.36944444444444446, -0.36944444444444446, -0.36944444444444446, -0.36944444444444446, -0.36944444444444446, -0.36944444444444446, -0.21203703703703702]"	"[1, 1, 1, 1, 1, 1, 1, 1, 1, 1, 0]"	"[0, 0, 0, 0, 0, 0, 0, 0, 0, 0, 0]"	"[0, 0, 0, 0, 0, 0, 0, 0, 0, 0, 1]"	"[0.5338035999993735, 0.7338204000006954, 1.135302300001058, 1.4505662999981723, 1.7922591999995348, 2.184022299999924, 2.4421363000001293, 2.800620699999854, 3.350751099998888, 3.6089332000010472, 4.575832700000319]"	10	"[0.5288723000012396, 0.7288838000022224, 1.1305346000008285, 1.4456418000008853, 1.7873230000004696, 2.1790856000006897, 2.4372017000023334, 2.795686299999943, 3.3458196999999927, 3.604000100000121]"	"[0.6285873000015272, 0.8452919000010297, 1.2286203000003297, 1.5620596000007936, 1.8869865000015125, 2.2703461999990395, 2.5703715000017837, 2.9203927000016847, 3.462101299999631, 3.745447299999796]"	251.09927510000125	251.10513400000127	252.5971447999982	252.61359939999966								18	01	2024-02-08_15h07.20.116	BART_exp	2023.2.3	119.97917161259792	2024-02-08 15h07.35.586734 +0100	
balloon.png	27	0	18	18	6	252.61359939999966													252.5973288999994	252.61359939999966	252.61359939999966	252.61359939999966	252.61359939999966	252.61359939999966	-0.0005481000007421244	-0.0005481000007421244	-0.0005481000007421244	252.61359939999966	260.7494141999996	28	1.35	True	"[-0.06018518518518518, -0.06018518518518518, -0.06018518518518518, -0.06018518518518518, -0.06018518518518518, -0.06018518518518518, -0.06018518518518518, -0.06018518518518518, -0.06018518518518518, -0.06018518518518518, -0.06018518518518518, -0.06018518518518518, -0.06018518518518518, -0.06018518518518518, -0.06018518518518518, -0.06018518518518518, -0.06018518518518518, -0.06018518518518518, -0.06018518518518518, -0.06018518518518518, -0.06018518518518518, -0.06018518518518518, -0.06018518518518518, -0.06018518518518518, -0.06018518518518518, -0.06018518518518518, -0.06018518518518518, -0.06018518518518518]"	"[-0.3731481481481482, -0.3731481481481482, -0.3731481481481482, -0.3731481481481482, -0.3731481481481482, -0.3731481481481482, -0.3731481481481482, -0.3731481481481482, -0.3731481481481482, -0.3731481481481482, -0.3731481481481482, -0.3731481481481482, -0.3731481481481482, -0.3731481481481482, -0.3731481481481482, -0.3731481481481482, -0.3731481481481482, -0.3731481481481482, -0.3731481481481482, -0.3731481481481482, -0.3731481481481482, -0.3731481481481482, -0.3731481481481482, -0.3731481481481482, -0.3731481481481482, -0.3731481481481482, -0.3731481481481482, -0.3731481481481482]"	"[1, 1, 1, 1, 1, 1, 1, 1, 1, 1, 1, 1, 1, 1, 1, 1, 1, 1, 1, 1, 1, 1, 1, 1, 1, 1, 1, 1]"	"[0, 0, 0, 0, 0, 0, 0, 0, 0, 0, 0, 0, 0, 0, 0, 0, 0, 0, 0, 0, 0, 0, 0, 0, 0, 0, 0, 0]"	"[0, 0, 0, 0, 0, 0, 0, 0, 0, 0, 0, 0, 0, 0, 0, 0, 0, 0, 0, 0, 0, 0, 0, 0, 0, 0, 0, 0]"	"[0.5835732999985339, 0.8504262999995262, 1.0920492000004742, 1.3172071000008145, 1.550274500001251, 1.7669513000000734, 2.0002848000003723, 2.258844500000123, 2.5170797999999195, 2.7755104999996547, 3.15873030000148, 3.45898120000129, 3.700594199999614, 3.925487600001361, 4.14219679999951, 4.342113999999128, 4.525700599999254, 4.742192400000931, 4.958932400000776, 5.183858699998382, 5.434051199998066, 5.667449399999896, 6.034086899999238, 6.384081899999728, 6.684183299999859, 7.183989299999666, 7.567345600000408, 8.009233299999323]"	28	"[0.5740856999982498, 0.8409412999972119, 1.0825632999985828, 1.307726699997147, 1.5407846999987669, 1.757468499999959, 1.9908009999999194, 2.2493786999984877, 2.5075899999974354, 2.766019199996663, 3.1492419999995036, 3.4494928999993135, 3.6911058999976376, 3.915996699997777, 4.132712799997535, 4.332623099999182, 4.516211499998462, 4.732701099997939, 4.949441999997362, 5.174372499997844, 5.424568599999475, 5.657968099996651, 6.024603999998362, 6.3745965999987675, 6.674692099997628, 7.174502799996844, 7.557862899997417, 7.999749299997347]"	"[0.715564699999959, 0.9574592999997549, 1.1822838999978558, 1.415623399996548, 1.6573089999983495, 1.8656601999973645, 2.132396399996651, 2.390704999997979, 2.6323612999985926, 2.8907524999995076, 3.2657378999974753, 3.5825158999978157, 3.7991365999987465, 4.0241557999979705, 4.2408159999977215, 4.4324856999992335, 4.624181299997872, 4.84935089999999, 5.082740699999704, 5.324353699998028, 5.549242399996729, 5.757610399999976, 6.140966499999195, 6.490975699998671, 6.824321699998109, 7.316024299998389, 7.691094699999667, 8.132791799998813]"	260.75058929999796	260.75580289999925	262.2477859999999	262.2559051999997								18	01	2024-02-08_15h07.20.116	BART_exp	2023.2.3	119.97917161259792	2024-02-08 15h07.35.586734 +0100	
balloon.png	14	0	19	19	3	262.2559051999997													262.2479615000011	262.2559051999997	262.2559051999997	262.2559051999997	262.2559051999997	262.2559051999997	0.005375500000809552			262.2559051999997	266.94148190000124	15	0.70	True	"[-0.06388888888888888, -0.06388888888888888, -0.06388888888888888, -0.06388888888888888, -0.06388888888888888, -0.06388888888888888, -0.06388888888888888, -0.06388888888888888, -0.06388888888888888, -0.06388888888888888, -0.06388888888888888, -0.06388888888888888, -0.06388888888888888, -0.06388888888888888, -0.06388888888888888]"	"[-0.37592592592592594, -0.37592592592592594, -0.3731481481481482, -0.3731481481481482, -0.3731481481481482, -0.3731481481481482, -0.3731481481481482, -0.3731481481481482, -0.3731481481481482, -0.3731481481481482, -0.3731481481481482, -0.3731481481481482, -0.3731481481481482, -0.3731481481481482, -0.3731481481481482]"	"[1, 1, 1, 1, 1, 1, 1, 1, 1, 1, 1, 1, 1, 1, 1]"	"[0, 0, 0, 0, 0, 0, 0, 0, 0, 0, 0, 0, 0, 0, 0]"	"[0, 0, 0, 0, 0, 0, 0, 0, 0, 0, 0, 0, 0, 0, 0]"	"[0.9336535000002186, 1.3420111000014003, 1.8172315000010713, 2.1422201999994286, 2.3338667999996687, 2.5422476999992796, 2.750435199999629, 2.9339265000016894, 3.1673788000007335, 3.3589677000018128, 3.5506199000010383, 3.767354499999783, 3.98404070000106, 4.209094900001219, 4.575769700000819]"	15	"[0.931747999999061, 1.3400973999996495, 1.8153227000002516, 2.140313199997763, 2.33195859999978, 2.5403372000000672, 2.7485240999994858, 2.932015999998839, 3.165471099997376, 3.3570586999994703, 3.54871379999895, 3.765444499997102, 3.9821338999972795, 4.207188000000315, 4.5738629999978]"	"[1.0399612999972305, 1.4482874999994237, 1.9149920999989263, 2.2484845999970275, 2.4483594999983325, 2.656735900000058, 2.848411599999963, 3.048407299997052, 3.273591799999849, 3.4651596000003337, 3.6567794999973557, 3.8734745000001567, 4.098537799996848, 4.315206399998715, 4.681867199997214]"	266.9423601999988	266.94789970000056	268.43988850000096	268.45634399999835								18	01	2024-02-08_15h07.20.116	BART_exp	2023.2.3	119.97917161259792	2024-02-08 15h07.35.586734 +0100	
balloon.png	62	0	20	20	14	268.45634399999835													268.44006380000064	268.45634399999835	268.45634399999835	268.45634399999835	268.45634399999835	268.45634399999835	0.014053199996851617			268.45634399999835	272.15817719999905	10	0.50	False	"[-0.062037037037037036, -0.062037037037037036, -0.062037037037037036, -0.062037037037037036, -0.062037037037037036, -0.062037037037037036, -0.062037037037037036, -0.062037037037037036, -0.062037037037037036, -0.062037037037037036, -0.05648148148148148]"	"[-0.38425925925925924, -0.38425925925925924, -0.38425925925925924, -0.38425925925925924, -0.38425925925925924, -0.38425925925925924, -0.38425925925925924, -0.38425925925925924, -0.38425925925925924, -0.38425925925925924, -0.23148148148148148]"	"[1, 1, 1, 1, 1, 1, 1, 1, 1, 1, 0]"	"[0, 0, 0, 0, 0, 0, 0, 0, 0, 0, 0]"	"[0, 0, 0, 0, 0, 0, 0, 0, 0, 0, 1]"	"[0.39221319999705884, 0.7003050999992411, 0.933793299998797, 1.158988799998042, 1.36729589999959, 1.5755500999985088, 1.917065099998581, 2.3254280000001017, 2.617261799998232, 3.0839046999972197, 3.7171995999997307]"	10	"[0.3903777999985323, 0.6983533999991778, 0.931838799999241, 1.1570405999991635, 1.3653386000005412, 1.5735977000003913, 1.9151157000014791, 2.323476000001392, 2.6153077999988454, 3.0819483999985096]"	"[0.5482579999988957, 0.8065438999983598, 1.0399001000005228, 1.265042999999423, 1.473268099998677, 1.6899239999984275, 2.048357700001361, 2.4150367000002007, 2.723333800000546, 3.165209300001152]"	272.1588929999998	272.1649322999983	273.65697139999975	273.673373499998								18	01	2024-02-08_15h07.20.116	BART_exp	2023.2.3	119.97917161259792	2024-02-08 15h07.35.586734 +0100	
balloon.png	1	0	21	21	0	273.673373499998													273.65714749999825	273.673373499998	273.673373499998	273.673373499998	273.673373499998	273.673373499998	-0.00046609999844804406	-0.00046609999844804406	-0.00046609999844804406	273.673373499998	274.5086685999995	2	0.05	True	"[-0.058333333333333334, -0.058333333333333334]"	"[-0.36944444444444446, -0.36944444444444446]"	"[1, 1]"	"[0, 0]"	"[0, 0]"	"[0.5170233000026201, 0.7504181000003882]"	2	"[0.5073846999985108, 0.7407778999986476]"	"[0.5821054999978514, 0.8321414999991248]"	274.50924400000076	274.51511390000087	276.0070940000005	276.0235795000008								18	01	2024-02-08_15h07.20.116	BART_exp	2023.2.3	119.97917161259792	2024-02-08 15h07.35.586734 +0100	
balloon.png	79	0	22	22	18	276.0235795000008													276.00727499999994	276.0235795000008	276.0235795000008	276.0235795000008	276.0235795000008	276.0235795000008	-0.0006873000020277686	-0.0006873000020277686	-0.0006873000020277686	276.0235795000008	280.4339280999993	10	0.50	False	"[-0.05925925925925926, -0.05925925925925926, -0.05925925925925926, -0.05925925925925926, -0.05925925925925926, -0.05925925925925926, -0.05925925925925926, -0.05925925925925926, -0.05925925925925926, -0.05925925925925926, -0.06481481481481481]"	"[-0.38055555555555554, -0.38055555555555554, -0.38055555555555554, -0.38055555555555554, -0.38055555555555554, -0.38055555555555554, -0.38055555555555554, -0.38055555555555554, -0.38055555555555554, -0.38055555555555554, -0.23148148148148148]"	"[1, 1, 1, 1, 1, 1, 1, 1, 1, 1, 0]"	"[0, 0, 0, 0, 0, 0, 0, 0, 0, 0, 0]"	"[0, 0, 0, 0, 0, 0, 0, 0, 0, 0, 1]"	"[0.6919894999991811, 1.0836821000011696, 1.3253955000000133, 1.5589365999985603, 1.8255514999982552, 2.1932154999994964, 2.542094199998246, 2.8921798000010313, 3.300556999998662, 3.7088528999993287, 4.425733500000206]"	10	"[0.6820494000021426, 1.0737377000004926, 1.3154533000015363, 1.5490031000008457, 1.815607500000624, 2.1834565000026487, 2.532150700000784, 2.882240900002216, 3.2906121000014537, 3.6989094000018667]"	"[0.8071348000012222, 1.182142699999531, 1.3986328000028152, 1.6652677000020049, 1.940262200001598, 2.2903041999998095, 2.6319701000029454, 2.9820480000016687, 3.398726200000965, 3.798782300000312]"	280.4346697000001	280.44054060000053	281.93251919999966	281.9489493000001								18	01	2024-02-08_15h07.20.116	BART_exp	2023.2.3	119.97917161259792	2024-02-08 15h07.35.586734 +0100	
balloon.png	53	0	23	23	12	281.9489493000001													281.9327011999994	281.9489493000001	281.9489493000001	281.9489493000001	281.9489493000001	281.9489493000001	-0.0007001999983913265	-0.0007001999983913265	-0.0007001999983913265	281.9489493000001	291.27620340000067	20	1.00	False	"[-0.058333333333333334, -0.058333333333333334, -0.058333333333333334, -0.058333333333333334, -0.058333333333333334, -0.058333333333333334, -0.058333333333333334, -0.058333333333333334, -0.058333333333333334, -0.058333333333333334, -0.058333333333333334, -0.058333333333333334, -0.058333333333333334, -0.058333333333333334, -0.058333333333333334, -0.058333333333333334, -0.058333333333333334, -0.058333333333333334, -0.058333333333333334, -0.058333333333333334, -0.06388888888888888]"	"[-0.375, -0.375, -0.375, -0.375, -0.375, -0.375, -0.375, -0.375, -0.375, -0.375, -0.375, -0.375, -0.375, -0.375, -0.375, -0.375, -0.375, -0.375, -0.375, -0.375, -0.2037037037037037]"	"[1, 1, 1, 1, 1, 1, 1, 1, 1, 1, 1, 1, 1, 1, 1, 1, 1, 1, 1, 1, 0]"	"[0, 0, 0, 0, 0, 0, 0, 0, 0, 0, 0, 0, 0, 0, 0, 0, 0, 0, 0, 0, 0]"	"[0, 0, 0, 0, 0, 0, 0, 0, 0, 0, 0, 0, 0, 0, 0, 0, 0, 0, 0, 0, 1]"	"[0.6837689999993017, 1.0338043000010657, 1.3336717999991379, 1.6172174999992421, 1.942112900000211, 2.350409700000455, 2.7337948999993387, 3.1505733000012697, 3.650653600001533, 4.117338200001541, 4.56719990000056, 4.992326200001116, 5.284117899998819, 5.692480500001693, 6.259201900000335, 6.675899099998787, 7.168674900000042, 7.592531400001462, 7.942486899999494, 8.384110399998463, 9.342566700001044]"	20	"[0.6792510999985097, 1.0292883000001893, 1.3291548999986844, 1.6126972999991267, 1.9375915999989957, 2.3458862000006775, 2.7292744999977003, 3.14605169999777, 3.6461362000009103, 4.112816500000918, 4.56268049999926, 4.987803799998801, 5.279597000000649, 5.687960100000055, 6.254682499999035, 6.6713806000007025, 7.164324900000793, 7.588050300000759, 7.937963899999886, 8.37958929999877]"	"[0.7789408999997249, 1.1040501999996195, 1.4123035000011441, 1.720716600000742, 2.045732399998087, 2.4457175999996252, 2.8374094999999215, 3.2457940999993298, 3.779286000000866, 4.220841599999403, 4.679345699998521, 5.095963799998572, 5.404288699999597, 5.795974599997862, 6.371003000000201, 6.79611709999881, 7.296083999997791, 7.704422700000578, 8.046112500000163, 8.496136400000978]"	291.27735250000114	291.2829650999993	292.7750038999984	292.7997241000012								18	01	2024-02-08_15h07.20.116	BART_exp	2023.2.3	119.97917161259792	2024-02-08 15h07.35.586734 +0100	
balloon.png	75	0	24	24	17	292.7997241000012													292.7751973000013	292.7997241000012	292.7997241000012	292.7997241000012	292.7997241000012	292.7997241000012	-0.000778800000261981	-0.000778800000261981	-0.000778800000261981	292.7997241000012	304.18555800000104	20	1.00	False	"[-0.06018518518518518, -0.06851851851851852, -0.06851851851851852, -0.06851851851851852, -0.06851851851851852, -0.06851851851851852, -0.06851851851851852, -0.06851851851851852, -0.06851851851851852, -0.06851851851851852, -0.06851851851851852, -0.06851851851851852, -0.06851851851851852, -0.06851851851851852, -0.06851851851851852, -0.06851851851851852, -0.06851851851851852, -0.06851851851851852, -0.06851851851851852, -0.06851851851851852, -0.075]"	"[-0.37037037037037035, -0.40185185185185185, -0.40185185185185185, -0.40185185185185185, -0.40185185185185185, -0.40185185185185185, -0.40185185185185185, -0.40185185185185185, -0.40185185185185185, -0.40185185185185185, -0.40185185185185185, -0.40185185185185185, -0.40185185185185185, -0.40185185185185185, -0.40185185185185185, -0.40185185185185185, -0.40185185185185185, -0.40185185185185185, -0.40185185185185185, -0.40185185185185185, -0.19907407407407407]"	"[1, 1, 1, 1, 1, 1, 1, 1, 1, 1, 1, 1, 1, 1, 1, 1, 1, 1, 1, 1, 0]"	"[0, 0, 0, 0, 0, 0, 0, 0, 0, 0, 0, 0, 0, 0, 0, 0, 0, 0, 0, 0, 0]"	"[0, 0, 0, 0, 0, 0, 0, 0, 0, 0, 0, 0, 0, 0, 0, 0, 0, 0, 0, 0, 1]"	"[0.9837201999980607, 1.9589204999974754, 2.3169643999972322, 2.7336775999974634, 3.1921936999970058, 3.7170957999987877, 4.133897999996407, 4.8506442999969295, 5.451499199996761, 5.950735299997177, 6.9173818999988725, 7.234153899997182, 7.5006651999974565, 7.834212599998864, 8.15904209999644, 8.650892699999531, 9.050954899998032, 9.575981999998476, 10.001044299999194, 10.401241799998388, 11.409423199998855]"	20	"[0.9718710999986797, 1.947082999999111, 2.3051033999981883, 2.7218213000014657, 3.180341799998132, 3.7052374000013515, 4.1220395999989705, 4.838784600000508, 5.439807599999767, 5.938880300000164, 6.905525400001352, 7.222296500000084, 7.488808199999767, 7.822359099998721, 8.147183299999597, 8.639038500001334, 9.039095500000258, 9.564127999998163, 9.989186099999642, 10.3893911999985]"	"[1.0883770000000368, 2.054954600000201, 2.4300925999996252, 2.8051228000003903, 3.3050480999991123, 3.8467856999996, 4.280099700001301, 4.946983099998761, 5.580187799998384, 6.071879899998748, 7.065045999999711, 7.3386501999993925, 7.596997299999202, 7.922015200001624, 8.280425699998887, 8.763742499999353, 9.14710660000128, 9.680478300000686, 10.130566299998463, 10.52248630000031]"	304.18658230000074	304.1921782999998	305.68426420000105	305.7173709999988								18	01	2024-02-08_15h07.20.116	BART_exp	2023.2.3	119.97917161259792	2024-02-08 15h07.35.586734 +0100	
balloon.png	88	0	25	25	20	305.7173709999988													305.68444850000014	305.7173709999988	305.7173709999988	305.7173709999988	305.7173709999988	305.7173709999988	-0.0006772999986424111	-0.0006772999986424111	-0.0006772999986424111	305.7173709999988	315.1446733999983	20	1.00	False	"[-0.06388888888888888, -0.06388888888888888, -0.06388888888888888, -0.06388888888888888, -0.06388888888888888, -0.06388888888888888, -0.06388888888888888, -0.06388888888888888, -0.06388888888888888, -0.06388888888888888, -0.06388888888888888, -0.06388888888888888, -0.06388888888888888, -0.06388888888888888, -0.06388888888888888, -0.06388888888888888, -0.06388888888888888, -0.06388888888888888, -0.06388888888888888, -0.06388888888888888, -0.06666666666666667]"	"[-0.37592592592592594, -0.37592592592592594, -0.37592592592592594, -0.37592592592592594, -0.37592592592592594, -0.37592592592592594, -0.37592592592592594, -0.37592592592592594, -0.37592592592592594, -0.37592592592592594, -0.37592592592592594, -0.37592592592592594, -0.37592592592592594, -0.37592592592592594, -0.37592592592592594, -0.37592592592592594, -0.37592592592592594, -0.37592592592592594, -0.37592592592592594, -0.37592592592592594, -0.19814814814814816]"	"[1, 1, 1, 1, 1, 1, 1, 1, 1, 1, 1, 1, 1, 1, 1, 1, 1, 1, 1, 1, 0]"	"[0, 0, 0, 0, 0, 0, 0, 0, 0, 0, 0, 0, 0, 0, 0, 0, 0, 0, 0, 0, 0]"	"[0, 0, 0, 0, 0, 0, 0, 0, 0, 0, 0, 0, 0, 0, 0, 0, 0, 0, 0, 0, 1]"	"[1.7919075999998313, 2.0672574000018358, 2.3088105999995605, 2.5503551000001607, 2.8671944000016083, 3.2255245999986073, 3.617049299999053, 3.8505394000021624, 4.125580399999308, 4.400429000001168, 4.635308699998859, 5.233997100000124, 5.559064500001114, 5.884039900000062, 6.425937799998792, 6.8841309000017645, 7.383968400001322, 7.792349999999715, 8.15906040000118, 8.700930300001346, 9.459256500002084]"	20	"[1.7696384999981092, 2.0449820999965596, 2.286535899998853, 2.528083899997, 2.8449191999970935, 3.2032542999986617, 3.594771899999614, 3.8282658999996784, 4.103309499998431, 4.378153299996484, 4.613195699999778, 5.2117280999991635, 5.536790799997107, 5.861762599997746, 6.403667399998085, 6.861861699999281, 7.361695799998415, 7.770074299998669, 8.136787299998105, 8.67865719999827]"	"[1.861254799998278, 2.144526099997165, 2.3862880999986373, 2.602855699999054, 2.9612595999969926, 3.3195758999972895, 3.702979299996514, 3.961293599997589, 4.252994899998157, 4.486348699996597, 4.7198682999987795, 5.311414599997079, 5.644743099997868, 5.969884799997089, 6.519971099998656, 6.96175729999959, 7.478351399997337, 7.895023299999593, 8.253606799997215, 8.786639499998273]"	315.14556829999856	315.1513080000004	316.6433242999992	316.6597651999982								18	01	2024-02-08_15h07.20.116	BART_exp	2023.2.3	119.97917161259792	2024-02-08 15h07.35.586734 +0100	
balloon.png	10	0	26	26	2	316.6597651999982													316.6435308	316.6597651999982	316.6597651999982	316.6597651999982	316.6597651999982	316.6597651999982	-0.0007781999993312638	-0.0007781999993312638	-0.0007781999993312638	316.6597651999982	319.62016310000035	11	0.50	True	"[-0.0712962962962963, -0.0712962962962963, -0.0712962962962963, -0.0712962962962963, -0.0712962962962963, -0.0712962962962963, -0.0712962962962963, -0.0712962962962963, -0.0712962962962963, -0.0712962962962963, -0.0712962962962963]"	"[-0.3731481481481482, -0.3731481481481482, -0.3731481481481482, -0.3731481481481482, -0.3731481481481482, -0.3731481481481482, -0.3731481481481482, -0.3731481481481482, -0.3731481481481482, -0.3731481481481482, -0.3731481481481482]"	"[1, 1, 1, 1, 1, 1, 1, 1, 1, 1, 1]"	"[0, 0, 0, 0, 0, 0, 0, 0, 0, 0, 0]"	"[0, 0, 0, 0, 0, 0, 0, 0, 0, 0, 0]"	"[0.3919835000015155, 0.6336570999992546, 0.8670323000005737, 1.133838800000376, 1.3669565000018338, 1.5919820000017353, 1.7920262000006915, 2.000345799999195, 2.342046500001743, 2.608688299998903, 2.858859799998754]"	11	"[0.388493100002961, 0.630178800001886, 0.8635387000031187, 1.1303426000013133, 1.3634638000003179, 1.5884988000034355, 1.7885266000012052, 1.996853500000725, 2.3385814000030223, 2.60519320000094, 2.855360700003075]"	"[0.49656060000052094, 0.7215723000008438, 0.9799921000012546, 1.2382825000022422, 1.4633411000031629, 1.6883684000022186, 1.896690800000215, 2.0885739000004833, 2.4300711000032607, 2.70505570000023, 2.96353900000031]"	319.6209082999994	319.6266343999996	321.11857899999814	321.13504309999917								18	01	2024-02-08_15h07.20.116	BART_exp	2023.2.3	119.97917161259792	2024-02-08 15h07.35.586734 +0100	
balloon.png	97	0	27	27	22	321.13504309999917													321.1187589000001	321.13504309999917	321.13504309999917	321.13504309999917	321.13504309999917	321.13504309999917	-0.0008447000000160187	-0.0008447000000160187	-0.0008447000000160187	321.13504309999917	325.7454023999999	10	0.50	False	"[-0.075, -0.075, -0.075, -0.075, -0.075, -0.075, -0.075, -0.075, -0.075, -0.075, -0.09074074074074075]"	"[-0.39351851851851855, -0.39351851851851855, -0.39351851851851855, -0.39351851851851855, -0.39351851851851855, -0.39351851851851855, -0.39351851851851855, -0.39351851851851855, -0.39351851851851855, -0.39351851851851855, -0.21203703703703702]"	"[1, 1, 1, 1, 1, 1, 1, 1, 1, 1, 0]"	"[0, 0, 0, 0, 0, 0, 0, 0, 0, 0, 0]"	"[0, 0, 0, 0, 0, 0, 0, 0, 0, 0, 1]"	"[0.675558999999339, 1.058864900001936, 1.3420728000019153, 1.7087314000018523, 2.0172267999987525, 2.3337496999993164, 2.675593799998751, 3.042380700000649, 3.350777700001345, 3.8840099000008195, 4.625741399999242]"	10	"[0.6672969999999623, 1.0505945999975665, 1.3338041999995767, 1.700466399997822, 2.008962399999291, 2.3254831999984162, 2.6673229999978503, 3.034133199998905, 3.3425238999989233, 3.875742399999581]"	"[0.7918885999970371, 1.1585919999997714, 1.4336091999975906, 1.8086315999971703, 2.125343799998518, 2.425331799997366, 2.7920433999970555, 3.158720799998264, 3.4754517000001215, 3.9923105999987456]"	325.74618230000124	325.7520354999979	327.2440592999992	327.2604730999992								18	01	2024-02-08_15h07.20.116	BART_exp	2023.2.3	119.97917161259792	2024-02-08 15h07.35.586734 +0100	
balloon.png	123	0	28	28	28	327.2604730999992													327.2442407999988	327.2604730999992	327.2604730999992	327.2604730999992	327.2604730999992	327.2604730999992	-0.0006940000021131709	-0.0006940000021131709	-0.0006940000021131709	327.2604730999992	332.05404819999967	10	0.50	False	"[-0.07962962962962963, -0.08888888888888889, -0.08888888888888889, -0.08888888888888889, -0.08888888888888889, -0.08888888888888889, -0.08888888888888889, -0.08888888888888889, -0.08888888888888889, -0.08888888888888889, -0.08981481481481482]"	"[-0.3731481481481482, -0.3907407407407407, -0.3907407407407407, -0.3907407407407407, -0.3907407407407407, -0.3907407407407407, -0.3907407407407407, -0.3907407407407407, -0.3907407407407407, -0.3907407407407407, -0.23333333333333334]"	"[1, 1, 1, 1, 1, 1, 1, 1, 1, 1, 0]"	"[0, 0, 0, 0, 0, 0, 0, 0, 0, 0, 0]"	"[0, 0, 0, 0, 0, 0, 0, 0, 0, 0, 1]"	"[0.4420378999966488, 1.3088425999994797, 1.5586593999978504, 1.77533339999718, 1.9753465999965556, 2.5172058999996807, 2.7256200999981957, 2.9506004999966535, 3.4340983999973105, 3.8256008999996993, 4.808883799996693]"	10	"[0.43916530000205967, 1.305964800001675, 1.5557769000006374, 1.772454400001152, 1.9724714000003587, 2.514327000000776, 2.7227421999996295, 2.9477213000027405, 3.4312384000004386, 3.8227261000029102]"	"[0.555547400002979, 1.422289100002672, 1.6639835000023595, 1.8723385000012058, 2.0806684000017412, 2.6140263000015693, 2.8225538000006054, 3.0224248000013176, 3.530843399999867, 3.9391318000016327]"	332.0547818999985	332.0608178000002	333.55277879999994	333.56925430000047								18	01	2024-02-08_15h07.20.116	BART_exp	2023.2.3	119.97917161259792	2024-02-08 15h07.35.586734 +0100	
balloon.png	57	0	29	29	13	333.56925430000047													333.55296180000005	333.56925430000047	333.56925430000047	333.56925430000047	333.56925430000047	333.56925430000047	-0.0005816000011691358	-0.0005816000011691358	-0.0005816000011691358	333.56925430000047	340.2629291999983	20	1.00	False	"[-0.0824074074074074, -0.0824074074074074, -0.0824074074074074, -0.0824074074074074, -0.0824074074074074, -0.0824074074074074, -0.0824074074074074, -0.0824074074074074, -0.0824074074074074, -0.0824074074074074, -0.0824074074074074, -0.0824074074074074, -0.0824074074074074, -0.0824074074074074, -0.0824074074074074, -0.0824074074074074, -0.0824074074074074, -0.0824074074074074, -0.0824074074074074, -0.0824074074074074, -0.08611111111111111]"	"[-0.36574074074074076, -0.36574074074074076, -0.36574074074074076, -0.36574074074074076, -0.36574074074074076, -0.36574074074074076, -0.36574074074074076, -0.36574074074074076, -0.36574074074074076, -0.36574074074074076, -0.36574074074074076, -0.36574074074074076, -0.36574074074074076, -0.36574074074074076, -0.36574074074074076, -0.36574074074074076, -0.36574074074074076, -0.36574074074074076, -0.36574074074074076, -0.36574074074074076, -0.22037037037037038]"	"[1, 1, 1, 1, 1, 1, 1, 1, 1, 1, 1, 1, 1, 1, 1, 1, 1, 1, 1, 1, 0]"	"[0, 0, 0, 0, 0, 0, 0, 0, 0, 0, 0, 0, 0, 0, 0, 0, 0, 0, 0, 0, 0]"	"[0, 0, 0, 0, 0, 0, 0, 0, 0, 0, 0, 0, 0, 0, 0, 0, 0, 0, 0, 0, 1]"	"[0.7003267000000051, 0.9338302000032854, 1.2088427000016964, 1.4755868000029295, 1.7505293000031088, 1.9755795000019134, 2.2005882000012207, 2.425500600002124, 2.6421316000014485, 2.875471800001833, 3.142301400002907, 3.4422106000019994, 3.70069340000191, 3.9340969000004407, 4.184093900003063, 4.433952800001862, 4.792500400002609, 5.100749299999734, 5.517439200000808, 5.925898700003017, 6.709073300000455]"	20	"[0.6961494999995921, 0.9296503999976267, 1.2046678999977303, 1.471412999999302, 1.7463489999972808, 1.971398899997439, 2.196408899999369, 2.421322099999088, 2.637957799997821, 2.8712940999976126, 3.1381301999972493, 3.4380353999986255, 3.6965168999995512, 3.9299334999996063, 4.179919899997913, 4.429774399999587, 4.788322500000504, 5.0965708999974595, 5.513264199998957, 5.921730999998545]"	"[0.7877174999994168, 1.0544473999980255, 1.32956909999848, 1.6294003999973938, 1.8628226999971957, 2.0878341999996337, 2.3044501000003947, 2.521143199999642, 2.7461335999978473, 2.971198100000038, 3.304538999997021, 3.5712461000002804, 3.8046428999987256, 4.062983799998619, 4.287916299999779, 4.546278599998914, 4.91297940000004, 5.2129752000000735, 5.629688900000474, 6.046422799998254]"	340.26395919999777	340.2697236999993	341.761731300001	341.7698266999978								18	01	2024-02-08_15h07.20.116	BART_exp	2023.2.3	119.97917161259792	2024-02-08 15h07.35.586734 +0100	
																																														341.7617668999992	341.7698266999978	341.7698266999978	351.8542583999988	space	10.076536900000065	None	18	01	2024-02-08_15h07.20.116	BART_exp	2023.2.3	119.97917161259792	2024-02-08 15h07.35.586734 +0100	
