"image"	"max_pumps"	"pump_loop.thisRepN"	"pump_loop.thisTrialN"	"pump_loop.thisN"	"pump_loop.thisIndex"	"thisRow.t"	"notes"	"Start.started"	"text_start.started"	"continue_start.started"	"mouse_start.started"	"Start.stopped"	"mouse_start.x"	"mouse_start.y"	"mouse_start.leftButton"	"mouse_start.midButton"	"mouse_start.rightButton"	"mouse_start.time"	"trials.started"	"stim_balloon.started"	"stim_balloon_burst.started"	"stim_balloon_burst.stopped"	"text_ballon_value.started"	"text_bank.started"	"mouse.started"	"sound_bang.started"	"sound_bang.stopped"	"button_balloon.started"	"trials.stopped"	"n_pumps"	"earnings"	"popped"	"mouse.x"	"mouse.y"	"mouse.leftButton"	"mouse.midButton"	"mouse.rightButton"	"mouse.time"	"button_balloon.numClicks"	"button_balloon.timesOn"	"button_balloon.timesOff"	"Feedback.started"	"text_feedback.started"	"Feedback.stopped"	"text_feedback.stopped"	"End.started"	"text_end.started"	"key_end.started"	"End.stopped"	"key_end.keys"	"key_end.rt"	"key_end.duration"	"participant"	"session"	"date"	"expName"	"psychopyVersion"	"frameRate"	"expStart"	"...61"
NA	NA	NA	NA	NA	NA	NA	NA	0.0469472000113456	0.0585680000076536	0.0585680000076536	0.0472757999959867	178.121428900005	"[0.6694444444444444]"	"[-0.40185185185185185]"	"[1]"	"[0]"	"[0]"	"[178.0735136000003]"	NA	NA	NA	NA	NA	NA	NA	NA	NA	NA	NA	NA	NA	NA	NA	NA	NA	NA	NA	NA	NA	NA	NA	NA	NA	NA	NA	NA	NA	NA	NA	NA	NA	NA	14	"02"	"2024-02-07_15h21.42.956"	"BART_exp"	"2023.2.3"	119.93197460356	"2024-02-07 15h22.01.255697 +0100"	NA
"balloon.png"	123	0	0	0	28	178.18740580001	NA	NA	NA	NA	NA	NA	NA	NA	NA	NA	NA	NA	178.129044000001	178.18740580001	178.18740580001	178.18740580001	178.18740580001	178.18740580001	0.00938659999519586	0.00938659999519586	0.00938659999519586	178.18740580001	195.882169600009	20	1	FALSE	"[-0.1175925925925926, -0.1175925925925926, -0.1175925925925926, -0.1175925925925926, -0.1175925925925926, -0.1175925925925926, -0.1175925925925926, -0.1175925925925926, -0.1175925925925926, -0.1175925925925926, -0.1175925925925926, -0.1175925925925926, -0.1175925925925926, -0.1175925925925926, -0.1175925925925926, -0.1175925925925926, -0.1175925925925926, -0.1175925925925926, -0.1175925925925926, -0.1175925925925926, -0.05185185185185185]"	"[-0.38333333333333336, -0.38333333333333336, -0.38333333333333336, -0.38333333333333336, -0.38333333333333336, -0.38333333333333336, -0.38333333333333336, -0.38333333333333336, -0.38333333333333336, -0.38333333333333336, -0.38333333333333336, -0.38333333333333336, -0.38333333333333336, -0.38333333333333336, -0.38333333333333336, -0.38333333333333336, -0.38333333333333336, -0.38333333333333336, -0.38333333333333336, -0.38333333333333336, -0.2537037037037037]"	"[1, 1, 1, 1, 1, 1, 1, 1, 1, 1, 1, 1, 1, 1, 1, 1, 1, 1, 1, 1, 0]"	"[0, 0, 0, 0, 0, 0, 0, 0, 0, 0, 0, 0, 0, 0, 0, 0, 0, 0, 0, 0, 0]"	"[0, 0, 0, 0, 0, 0, 0, 0, 0, 0, 0, 0, 0, 0, 0, 0, 0, 0, 0, 0, 1]"	"[2.150941600004444, 3.2592327000020305, 3.917571300000418, 5.317678399995202, 5.809551300000749, 6.30107250000583, 6.792973000003258, 7.976372499993886, 9.101272900006734, 9.768207500004792, 10.643055799999274, 11.159957199997734, 12.059816199995112, 12.993422100000316, 14.118301499998779, 14.943469699996058, 15.6184690999944, 16.193593400006648, 16.57718350000505, 17.060149199998705, 17.752162300006603]"	20	"[2.1043811999988975, 3.2126771999901393, 3.8710073999973247, 5.27112119999947, 5.762994799995795, 6.254513099993346, 6.7464176999928895, 7.929813700000523, 9.054719699997804, 9.721652099993662, 10.59649769999669, 11.11340139999811, 12.013259100000141, 12.946863799996208, 14.071742899992387, 14.896911899995757, 15.571908699988853, 16.147032699998817, 16.53064749999612, 17.013590100003057]"	"[2.2374166999943554, 3.3542160999932094, 3.9792092999996385, 5.395973199993023, 5.887790900000255, 6.379370199996629, 6.829426099997363, 8.07118869999249, 9.221436799998628, 9.896275199993397, 10.713030500002787, 11.22139839999727, 12.129770400002599, 13.09651259999373, 14.254977499993402, 15.021628599992255, 15.705122100000153, 16.280058699994697, 16.663660399994114, 17.096777300001122]"	195.883800399999	195.896883000009	197.388787500007	NA	NA	NA	NA	NA	NA	NA	NA	14	"02"	"2024-02-07_15h21.42.956"	"BART_exp"	"2023.2.3"	119.93197460356	"2024-02-07 15h22.01.255697 +0100"	NA
"balloon.png"	97	0	1	1	22	197.405388700005	NA	NA	NA	NA	NA	NA	NA	NA	NA	NA	NA	NA	197.38897890001	197.405388700005	197.405388700005	197.405388700005	197.405388700005	197.405388700005	0.00644060000195168	0.00644060000195168	0.00644060000195168	197.405388700005	210.316333100011	22	1.1	FALSE	"[-0.06111111111111111, -0.06111111111111111, -0.06111111111111111, -0.06111111111111111, -0.06111111111111111, -0.06111111111111111, -0.06111111111111111, -0.06111111111111111, -0.06111111111111111, -0.06111111111111111, -0.06111111111111111, -0.06111111111111111, -0.06111111111111111, -0.06111111111111111, -0.06111111111111111, -0.06111111111111111, -0.06111111111111111, -0.06111111111111111, -0.06111111111111111, -0.06111111111111111, -0.06111111111111111, -0.06111111111111111, 0.018518518518518517]"	"[-0.37962962962962965, -0.37962962962962965, -0.37962962962962965, -0.37962962962962965, -0.37962962962962965, -0.37962962962962965, -0.37962962962962965, -0.37962962962962965, -0.37962962962962965, -0.37962962962962965, -0.37962962962962965, -0.37962962962962965, -0.37962962962962965, -0.37962962962962965, -0.37962962962962965, -0.37962962962962965, -0.37962962962962965, -0.37962962962962965, -0.37962962962962965, -0.37962962962962965, -0.37962962962962965, -0.37962962962962965, -0.16018518518518518]"	"[1, 1, 1, 1, 1, 1, 1, 1, 1, 1, 1, 1, 1, 1, 1, 1, 1, 1, 1, 1, 1, 1, 0]"	"[0, 0, 0, 0, 0, 0, 0, 0, 0, 0, 0, 0, 0, 0, 0, 0, 0, 0, 0, 0, 0, 0, 0]"	"[0, 0, 0, 0, 0, 0, 0, 0, 0, 0, 0, 0, 0, 0, 0, 0, 0, 0, 0, 0, 0, 0, 1]"	"[0.8589496000058716, 1.233876300000702, 1.659119500007364, 2.1173672000004444, 2.559054900004412, 3.1424130000086734, 3.5923417000012705, 3.942532300003222, 4.4591656000120565, 5.042526000004727, 5.609129500007839, 6.19249060000584, 6.80090050000581, 7.517733800006681, 8.017637900004047, 8.492793700002949, 8.992662000004202, 9.767727300000843, 10.034518500004197, 11.151335200003814, 11.55119700000796, 11.959545100005926, 12.926439500006381]"	22	"[0.8525047000002814, 1.2274344000034034, 1.6526661999960197, 2.1109080000023823, 2.5525984999985667, 3.1359537999960594, 3.585883899999317, 3.936080100000254, 4.452713599996059, 5.036071199996513, 5.602673500005039, 6.186032700003125, 6.794441100006225, 7.51127770000312, 8.011180000001332, 8.48633770000015, 8.986197299993364, 9.761265699999058, 10.028058199997758, 11.1448803999956, 11.544741899997462, 11.953085500004818]"	"[0.9771910999988904, 1.3439051000023028, 1.7700667000026442, 2.235675599993556, 2.6939722999959486, 3.2856793999962974, 3.7274120999936713, 4.069072900005267, 4.585758300003363, 5.202593499998329, 5.744157900000573, 6.319224100006977, 6.91090930000064, 7.677662200003397, 8.18606870000076, 8.636064899998019, 9.144387199994526, 9.827801599996747, 10.161130499996943, 11.219659800000954, 11.611237899996922, 12.036327900001197]"	210.317359500012	210.322960300007	211.814938100011	211.839709300009	NA	NA	NA	NA	NA	NA	NA	14	"02"	"2024-02-07_15h21.42.956"	"BART_exp"	"2023.2.3"	119.93197460356	"2024-02-07 15h22.01.255697 +0100"	NA
"balloon.png"	44	0	2	2	10	211.839709300009	NA	NA	NA	NA	NA	NA	NA	NA	NA	NA	NA	NA	211.815114900004	211.839709300009	211.839709300009	211.839709300009	211.839709300009	211.839709300009	-0.00097090000053867	-0.00097090000053867	-0.00097090000053867	211.839709300009	224.9755	22	1.1	FALSE	"[-0.03611111111111111, -0.03611111111111111, -0.03611111111111111, -0.03611111111111111, -0.03611111111111111, -0.03611111111111111, -0.03611111111111111, -0.03611111111111111, -0.03611111111111111, -0.03611111111111111, -0.03611111111111111, -0.03611111111111111, -0.03611111111111111, -0.03611111111111111, -0.03611111111111111, -0.03611111111111111, -0.03611111111111111, -0.03611111111111111, -0.03611111111111111, -0.03611111111111111, -0.03611111111111111, -0.03611111111111111, 0.0]"	"[-0.3574074074074074, -0.3574074074074074, -0.3574074074074074, -0.3574074074074074, -0.3574074074074074, -0.3574074074074074, -0.3574074074074074, -0.3574074074074074, -0.3574074074074074, -0.3574074074074074, -0.3574074074074074, -0.3574074074074074, -0.3574074074074074, -0.3574074074074074, -0.3574074074074074, -0.3574074074074074, -0.3574074074074074, -0.3574074074074074, -0.3574074074074074, -0.3574074074074074, -0.3574074074074074, -0.3574074074074074, -0.2916666666666667]"	"[1, 1, 1, 1, 1, 1, 1, 1, 1, 1, 1, 1, 1, 1, 1, 1, 1, 1, 1, 1, 1, 1, 0]"	"[0, 0, 0, 0, 0, 0, 0, 0, 0, 0, 0, 0, 0, 0, 0, 0, 0, 0, 0, 0, 0, 0, 0]"	"[0, 0, 0, 0, 0, 0, 0, 0, 0, 0, 0, 0, 0, 0, 0, 0, 0, 0, 0, 0, 0, 0, 1]"	"[0.6338448000024073, 1.3088679000065895, 1.9920563000050606, 2.4004184999939753, 3.1171686000016052, 3.84235200000694, 4.392210599995451, 4.750574799996684, 5.400826400000369, 5.9507270000030985, 6.342349900005502, 7.134080999996513, 8.125812099999166, 8.701010000004317, 9.184312500001397, 9.617717500004801, 10.167633000004571, 10.676313699994353, 11.159387100007734, 11.660755499993684, 12.184436099996674, 12.643064100004267, 13.15948980000394]"	22	"[0.6229467999946792, 1.2979688999912469, 1.9811575999920024, 2.389515199989546, 3.1062754999875324, 3.8314476999948965, 4.381307499992545, 4.739673099989886, 5.389924099989003, 5.939831099996809, 6.331448199998704, 7.123178999987431, 8.114909399999306, 8.69010469999921, 9.173408199989353, 9.606821800000034, 10.156728699992527, 10.665414799994323, 11.14847970000119, 11.64985329999763, 12.173531199994613, 12.632167099989601]"	"[0.705966499997885, 1.3976202999911038, 2.139386299997568, 2.564371599990409, 3.2811412000010023, 3.981211699996493, 4.532560599996941, 4.889538499992341, 5.547920099998009, 6.0396130999870365, 6.481357199998456, 7.314717399989604, 8.281450399997993, 8.848136899992824, 9.314836199991987, 9.77320709999185, 10.314922899997327, 10.823262699996121, 11.290055699995719, 11.76508689999173, 12.26511649999884, 12.773439899989171]"	224.976491300011	224.982281400007	226.47426290001	226.499049000005	NA	NA	NA	NA	NA	NA	NA	14	"02"	"2024-02-07_15h21.42.956"	"BART_exp"	"2023.2.3"	119.93197460356	"2024-02-07 15h22.01.255697 +0100"	NA
"balloon.png"	75	0	3	3	17	226.499049000005	NA	NA	NA	NA	NA	NA	NA	NA	NA	NA	NA	NA	226.474441400002	226.499049000005	226.499049000005	226.499049000005	226.499049000005	226.499049000005	-0.00077280000550672	-0.00077280000550672	-0.00077280000550672	226.499049000005	239.060018900011	17	0.85	FALSE	"[-0.025, -0.025, -0.025, -0.025, -0.025, -0.025, -0.025, -0.025, -0.025, -0.025, -0.025, -0.025, -0.025, -0.025, -0.025, -0.025, -0.025, -0.017592592592592594]"	"[-0.36944444444444446, -0.36944444444444446, -0.36944444444444446, -0.36944444444444446, -0.36944444444444446, -0.36944444444444446, -0.36944444444444446, -0.36944444444444446, -0.36944444444444446, -0.36944444444444446, -0.36944444444444446, -0.36944444444444446, -0.36944444444444446, -0.36944444444444446, -0.36944444444444446, -0.36944444444444446, -0.36944444444444446, -0.31574074074074077]"	"[1, 1, 1, 1, 1, 1, 1, 1, 1, 1, 1, 1, 1, 1, 1, 1, 1, 0]"	"[0, 0, 0, 0, 0, 0, 0, 0, 0, 0, 0, 0, 0, 0, 0, 0, 0, 0]"	"[0, 0, 0, 0, 0, 0, 0, 0, 0, 0, 0, 0, 0, 0, 0, 0, 0, 1]"	"[0.5671388000046136, 1.0753486000030534, 1.4838133000012022, 1.908734299999196, 2.4850790000054985, 3.383951600000728, 3.992329900007462, 4.667272700011381, 7.475771500001429, 8.142611000002944, 8.901070100007928, 9.534395599999698, 10.050942400004715, 10.500951000009081, 10.942811700006132, 11.351166899999953, 11.892973399997572, 12.584625800009235]"	17	"[0.5562633000081405, 1.0644649000023492, 1.472933600001852, 1.8978531000029761, 2.474357900005998, 3.3730701000022236, 3.9814525000110734, 4.656386600006954, 7.464892800009693, 8.131724600010784, 8.890201500005787, 9.52351600000111, 10.04006310000841, 10.490071600012016, 10.93193250001059, 11.340288300008979, 11.882086600002367]"	"[0.7142770000064047, 1.1892933000053745, 1.6144303000037326, 2.0560125000047265, 2.6893960000015795, 3.556157200000598, 4.1480546000093454, 4.847919100007857, 7.631379600003129, 8.281485200001043, 9.073201200008043, 9.648257600012585, 10.131557400003658, 10.589922700004536, 11.02355530000932, 11.45666130000609, 12.015182900009677]"	239.060990600003	239.06658150001	240.558569000001	240.575017300012	NA	NA	NA	NA	NA	NA	NA	14	"02"	"2024-02-07_15h21.42.956"	"BART_exp"	"2023.2.3"	119.93197460356	"2024-02-07 15h22.01.255697 +0100"	NA
"balloon.png"	40	0	4	4	9	240.575017300012	NA	NA	NA	NA	NA	NA	NA	NA	NA	NA	NA	NA	240.558745700007	240.575017300012	240.575017300012	240.575017300012	240.575017300012	240.575017300012	-0.00095599998894613	-0.00095599998894613	-0.00095599998894613	240.575017300012	253.627829900011	24	1.2	FALSE	"[-0.030555555555555555, -0.030555555555555555, -0.030555555555555555, -0.030555555555555555, -0.030555555555555555, -0.030555555555555555, -0.030555555555555555, -0.030555555555555555, -0.030555555555555555, -0.030555555555555555, -0.030555555555555555, -0.030555555555555555, -0.030555555555555555, -0.030555555555555555, -0.030555555555555555, -0.030555555555555555, -0.030555555555555555, -0.030555555555555555, -0.030555555555555555, -0.030555555555555555, -0.030555555555555555, -0.030555555555555555, -0.030555555555555555, -0.030555555555555555, -0.01574074074074074]"	"[-0.37962962962962965, -0.37962962962962965, -0.37962962962962965, -0.37962962962962965, -0.37962962962962965, -0.37962962962962965, -0.37962962962962965, -0.37962962962962965, -0.37962962962962965, -0.37962962962962965, -0.37962962962962965, -0.37962962962962965, -0.37962962962962965, -0.37962962962962965, -0.37962962962962965, -0.37962962962962965, -0.37962962962962965, -0.37962962962962965, -0.37962962962962965, -0.37962962962962965, -0.37962962962962965, -0.37962962962962965, -0.37962962962962965, -0.37962962962962965, -0.3055555555555556]"	"[1, 1, 1, 1, 1, 1, 1, 1, 1, 1, 1, 1, 1, 1, 1, 1, 1, 1, 1, 1, 1, 1, 1, 1, 0]"	"[0, 0, 0, 0, 0, 0, 0, 0, 0, 0, 0, 0, 0, 0, 0, 0, 0, 0, 0, 0, 0, 0, 0, 0, 0]"	"[0, 0, 0, 0, 0, 0, 0, 0, 0, 0, 0, 0, 0, 0, 0, 0, 0, 0, 0, 0, 0, 0, 0, 0, 1]"	"[0.5254447000043001, 0.8921585000061896, 1.4755000000004657, 2.1254063000087626, 2.458899000004749, 2.8422729000012623, 3.2672845000051893, 3.80067599999893, 4.167220300005283, 4.408996400001342, 4.642428999999538, 5.092419599997811, 5.567332200007513, 6.084150200011209, 6.584026199998334, 7.042535700005828, 7.484228400004213, 7.967503300009412, 8.68435650000174, 9.16751500000828, 10.009378200003994, 10.667788899998413, 11.37602730000799, 12.567848200007575, 13.068148200007272]"	24	"[0.5182789000100456, 0.884996200009482, 1.4683313999994425, 2.118242000011378, 2.451731599998311, 2.83511179999914, 3.2601233000023058, 3.7935069000086514, 4.160053400002653, 4.40182550001191, 4.635264199998346, 5.085254100005841, 5.560168299998622, 6.0769839999993565, 6.576856400002725, 7.035367800010135, 7.477059299999382, 7.960337399999844, 8.677194400006556, 9.16034750000108, 10.00221240000974, 10.66062540000712, 11.368859300011536, 12.560683300005621]"	"[0.6262972000113223, 0.9929717000050005, 1.6013413000036962, 2.25978639999812, 2.59307919999992, 2.9514933000027668, 3.4014810000080615, 3.909849400006351, 4.276523400010774, 4.518221600010293, 4.7182620000094175, 5.1766081000096165, 5.668339500000002, 6.210022300001583, 6.693402400007471, 7.176751600010903, 7.610125600011088, 8.076951300012297, 8.868508900006418, 9.318563799999538, 10.193693799999892, 10.827025800012052, 11.552053799998248, 12.694003700002213]"	253.629137200012	253.634265400004	255.126380000002	255.142789800011	NA	NA	NA	NA	NA	NA	NA	14	"02"	"2024-02-07_15h21.42.956"	"BART_exp"	"2023.2.3"	119.93197460356	"2024-02-07 15h22.01.255697 +0100"	NA
"balloon.png"	88	0	5	5	20	255.142789800011	NA	NA	NA	NA	NA	NA	NA	NA	NA	NA	NA	NA	255.126697200001	255.142789800011	255.142789800011	255.142789800011	255.142789800011	255.142789800011	-6.670001312159e-05	-6.670001312159e-05	-6.670001312159e-05	255.142789800011	268.762012000007	22	1.1	FALSE	"[-0.046296296296296294, -0.046296296296296294, -0.046296296296296294, -0.046296296296296294, -0.046296296296296294, -0.046296296296296294, -0.046296296296296294, -0.046296296296296294, -0.046296296296296294, -0.046296296296296294, -0.046296296296296294, -0.046296296296296294, -0.046296296296296294, -0.046296296296296294, -0.046296296296296294, -0.046296296296296294, -0.046296296296296294, -0.046296296296296294, -0.046296296296296294, -0.046296296296296294, -0.046296296296296294, -0.046296296296296294, -0.001851851851851852]"	"[-0.38981481481481484, -0.38981481481481484, -0.38981481481481484, -0.38981481481481484, -0.38981481481481484, -0.38981481481481484, -0.38981481481481484, -0.38981481481481484, -0.38981481481481484, -0.38981481481481484, -0.38981481481481484, -0.38981481481481484, -0.38981481481481484, -0.38981481481481484, -0.38981481481481484, -0.38981481481481484, -0.38981481481481484, -0.38981481481481484, -0.38981481481481484, -0.38981481481481484, -0.38981481481481484, -0.38981481481481484, -0.30462962962962964]"	"[1, 1, 1, 1, 1, 1, 1, 1, 1, 1, 1, 1, 1, 1, 1, 1, 1, 1, 1, 1, 1, 1, 0]"	"[0, 0, 0, 0, 0, 0, 0, 0, 0, 0, 0, 0, 0, 0, 0, 0, 0, 0, 0, 0, 0, 0, 0]"	"[0, 0, 0, 0, 0, 0, 0, 0, 0, 0, 0, 0, 0, 0, 0, 0, 0, 0, 0, 0, 0, 0, 1]"	"[0.624617199995555, 1.4078168999985792, 1.8496825999900466, 2.0413810000027297, 2.2747093999932986, 2.5163758999988204, 3.557958699995652, 4.049835700003314, 5.091565399998217, 5.7747959999978775, 6.283306400000583, 6.866708000001381, 7.408336699998472, 8.10010159999365, 8.841837300002226, 9.425193299990497, 10.183448399999179, 10.683471800002735, 11.200193299999228, 12.033731199990143, 12.500397199997678, 13.133703500003321, 13.63381539999682]"	22	"[0.6164667999983067, 1.399670300001162, 1.8415324999950826, 2.033232100002351, 2.2665574999991804, 2.5082294000021648, 3.5498099999967963, 4.041687899996759, 5.083420900002238, 5.766640399990138, 6.275155299998005, 6.858561999993981, 7.400187699997332, 8.091948999994202, 8.833692799991695, 9.41704519999621, 10.175294699991355, 10.675318900001002, 11.192042099995888, 12.025580799992895, 12.492247499991208, 13.125555099992198]"	"[0.7161329999944428, 1.5163348999922164, 1.8996106999984477, 2.1412429999909364, 2.407927299995208, 2.6662928000005195, 3.6665582999994513, 4.1163796999899205, 5.193098599993391, 5.933140799999819, 6.433191299991449, 6.999921599999652, 7.524959799993667, 8.266646999996738, 9.058367899997393, 9.600065399994492, 10.33351749999565, 10.833488799995393, 11.350239099992905, 12.18359829999099, 12.608661799997208, 13.193445999990217]"	268.763024400003	268.7686177	270.260588400008	270.277060100008	NA	NA	NA	NA	NA	NA	NA	14	"02"	"2024-02-07_15h21.42.956"	"BART_exp"	"2023.2.3"	119.93197460356	"2024-02-07 15h22.01.255697 +0100"	NA
"balloon.png"	1	0	6	6	0	270.277060100008	NA	NA	NA	NA	NA	NA	NA	NA	NA	NA	NA	NA	270.260765700004	270.277060100008	270.277060100008	270.277060100008	270.277060100008	270.277060100008	-0.00099479999335017	-0.00099479999335017	-0.00099479999335017	270.277060100008	271.354151700012	2	0.05	TRUE	"[-0.041666666666666664, -0.041666666666666664]"	"[-0.38333333333333336, -0.38333333333333336]"	"[1, 1]"	"[0, 0]"	"[0, 0]"	"[0.6003499000071315, 1.000338500001817]"	2	"[0.5957148999877973, 0.9956990999926347]"	"[0.6621954999864101, 1.0788730999920517]"	271.354860500011	271.36889920001	272.860606600007	NA	NA	NA	NA	NA	NA	NA	NA	14	"02"	"2024-02-07_15h21.42.956"	"BART_exp"	"2023.2.3"	119.93197460356	"2024-02-07 15h22.01.255697 +0100"	NA
"balloon.png"	14	0	7	7	3	272.877256000007	NA	NA	NA	NA	NA	NA	NA	NA	NA	NA	NA	NA	272.860783200013	272.877256000007	272.877256000007	272.877256000007	272.877256000007	272.877256000007	0.00722590000077616	0.00722590000077616	0.00722590000077616	272.877256000007	278.912835700001	15	0.7	TRUE	"[-0.041666666666666664, -0.041666666666666664, -0.041666666666666664, -0.041666666666666664, -0.041666666666666664, -0.041666666666666664, -0.041666666666666664, -0.041666666666666664, -0.041666666666666664, -0.041666666666666664, -0.041666666666666664, -0.041666666666666664, -0.041666666666666664, -0.041666666666666664, -0.041666666666666664]"	"[-0.38333333333333336, -0.38333333333333336, -0.38333333333333336, -0.38333333333333336, -0.38333333333333336, -0.38333333333333336, -0.38333333333333336, -0.38333333333333336, -0.38333333333333336, -0.38333333333333336, -0.38333333333333336, -0.38333333333333336, -0.38333333333333336, -0.38333333333333336, -0.38333333333333336]"	"[1, 1, 1, 1, 1, 1, 1, 1, 1, 1, 1, 1, 1, 1, 1]"	"[0, 0, 0, 0, 0, 0, 0, 0, 0, 0, 0, 0, 0, 0, 0]"	"[0, 0, 0, 0, 0, 0, 0, 0, 0, 0, 0, 0, 0, 0, 0]"	"[0.483960700003081, 0.9256649000017205, 1.334040300003835, 1.7340709999989485, 2.0338965999981156, 2.259123499999987, 2.4924424000055296, 2.8841618000005838, 3.2424606999993557, 3.709213100009947, 4.142536900006235, 4.500907699999516, 4.959313600003952, 5.3841395000054035, 5.967664900003001]"	15	"[0.47917180000513326, 0.9208769999968354, 1.3292602000001352, 1.7292832999955863, 2.0291105000069365, 2.2543408000055933, 2.487655300006736, 2.8793785000016214, 3.2376712999976007, 3.7044256000081077, 4.137752199996612, 4.496118099996238, 4.95453400000406, 5.379357400001027, 5.96288469999854]"	"[0.5955625000060536, 1.0290355000033742, 1.445639099998516, 1.84566970000742, 2.137315200001467, 2.3706627000065055, 2.604090399996494, 3.0040847000054782, 3.354093300004024, 3.854134699999122, 4.295994100000826, 4.620913999999175, 5.029303900009836, 5.470905399997719, 6.037678699998651]"	278.913865300012	278.919321900001	280.411274099999	280.419454100003	NA	NA	NA	NA	NA	NA	NA	14	"02"	"2024-02-07_15h21.42.956"	"BART_exp"	"2023.2.3"	119.93197460356	"2024-02-07 15h22.01.255697 +0100"	NA
"balloon.png"	127	0	8	8	29	280.419454100003	NA	NA	NA	NA	NA	NA	NA	NA	NA	NA	NA	NA	280.411447999999	280.419454100003	280.419454100003	280.419454100003	280.419454100003	280.419454100003	0.00564819999272003	NA	NA	280.419454100003	292.972068200004	30	1.5	FALSE	"[-0.041666666666666664, -0.041666666666666664, -0.041666666666666664, -0.041666666666666664, -0.041666666666666664, -0.041666666666666664, -0.041666666666666664, -0.041666666666666664, -0.041666666666666664, -0.041666666666666664, -0.041666666666666664, -0.041666666666666664, -0.041666666666666664, -0.041666666666666664, -0.041666666666666664, -0.041666666666666664, -0.041666666666666664, -0.041666666666666664, -0.041666666666666664, -0.041666666666666664, -0.041666666666666664, -0.041666666666666664, -0.041666666666666664, -0.041666666666666664, -0.041666666666666664, -0.041666666666666664, -0.041666666666666664, -0.041666666666666664, -0.041666666666666664, -0.041666666666666664, -0.01574074074074074]"	"[-0.38333333333333336, -0.38333333333333336, -0.38333333333333336, -0.38333333333333336, -0.38333333333333336, -0.38333333333333336, -0.38333333333333336, -0.38333333333333336, -0.38333333333333336, -0.38333333333333336, -0.38333333333333336, -0.38333333333333336, -0.38333333333333336, -0.38333333333333336, -0.38333333333333336, -0.38333333333333336, -0.38333333333333336, -0.38333333333333336, -0.38333333333333336, -0.38333333333333336, -0.38333333333333336, -0.38333333333333336, -0.38333333333333336, -0.38333333333333336, -0.38333333333333336, -0.38333333333333336, -0.38333333333333336, -0.38333333333333336, -0.38333333333333336, -0.38333333333333336, -0.2518518518518518]"	"[1, 1, 1, 1, 1, 1, 1, 1, 1, 1, 1, 1, 1, 1, 1, 1, 1, 1, 1, 1, 1, 1, 1, 1, 1, 1, 1, 1, 1, 1, 0]"	"[0, 0, 0, 0, 0, 0, 0, 0, 0, 0, 0, 0, 0, 0, 0, 0, 0, 0, 0, 0, 0, 0, 0, 0, 0, 0, 0, 0, 0, 0, 0]"	"[0, 0, 0, 0, 0, 0, 0, 0, 0, 0, 0, 0, 0, 0, 0, 0, 0, 0, 0, 0, 0, 0, 0, 0, 0, 0, 0, 0, 0, 0, 1]"	"[0.2753210999944713, 0.5337811999925179, 0.7755897000024561, 1.00047819998872, 1.683717699997942, 2.0587210999947274, 2.4254043999972055, 2.758931999997003, 3.1589567999908468, 3.5089567999966675, 3.883882900001481, 4.233878099999856, 4.525717999989865, 4.825671400001738, 5.300796299998183, 5.759291700000176, 6.242364399993676, 6.6173767000000225, 7.085483099988778, 7.50097839999944, 7.852288399997633, 8.292702199993073, 8.734328799997456, 9.142739299990353, 9.56772049999563, 9.976101399995969, 10.450966099990183, 11.194052199993166, 11.551208099990617, 12.051140600000508, 12.559682799997972]"	30	"[0.2733957000018563, 0.5318607000081101, 0.773732800007565, 0.9985516000015195, 1.681791199996951, 2.0568014000018593, 2.423475600007805, 2.7570118000003276, 3.157031000009738, 3.507032399997115, 3.8819607000041287, 4.231952000001911, 4.523792699998012, 4.823754600001848, 5.298876800006838, 5.757377300004009, 6.240435800005798, 6.615449200005969, 7.0837213000049815, 7.49905270000454, 7.850646899998537, 8.290784900003928, 8.732415700011188, 9.14081250000163, 9.565795200003777, 9.974176800009445, 10.44904440001119, 11.192283900003531, 11.549283800006378, 12.049214200000279]"	"[0.37319620000198483, 0.6566084000078263, 0.8899098999972921, 1.164990300007048, 1.8149935000110418, 2.1650413000024855, 2.5233612000010908, 2.8733861000073375, 3.273401099999319, 3.640206500000204, 4.048453100011102, 4.365147300006356, 4.648495900008129, 4.931907600010163, 5.415227999998024, 5.881904300011229, 6.3819427999987965, 6.765355700001237, 7.190320100009558, 7.640477100008866, 8.007082800002536, 8.44875399999728, 8.849750399996992, 9.248805700000958, 9.648925300003611, 10.090526400003, 10.582301800008281, 11.298999200007529, 11.690646700008074, 12.140678299998399]"	292.97313920001	292.978609500002	294.470583500006	294.478719600011	NA	NA	NA	NA	NA	NA	NA	14	"02"	"2024-02-07_15h21.42.956"	"BART_exp"	"2023.2.3"	119.93197460356	"2024-02-07 15h22.01.255697 +0100"	NA
"balloon.png"	66	0	9	9	15	294.478719600011	NA	NA	NA	NA	NA	NA	NA	NA	NA	NA	NA	NA	294.470759000003	294.478719600011	294.478719600011	294.478719600011	294.478719600011	294.478719600011	0.00564189998840447	0.00564189998840447	0.00564189998840447	294.478719600011	306.589427800005	23	1.15	FALSE	"[-0.012962962962962963, -0.012962962962962963, -0.012962962962962963, -0.012962962962962963, -0.012962962962962963, -0.012962962962962963, -0.012962962962962963, -0.012962962962962963, -0.012962962962962963, -0.012962962962962963, -0.012962962962962963, -0.012962962962962963, -0.012962962962962963, -0.012962962962962963, -0.012962962962962963, -0.012962962962962963, -0.012962962962962963, -0.012962962962962963, -0.012962962962962963, -0.012962962962962963, -0.012962962962962963, -0.012962962962962963, -0.012962962962962963, 0.004629629629629629]"	"[-0.3925925925925926, -0.3925925925925926, -0.39444444444444443, -0.39444444444444443, -0.39444444444444443, -0.39444444444444443, -0.39444444444444443, -0.39444444444444443, -0.39444444444444443, -0.39444444444444443, -0.39444444444444443, -0.39444444444444443, -0.39444444444444443, -0.39444444444444443, -0.39444444444444443, -0.39444444444444443, -0.39444444444444443, -0.39444444444444443, -0.39444444444444443, -0.39444444444444443, -0.39444444444444443, -0.39444444444444443, -0.39444444444444443, -0.2324074074074074]"	"[1, 1, 1, 1, 1, 1, 1, 1, 1, 1, 1, 1, 1, 1, 1, 1, 1, 1, 1, 1, 1, 1, 1, 0]"	"[0, 0, 0, 0, 0, 0, 0, 0, 0, 0, 0, 0, 0, 0, 0, 0, 0, 0, 0, 0, 0, 0, 0, 0]"	"[0, 0, 0, 0, 0, 0, 0, 0, 0, 0, 0, 0, 0, 0, 0, 0, 0, 0, 0, 0, 0, 0, 0, 1]"	"[0.7588023999996949, 1.3586790999979712, 1.9420605000050273, 2.308899499999825, 2.8672681000025477, 3.4172590999951353, 4.2089976999996, 5.159227700001793, 5.567284300006577, 5.892485899996245, 6.32581310000387, 6.592386200005421, 6.809142400001292, 7.275914600002579, 7.659273600002052, 8.059286100004101, 8.359154699995997, 8.78427630000806, 9.400953899996239, 9.984299899995676, 10.442783999998937, 10.90951870000572, 11.351021900001797, 12.11775089999719]"	23	"[0.7569044999981998, 1.3567757999990135, 1.9401557000091998, 2.3069962000008672, 2.865368099999614, 3.4153518000093754, 4.20709579999675, 5.157325699998182, 5.565381000007619, 5.8905795000027865, 6.323914300010074, 6.590482700004941, 6.807236499997089, 7.2740095000044676, 7.657377600000473, 8.057387200009543, 8.357251000008546, 8.782381299999543, 9.399048000006587, 9.982392500009155, 10.44088510000438, 10.90761829999974, 11.349113800009945]"	"[0.9733171999978367, 1.4748757000052137, 2.090005400008522, 2.4650218000024324, 2.9817296999972314, 3.573455500009004, 4.373558300008881, 5.3068906999978935, 5.707024400006048, 6.016735099998186, 6.4238272000075085, 6.698663300005137, 6.9236845999985235, 7.382140400004573, 7.783356200001435, 8.17380810000759, 8.498817300001974, 8.923986299996614, 9.523854900005972, 10.140568400005577, 10.607262500008801, 11.049090000000433, 11.515647400010494]"	306.590395700012	306.596218700011	308.088200700004	308.104650500012	NA	NA	NA	NA	NA	NA	NA	14	"02"	"2024-02-07_15h21.42.956"	"BART_exp"	"2023.2.3"	119.93197460356	"2024-02-07 15h22.01.255697 +0100"	NA
"balloon.png"	71	0	10	10	16	308.104650500012	NA	NA	NA	NA	NA	NA	NA	NA	NA	NA	NA	NA	308.08837540001	308.104650500012	308.104650500012	308.104650500012	308.104650500012	308.104650500012	-0.00072760001057758	-0.00072760001057758	-0.00072760001057758	308.104650500012	318.015205800009	22	1.1	FALSE	"[-0.06018518518518518, -0.06018518518518518, -0.06018518518518518, -0.06018518518518518, -0.06018518518518518, -0.06018518518518518, -0.06018518518518518, -0.06018518518518518, -0.06018518518518518, -0.06018518518518518, -0.06018518518518518, -0.06018518518518518, -0.06018518518518518, -0.06018518518518518, -0.06018518518518518, -0.06018518518518518, -0.06018518518518518, -0.06018518518518518, -0.06018518518518518, -0.06018518518518518, -0.06018518518518518, -0.06018518518518518, -0.06018518518518518]"	"[-0.3712962962962963, -0.3712962962962963, -0.3712962962962963, -0.3712962962962963, -0.3712962962962963, -0.3712962962962963, -0.3712962962962963, -0.3712962962962963, -0.3712962962962963, -0.3712962962962963, -0.3712962962962963, -0.3712962962962963, -0.3712962962962963, -0.3712962962962963, -0.3712962962962963, -0.3712962962962963, -0.3712962962962963, -0.3712962962962963, -0.3712962962962963, -0.3712962962962963, -0.3712962962962963, -0.3712962962962963, -0.3712962962962963]"	"[1, 1, 1, 1, 1, 1, 1, 1, 1, 1, 1, 1, 1, 1, 1, 1, 1, 1, 1, 1, 1, 1, 0]"	"[0, 0, 0, 0, 0, 0, 0, 0, 0, 0, 0, 0, 0, 0, 0, 0, 0, 0, 0, 0, 0, 0, 0]"	"[0, 0, 0, 0, 0, 0, 0, 0, 0, 0, 0, 0, 0, 0, 0, 0, 0, 0, 0, 0, 0, 0, 1]"	"[0.6088644999981625, 0.9670695999957388, 1.2338033999985782, 1.7088485999993281, 2.118498099996941, 2.358785699994769, 2.8255853000009665, 3.158767100001569, 3.4172899999975925, 3.8256637000013143, 4.158838199989987, 4.550529499989352, 5.067257199989399, 5.442458699995768, 5.767465699987952, 6.150791499996558, 6.61757819999184, 7.05919339999673, 7.717506000000867, 8.159109299987904, 8.900856299995212, 9.592688799995813, 9.925906399992527]"	23	"[0.6019606000045314, 0.960169500001939, 1.2268995000049472, 1.701944700005697, 2.111761699998169, 2.351884000003338, 2.818682400000398, 3.151865200008615, 3.410391099998378, 3.8187567999993917, 4.15193530000397, 4.543626600003336, 5.060357700000168, 5.435558500001207, 5.7605664000002434, 6.143886700010626, 6.610674700001255, 7.052288200007752, 7.7106033000018215, 8.152203000005102, 8.893957200009027, 9.585786399999051, 9.91893820000405]"	"[0.7100960000097984, 1.0765856000070926, 1.3432830000092508, 1.8349969999981113, 2.2433770000061486, 2.4767242000089027, 2.935049699997762, 3.268381700007012, 3.551743500007433, 3.960122999997111, 4.276817100006156, 4.660382400004892, 5.201954800009844, 5.560218400001759, 5.918642500007991, 6.310269499997958, 6.7352997999987565, 7.202143400005298, 7.835362800004077, 8.277171699999599, 9.002137500006938, 9.702272000009543, 9.918943199998466]"	318.016128000003	318.021991600006	319.513997400005	319.538769300008	NA	NA	NA	NA	NA	NA	NA	14	"02"	"2024-02-07_15h21.42.956"	"BART_exp"	"2023.2.3"	119.93197460356	"2024-02-07 15h22.01.255697 +0100"	NA
"balloon.png"	49	0	11	11	11	319.538769300008	NA	NA	NA	NA	NA	NA	NA	NA	NA	NA	NA	NA	319.514182700004	319.538769300008	319.538769300008	319.538769300008	319.538769300008	319.538769300008	-0.00066849999711848	-0.00066849999711848	-0.00066849999711848	319.538769300008	330.049565100009	22	1.1	FALSE	"[-0.06018518518518518, -0.06018518518518518, -0.06018518518518518, -0.06018518518518518, -0.06018518518518518, -0.06018518518518518, -0.06018518518518518, -0.06018518518518518, -0.06018518518518518, -0.06018518518518518, -0.06018518518518518, -0.06018518518518518, -0.06018518518518518, -0.06018518518518518, -0.06018518518518518, -0.06018518518518518, -0.06018518518518518, -0.06018518518518518, -0.06018518518518518, -0.06018518518518518, -0.06018518518518518, -0.06018518518518518, -0.06018518518518518]"	"[-0.3712962962962963, -0.3712962962962963, -0.3712962962962963, -0.3712962962962963, -0.3712962962962963, -0.3712962962962963, -0.3712962962962963, -0.3712962962962963, -0.3712962962962963, -0.3712962962962963, -0.3712962962962963, -0.3712962962962963, -0.3712962962962963, -0.3712962962962963, -0.3712962962962963, -0.3712962962962963, -0.3712962962962963, -0.3712962962962963, -0.3712962962962963, -0.3712962962962963, -0.3712962962962963, -0.3712962962962963, -0.3712962962962963]"	"[1, 1, 1, 1, 1, 1, 1, 1, 1, 1, 1, 1, 1, 1, 1, 1, 1, 1, 1, 1, 1, 1, 0]"	"[0, 0, 0, 0, 0, 0, 0, 0, 0, 0, 0, 0, 0, 0, 0, 0, 0, 0, 0, 0, 0, 0, 0]"	"[0, 0, 0, 0, 0, 0, 0, 0, 0, 0, 0, 0, 0, 0, 0, 0, 0, 0, 0, 0, 0, 0, 1]"	"[0.4752862000023015, 0.8670964000048116, 1.3588106999959564, 1.8836897000001045, 2.25882420000562, 2.6837476000073366, 2.9923319999943487, 3.4423146000044653, 3.7838793999981135, 4.225688999998965, 4.692220400000224, 4.975740299996687, 5.534223499998916, 6.009261400002288, 6.567589700003737, 7.142571400007, 7.992711800005054, 8.425956499995664, 8.909185700002126, 9.300875200002338, 9.659236499996041, 10.184424899998703, 10.534454699998605]"	22	"[0.4636800000007497, 0.8554876999987755, 1.3472005000076024, 1.8720753000088735, 2.2472075000114273, 2.672130400009337, 2.9807275000057416, 3.430701200006297, 3.7722678999998607, 4.214073300012387, 4.6806047999998555, 4.964123700003256, 5.52261030000227, 5.997655700004543, 6.555974000002607, 7.1309553000028245, 7.981101600002148, 8.414343100012047, 9.2892559000029, 9.647623000011663, 10.172813100012718, 10.522788300004322]"	"[0.6051952000125311, 0.9969056000118144, 1.438589099998353, 1.9302859000017634, 2.3636407000012696, 2.7969991999998456, 3.138706400000956, 3.580389400012791, 3.922069600012037, 4.363779000006616, 4.780527700000675, 5.122157900012098, 5.713869300001534, 6.155561100007617, 6.697361200000159, 7.305696600000374, 8.147468900002423, 9.047422100004042, 9.405891500005964, 9.739144800012582, 10.314230900010443, 10.522793100011768]"	330.050536499999	330.056151600002	331.548122799999	331.564587100002	NA	NA	NA	NA	NA	NA	NA	14	"02"	"2024-02-07_15h21.42.956"	"BART_exp"	"2023.2.3"	119.93197460356	"2024-02-07 15h22.01.255697 +0100"	NA
"balloon.png"	23	0	12	12	5	331.564587100002	NA	NA	NA	NA	NA	NA	NA	NA	NA	NA	NA	NA	331.548296699999	331.564587100002	331.564587100002	331.564587100002	331.564587100002	331.564587100002	-0.00095640000654384	-0.00095640000654384	-0.00095640000654384	331.564587100002	341.842273900009	24	1.15	TRUE	"[-0.06018518518518518, -0.06018518518518518, -0.06018518518518518, -0.06018518518518518, -0.06018518518518518, -0.06018518518518518, -0.06018518518518518, -0.06018518518518518, -0.06018518518518518, -0.06018518518518518, -0.06018518518518518, -0.06018518518518518, -0.06018518518518518, -0.06018518518518518, -0.06018518518518518, -0.06018518518518518, -0.06018518518518518, -0.06018518518518518, -0.06018518518518518, -0.06018518518518518, -0.06018518518518518, -0.06018518518518518, -0.06018518518518518, -0.06018518518518518]"	"[-0.3712962962962963, -0.3712962962962963, -0.3712962962962963, -0.3712962962962963, -0.3712962962962963, -0.3712962962962963, -0.3712962962962963, -0.3712962962962963, -0.3712962962962963, -0.3712962962962963, -0.3712962962962963, -0.3712962962962963, -0.3712962962962963, -0.3712962962962963, -0.3712962962962963, -0.3712962962962963, -0.3712962962962963, -0.3712962962962963, -0.3712962962962963, -0.3712962962962963, -0.3712962962962963, -0.3712962962962963, -0.3712962962962963, -0.3712962962962963]"	"[1, 1, 1, 1, 1, 1, 1, 1, 1, 1, 1, 1, 1, 1, 1, 1, 1, 1, 1, 1, 1, 1, 1, 1]"	"[0, 0, 0, 0, 0, 0, 0, 0, 0, 0, 0, 0, 0, 0, 0, 0, 0, 0, 0, 0, 0, 0, 0, 0]"	"[0, 0, 0, 0, 0, 0, 0, 0, 0, 0, 0, 0, 0, 0, 0, 0, 0, 0, 0, 0, 0, 0, 0, 0]"	"[0.32552969999960624, 0.6587943999911658, 0.900493599998299, 1.1087970999942627, 1.5755484999972396, 2.0170746999938274, 2.4420836999925086, 2.850559400001657, 3.117310499990708, 3.375686200000928, 3.7506726999999955, 4.184028200004832, 4.600570199996582, 5.033960899992962, 5.458967099999427, 5.875800599998911, 6.425690599993686, 6.8091178000031505, 7.234135799997603, 8.15936750000401, 8.650873399994452, 9.126062499999534, 9.65103910000471, 10.13446469999326]"	24	"[0.31829589999688324, 0.651568799992674, 0.893267499996, 1.101565599994501, 1.5683186999958707, 2.0098457999993116, 2.434856199994101, 2.843332199990982, 3.1100773999933153, 3.3684542999981204, 3.7434441999939736, 4.176793999999063, 4.593340499995975, 5.026732300000731, 5.451733099995181, 5.868571899991366, 6.418459599997732, 6.80188790000102, 7.226903200004017, 8.152141099999426, 8.643644399999175, 9.118834099994274, 9.643806499996572, 10.127235299994936]"	"[0.4514424999943003, 0.7679262000019662, 1.0012811999913538, 1.251339199996437, 1.7263853999902494, 2.168064099998446, 2.568099500000244, 2.9514132000040263, 3.209843799995724, 3.4931641000002855, 3.901517199992668, 4.30988059999072, 4.751527899992652, 5.201589000003878, 5.618321999994805, 6.018281199998455, 6.526696799992351, 6.926685899990844, 7.368379099993035, 8.310198099992704, 8.793576199997915, 9.27683829999296, 9.79354109999258, 10.276930799998809]"	341.843237100009	341.848665900005	343.340653300009	343.348730700003	NA	NA	NA	NA	NA	NA	NA	14	"02"	"2024-02-07_15h21.42.956"	"BART_exp"	"2023.2.3"	119.93197460356	"2024-02-07 15h22.01.255697 +0100"	NA
"balloon.png"	84	0	13	13	19	343.348730700003	NA	NA	NA	NA	NA	NA	NA	NA	NA	NA	NA	NA	343.340828	343.348730700003	343.348730700003	343.348730700003	343.348730700003	343.348730700003	0.00555509999685455	NA	NA	343.348730700003	352.550905399999	22	1.1	FALSE	"[-0.06018518518518518, -0.06018518518518518, -0.06018518518518518, -0.06018518518518518, -0.06018518518518518, -0.06018518518518518, -0.06018518518518518, -0.06018518518518518, -0.06018518518518518, -0.06018518518518518, -0.06018518518518518, -0.06018518518518518, -0.06018518518518518, -0.06018518518518518, -0.06018518518518518, -0.06018518518518518, -0.06018518518518518, -0.06018518518518518, -0.06018518518518518, -0.06018518518518518, -0.06018518518518518, -0.06018518518518518, -0.06018518518518518]"	"[-0.3712962962962963, -0.3712962962962963, -0.3712962962962963, -0.3712962962962963, -0.3712962962962963, -0.3712962962962963, -0.3712962962962963, -0.3712962962962963, -0.3712962962962963, -0.3712962962962963, -0.3712962962962963, -0.3712962962962963, -0.3712962962962963, -0.3712962962962963, -0.3712962962962963, -0.3712962962962963, -0.3712962962962963, -0.3712962962962963, -0.3712962962962963, -0.3712962962962963, -0.3712962962962963, -0.3712962962962963, -0.3712962962962963]"	"[1, 1, 1, 1, 1, 1, 1, 1, 1, 1, 1, 1, 1, 1, 1, 1, 1, 1, 1, 1, 1, 1, 0]"	"[0, 0, 0, 0, 0, 0, 0, 0, 0, 0, 0, 0, 0, 0, 0, 0, 0, 0, 0, 0, 0, 0, 0]"	"[0, 0, 0, 0, 0, 0, 0, 0, 0, 0, 0, 0, 0, 0, 0, 0, 0, 0, 0, 0, 0, 0, 1]"	"[0.2753762999927858, 0.667113799994695, 1.1171179999946617, 1.5836657000036212, 1.9089089999906719, 2.2170489999989513, 2.775558399996953, 3.3754851999983657, 3.8338404999958584, 4.267320600003586, 4.617262999992818, 5.050586999990628, 5.41725499999302, 5.68412669999816, 6.03419639999629, 6.434004499998991, 6.817541700002039, 7.192403799999738, 7.542614299993147, 8.167486699996516, 8.559165500002564, 8.942674599995371, 9.209176499993191]"	23	"[0.27344400000583846, 0.6651820999977645, 1.1151927000028081, 1.581737400003476, 1.9069836999988183, 2.215126000010059, 2.773629000002984, 3.373559900006512, 3.831911000001128, 4.265393299996504, 4.615331299995887, 5.048661699998775, 5.415325399997528, 5.682198900001822, 6.032269500006805, 6.432069500006037, 6.815611099998932, 7.190472700007376, 7.540685600004508, 8.165555900006439, 8.557238499997766, 8.940751400004956, 9.20718160000979]"	"[0.3981571000040276, 0.8148827999975765, 1.2815629999968223, 1.7482612000021618, 2.048422899999423, 2.3484390000085114, 2.9316683000070043, 3.4567011000035563, 3.9817470999987563, 4.398448100007954, 4.723610100001679, 5.1318313000083435, 5.46517500000482, 5.7985428999963915, 6.156994400007534, 6.581929200008744, 6.948657400003867, 7.298643700007233, 7.698672500002431, 8.265471400009119, 8.648729699998512, 9.032119199997396, 9.207186300001922]"	352.551909900008	352.557765200007	354.049664900012	354.066133	NA	NA	NA	NA	NA	NA	NA	14	"02"	"2024-02-07_15h21.42.956"	"BART_exp"	"2023.2.3"	119.93197460356	"2024-02-07 15h22.01.255697 +0100"	NA
"balloon.png"	114	0	14	14	26	354.066133	NA	NA	NA	NA	NA	NA	NA	NA	NA	NA	NA	NA	354.0498525	354.066133	354.066133	354.066133	354.066133	354.066133	-0.00077169999713078	-0.00077169999713078	-0.00077169999713078	354.066133	365.851988400012	23	1.15	FALSE	"[-0.06018518518518518, -0.06018518518518518, -0.06018518518518518, -0.06018518518518518, -0.06018518518518518, -0.06018518518518518, -0.06018518518518518, -0.06018518518518518, -0.06018518518518518, -0.06018518518518518, -0.06018518518518518, -0.06018518518518518, -0.06018518518518518, -0.06018518518518518, -0.06018518518518518, -0.06018518518518518, -0.06018518518518518, -0.06018518518518518, -0.06018518518518518, -0.06018518518518518, -0.06018518518518518, -0.06018518518518518, -0.06018518518518518, -0.06018518518518518]"	"[-0.3712962962962963, -0.3712962962962963, -0.3712962962962963, -0.3712962962962963, -0.3712962962962963, -0.3712962962962963, -0.3712962962962963, -0.3712962962962963, -0.3712962962962963, -0.3712962962962963, -0.3712962962962963, -0.3712962962962963, -0.3712962962962963, -0.3712962962962963, -0.3712962962962963, -0.3712962962962963, -0.3712962962962963, -0.3712962962962963, -0.3712962962962963, -0.3712962962962963, -0.3712962962962963, -0.3712962962962963, -0.3712962962962963, -0.3712962962962963]"	"[1, 1, 1, 1, 1, 1, 1, 1, 1, 1, 1, 1, 1, 1, 1, 1, 1, 1, 1, 1, 1, 1, 1, 0]"	"[0, 0, 0, 0, 0, 0, 0, 0, 0, 0, 0, 0, 0, 0, 0, 0, 0, 0, 0, 0, 0, 0, 0, 0]"	"[0, 0, 0, 0, 0, 0, 0, 0, 0, 0, 0, 0, 0, 0, 0, 0, 0, 0, 0, 0, 0, 0, 0, 1]"	"[0.4919582000002265, 0.8586821000062628, 1.2754353000054834, 1.6587498000008054, 2.117205100003048, 2.550579700007802, 2.9756174000067404, 3.4338489000074333, 3.850529800009099, 4.32567000000563, 4.784086200001184, 5.2923322999995435, 5.700795500000822, 6.2175720000086585, 6.675941400011652, 7.100770700009889, 7.642482399998698, 8.226014400002896, 8.717665800009854, 9.192709800001467, 10.001174600009108, 10.926213900005678, 11.567878100002417, 11.801239400010672]"	24	"[0.48620349999691825, 0.8529319000081159, 1.2696750000031898, 1.6529892999969888, 2.111447000002954, 2.5448230000038166, 2.969858700002078, 3.4280878999998095, 3.8447733000066364, 4.319908300007228, 4.778326900006505, 5.286572099998011, 5.6950356000015745, 6.211814100010088, 6.670195300001069, 7.095008800009964, 7.636720700000296, 8.220258700006525, 8.711907999997493, 9.186961500003235, 9.995419600003515, 10.920462699999916, 11.562117399997078, 11.795421300004818]"	"[0.6360909000068204, 0.9944171000097413, 1.4027789999963716, 1.7111622000084026, 2.2445111999986693, 2.686234000007971, 3.1279172000067774, 3.5529384999972535, 3.9696274000016274, 4.469693799997913, 4.936354600009508, 5.444724400003906, 5.869759299996076, 6.3531231000088155, 6.769898900005501, 7.236524400010239, 7.736736899998505, 8.361595900001703, 8.844951899998705, 9.311687399997027, 10.186742699996103, 11.061770500004059, 11.720219700000598, 11.795425600008457]"	365.85295130001	365.858607500006	367.350628800006	367.367064200007	NA	NA	NA	NA	NA	NA	NA	14	"02"	"2024-02-07_15h21.42.956"	"BART_exp"	"2023.2.3"	119.93197460356	"2024-02-07 15h22.01.255697 +0100"	NA
"balloon.png"	10	0	15	15	2	367.367064200007	NA	NA	NA	NA	NA	NA	NA	NA	NA	NA	NA	NA	367.350813800003	367.367064200007	367.367064200007	367.367064200007	367.367064200007	367.367064200007	-0.00084750000678468	-0.00084750000678468	-0.00084750000678468	367.367064200007	373.386092100001	11	0.5	TRUE	"[-0.06018518518518518, -0.06018518518518518, -0.06018518518518518, -0.06018518518518518, -0.06018518518518518, -0.06018518518518518, -0.06018518518518518, -0.06018518518518518, -0.06018518518518518, -0.06018518518518518, -0.06018518518518518]"	"[-0.3712962962962963, -0.3712962962962963, -0.3712962962962963, -0.3712962962962963, -0.3712962962962963, -0.3712962962962963, -0.3712962962962963, -0.3712962962962963, -0.3712962962962963, -0.3712962962962963, -0.3712962962962963]"	"[1, 1, 1, 1, 1, 1, 1, 1, 1, 1, 1]"	"[0, 0, 0, 0, 0, 0, 0, 0, 0, 0, 0]"	"[0, 0, 0, 0, 0, 0, 0, 0, 0, 0, 0]"	"[1.2421578000066802, 1.6587952000118094, 2.1836793000111356, 2.658878600006574, 3.0839049000060186, 3.5089268000010634, 4.267321600011201, 4.700673800005461, 5.109091200007242, 5.500728099999833, 5.884079100011149]"	11	"[1.237225100005162, 1.6538613000011537, 2.178739900002256, 2.653945800004294, 3.078972300005262, 3.5039891000051284, 4.262391700001899, 4.695735800007242, 5.104164600008517, 5.495790200002375, 5.879160199998296]"	"[1.345204700002796, 1.8202405000047293, 2.3369747000106145, 2.80362530000275, 3.2203525000077207, 3.6704246000008425, 4.387115999998059, 4.845633300006739, 5.237167500003125, 5.653865900007077, 6.020513100011158]"	373.386800000007	373.39245520001	374.884424600008	374.909252000012	NA	NA	NA	NA	NA	NA	NA	14	"02"	"2024-02-07_15h21.42.956"	"BART_exp"	"2023.2.3"	119.93197460356	"2024-02-07 15h22.01.255697 +0100"	NA
"balloon.png"	57	0	16	16	13	374.909252000012	NA	NA	NA	NA	NA	NA	NA	NA	NA	NA	NA	NA	374.884601800004	374.909252000012	374.909252000012	374.909252000012	374.909252000012	374.909252000012	-0.00035479999496601	-0.00035479999496601	-0.00035479999496601	374.909252000012	385.711506000007	22	1.1	FALSE	"[-0.06018518518518518, -0.06018518518518518, -0.06018518518518518, -0.06018518518518518, -0.06018518518518518, -0.06018518518518518, -0.06018518518518518, -0.06018518518518518, -0.06018518518518518, -0.06018518518518518, -0.06018518518518518, -0.06018518518518518, -0.06018518518518518, -0.06018518518518518, -0.06018518518518518, -0.06018518518518518, -0.06018518518518518, -0.06018518518518518, -0.06018518518518518, -0.06018518518518518, -0.06018518518518518, -0.06018518518518518, -0.06018518518518518]"	"[-0.3712962962962963, -0.3712962962962963, -0.3712962962962963, -0.3712962962962963, -0.3712962962962963, -0.3712962962962963, -0.3712962962962963, -0.3712962962962963, -0.3712962962962963, -0.3712962962962963, -0.3712962962962963, -0.3712962962962963, -0.3712962962962963, -0.3712962962962963, -0.3712962962962963, -0.3712962962962963, -0.3712962962962963, -0.3712962962962963, -0.3712962962962963, -0.3712962962962963, -0.3712962962962963, -0.3712962962962963, -0.3712962962962963]"	"[1, 1, 1, 1, 1, 1, 1, 1, 1, 1, 1, 1, 1, 1, 1, 1, 1, 1, 1, 1, 1, 1, 0]"	"[0, 0, 0, 0, 0, 0, 0, 0, 0, 0, 0, 0, 0, 0, 0, 0, 0, 0, 0, 0, 0, 0, 0]"	"[0, 0, 0, 0, 0, 0, 0, 0, 0, 0, 0, 0, 0, 0, 0, 0, 0, 0, 0, 0, 0, 0, 1]"	"[0.45025280000118073, 1.0254640000057407, 1.6253349000035087, 2.0087883999949554, 2.5172549999988405, 2.9255964000039967, 3.550657100000535, 4.06730979999702, 4.6424161000031745, 5.084045499999775, 5.55077380000148, 5.942458999998053, 6.350858000005246, 6.775848100005533, 7.217405300005339, 7.650750700006029, 8.07600139999704, 8.52595250000013, 8.984264700004132, 9.400867599993944, 10.109405900002457, 10.584327799995663, 10.825950800004648]"	23	"[0.43922919999749865, 1.0144498000008753, 1.6143120000051567, 1.9977694999979576, 2.5062367000064114, 2.9145757000078447, 3.5396337999991374, 4.056289100000868, 4.631426100007957, 5.073027799997362, 5.53975409999839, 5.931435599995893, 6.339839899999788, 6.764827299994067, 7.206388000005973, 7.639728299996932, 8.064979200004018, 8.514933099999325, 8.97324110000045, 9.38984970000456, 10.098387799996999, 10.57330620000721, 10.814869299996644]"	"[0.589118400006555, 1.1558164000016404, 1.7391787999949884, 2.147528500005137, 2.639303000003565, 3.0476007999968715, 3.7309674999996787, 4.197683000005782, 4.722706900007324, 5.23945609999646, 5.664426799994544, 6.047801900000195, 6.464492500002962, 6.915938799997093, 7.356227600001148, 7.764590599996154, 8.214734199995291, 8.66465910000261, 9.039667699995334, 9.514828800005489, 10.248092199995881, 10.706533599994145, 10.814873800001806]"	385.712499400004	385.718347200003	387.210266599999	387.22673580001	NA	NA	NA	NA	NA	NA	NA	14	"02"	"2024-02-07_15h21.42.956"	"BART_exp"	"2023.2.3"	119.93197460356	"2024-02-07 15h22.01.255697 +0100"	NA
"balloon.png"	105	0	17	17	24	387.22673580001	NA	NA	NA	NA	NA	NA	NA	NA	NA	NA	NA	NA	387.210444200013	387.22673580001	387.22673580001	387.22673580001	387.22673580001	387.22673580001	-0.00076709999120794	-0.00076709999120794	-0.00076709999120794	387.22673580001	394.978992300006	17	0.85	FALSE	"[-0.06018518518518518, -0.06018518518518518, -0.06018518518518518, -0.06018518518518518, -0.06018518518518518, -0.06018518518518518, -0.06018518518518518, -0.06018518518518518, -0.06018518518518518, -0.06018518518518518, -0.06018518518518518, -0.06018518518518518, -0.06018518518518518, -0.06018518518518518, -0.06018518518518518, -0.06018518518518518, -0.06018518518518518, -0.06018518518518518]"	"[-0.3712962962962963, -0.3712962962962963, -0.3712962962962963, -0.3712962962962963, -0.3712962962962963, -0.3712962962962963, -0.3712962962962963, -0.3712962962962963, -0.3712962962962963, -0.3712962962962963, -0.3712962962962963, -0.3712962962962963, -0.3712962962962963, -0.3712962962962963, -0.3712962962962963, -0.3712962962962963, -0.3712962962962963, -0.3712962962962963]"	"[1, 1, 1, 1, 1, 1, 1, 1, 1, 1, 1, 1, 1, 1, 1, 1, 1, 0]"	"[0, 0, 0, 0, 0, 0, 0, 0, 0, 0, 0, 0, 0, 0, 0, 0, 0, 0]"	"[0, 0, 0, 0, 0, 0, 0, 0, 0, 0, 0, 0, 0, 0, 0, 0, 0, 1]"	"[0.3671251000050688, 1.1505082000076072, 1.6088727000023937, 1.9588912000035634, 2.733926100001554, 3.058818000004976, 3.3506543999974383, 3.8090898000082234, 4.217369600009988, 4.600730799997109, 5.033960000000661, 5.40080869999656, 5.850697900008527, 6.150885600000038, 6.592394899998908, 7.00996500000474, 7.384275500007789, 7.767636000004131]"	18	"[0.3619979999930365, 1.1453822000039509, 1.6037440999934915, 1.9537679999921238, 2.7287978999956977, 3.0536962000041967, 3.345530199992936, 3.8039634000015212, 4.212237999992794, 4.595608399991761, 5.028829400005634, 5.395679599998402, 5.845569099998102, 6.145755100005772, 6.587269199997536, 7.00499430000491, 7.379152900000918, 7.762448900000891]"	"[0.4783573000022443, 1.2617640999960713, 1.736761199994362, 2.1118021000002045, 2.8785052000021096, 3.161918700003298, 3.4285912000050303, 3.886912799993297, 4.311948200003826, 4.6953308999945875, 5.178675699993619, 5.520348599995486, 6.003741099993931, 6.295421699993312, 6.737127000000328, 7.137149300004239, 7.545529299997725, 7.762453499992262]"	394.97997890001	394.985612000004	396.477595000004	396.494043800005	NA	NA	NA	NA	NA	NA	NA	14	"02"	"2024-02-07_15h21.42.956"	"BART_exp"	"2023.2.3"	119.93197460356	"2024-02-07 15h22.01.255697 +0100"	NA
"balloon.png"	18	0	18	18	4	396.494043800005	NA	NA	NA	NA	NA	NA	NA	NA	NA	NA	NA	NA	396.477772000013	396.494043800005	396.494043800005	396.494043800005	396.494043800005	396.494043800005	-0.00091859999520238	-0.00091859999520238	-0.00091859999520238	396.494043800005	404.146525300006	19	0.9	TRUE	"[-0.06018518518518518, -0.06018518518518518, -0.06018518518518518, -0.06018518518518518, -0.06018518518518518, -0.06018518518518518, -0.06018518518518518, -0.06018518518518518, -0.06018518518518518, -0.06018518518518518, -0.06018518518518518, -0.06018518518518518, -0.06018518518518518, -0.06018518518518518, -0.06018518518518518, -0.06018518518518518, -0.06018518518518518, -0.06018518518518518, -0.06018518518518518]"	"[-0.3712962962962963, -0.3712962962962963, -0.3712962962962963, -0.3712962962962963, -0.3712962962962963, -0.3712962962962963, -0.3712962962962963, -0.3712962962962963, -0.3712962962962963, -0.3712962962962963, -0.3712962962962963, -0.3712962962962963, -0.3712962962962963, -0.3712962962962963, -0.3712962962962963, -0.3712962962962963, -0.3712962962962963, -0.3712962962962963, -0.3712962962962963]"	"[1, 1, 1, 1, 1, 1, 1, 1, 1, 1, 1, 1, 1, 1, 1, 1, 1, 1, 1]"	"[0, 0, 0, 0, 0, 0, 0, 0, 0, 0, 0, 0, 0, 0, 0, 0, 0, 0, 0]"	"[0, 0, 0, 0, 0, 0, 0, 0, 0, 0, 0, 0, 0, 0, 0, 0, 0, 0, 0]"	"[0.3087606000044616, 0.7337696000031428, 1.0253427999996347, 1.4338924000039697, 1.7587008999980753, 2.092209800001001, 2.4337459999951534, 2.858915300006629, 3.2589703999983612, 3.7173195999930613, 4.084001700000954, 4.408878899994306, 4.842449599993415, 5.259150199999567, 5.750651499998639, 6.175660199995036, 6.650840000002063, 7.067546799997217, 7.534096400006092]"	19	"[0.30071229999884963, 0.7257210000097984, 1.0172942000062903, 1.4258418999961577, 1.7506519000016851, 2.0841625000030035, 2.425695400001132, 2.8508666999987327, 3.250925100001041, 3.7092722000088543, 4.075966300006257, 4.400826299999608, 4.834399600003962, 5.251103400005377, 5.742608400003519, 6.1676152, 6.642796500003897, 7.059508200007258, 7.526047000006656]"	"[0.44206309999572113, 0.8920976000081282, 1.1421284999960335, 1.500553799996851, 1.8588401000015438, 2.2005389999976614, 2.584068099997239, 3.008927999995649, 3.408985500005656, 3.8340621999959694, 4.2257047000020975, 4.559111800001119, 4.967380100002629, 5.417460900003789, 5.87579679999908, 6.284205600008136, 6.7675287000020035, 7.192613400009577, 7.650954600001569]"	404.14741640001	404.152904100003	405.644881100001	405.653031000009	NA	NA	NA	NA	NA	NA	NA	14	"02"	"2024-02-07_15h21.42.956"	"BART_exp"	"2023.2.3"	119.93197460356	"2024-02-07 15h22.01.255697 +0100"	NA
"balloon.png"	92	0	19	19	21	405.653031000009	NA	NA	NA	NA	NA	NA	NA	NA	NA	NA	NA	NA	405.645057000002	405.653031000009	405.653031000009	405.653031000009	405.653031000009	405.653031000009	0.00567819998832419	NA	NA	405.653031000009	414.872029400009	22	1.1	FALSE	"[-0.06018518518518518, -0.06018518518518518, -0.06018518518518518, -0.06018518518518518, -0.06018518518518518, -0.06018518518518518, -0.06018518518518518, -0.06018518518518518, -0.06018518518518518, -0.06018518518518518, -0.06018518518518518, -0.06018518518518518, -0.06018518518518518, -0.06018518518518518, -0.06018518518518518, -0.06018518518518518, -0.06018518518518518, -0.06018518518518518, -0.06018518518518518, -0.06018518518518518, -0.06018518518518518, -0.06018518518518518, -0.06018518518518518]"	"[-0.3712962962962963, -0.3712962962962963, -0.3712962962962963, -0.3712962962962963, -0.3712962962962963, -0.3712962962962963, -0.3712962962962963, -0.3712962962962963, -0.3712962962962963, -0.3712962962962963, -0.3712962962962963, -0.3712962962962963, -0.3712962962962963, -0.3712962962962963, -0.3712962962962963, -0.3712962962962963, -0.3712962962962963, -0.3712962962962963, -0.3712962962962963, -0.3712962962962963, -0.3712962962962963, -0.3712962962962963, -0.3712962962962963]"	"[1, 1, 1, 1, 1, 1, 1, 1, 1, 1, 1, 1, 1, 1, 1, 1, 1, 1, 1, 1, 1, 1, 0]"	"[0, 0, 0, 0, 0, 0, 0, 0, 0, 0, 0, 0, 0, 0, 0, 0, 0, 0, 0, 0, 0, 0, 0]"	"[0, 0, 0, 0, 0, 0, 0, 0, 0, 0, 0, 0, 0, 0, 0, 0, 0, 0, 0, 0, 0, 0, 1]"	"[0.25884309998946264, 0.5836127999937162, 1.0169909999967786, 1.3670458999986295, 1.7255409999925178, 2.042093999989447, 2.5422568999929354, 2.8672693999978947, 3.242269499998656, 3.6171650999895064, 4.084039499997743, 4.47573169998941, 4.950741499997093, 5.484164299996337, 6.034023899992462, 6.3840228999906685, 6.859226299988222, 7.275914999991073, 7.700939799993648, 7.89265529999102, 8.575880399992457, 8.826125599996885, 9.226033999992069]"	23	"[0.2568844000052195, 0.5816556000063429, 1.015029999995022, 1.3650864999945043, 1.7235906999994768, 2.040133800008334, 2.5403068000014173, 2.865309000000707, 3.2403136000066297, 3.615208300005179, 4.082084099994972, 4.4737739999982296, 4.948781800005236, 5.482207099994412, 6.032076100003906, 6.382070499996189, 6.857267800005502, 7.273956999997608, 7.69898820000526, 7.890703500001109, 8.573922800002038, 8.824175500005367, 9.224016699998174]"	"[0.3565402999956859, 0.6815361000044504, 1.1399568000051659, 1.4984013000066625, 1.8399445999966701, 2.1816322000086075, 2.6649905999947805, 2.9817223999998532, 3.3567269000050146, 3.7400523999967845, 4.206752600002801, 4.59849750000285, 5.090159700004733, 5.623525500006508, 6.148568500007968, 6.515288700000383, 6.973631000000751, 7.415324200002942, 7.757018899996183, 8.01536269999633, 8.682114800001727, 8.932112900001812, 9.224021300004097]"	414.872976400002	414.8786406	416.370635200001	416.387070299999	NA	NA	NA	NA	NA	NA	NA	14	"02"	"2024-02-07_15h21.42.956"	"BART_exp"	"2023.2.3"	119.93197460356	"2024-02-07 15h22.01.255697 +0100"	NA
"balloon.png"	27	0	20	20	6	416.387070299999	NA	NA	NA	NA	NA	NA	NA	NA	NA	NA	NA	NA	416.370816499999	416.387070299999	416.387070299999	416.387070299999	416.387070299999	416.387070299999	-0.00088229999528266	-0.00088229999528266	-0.00088229999528266	416.387070299999	425.4642571	17	0.85	FALSE	"[-0.06018518518518518, -0.06018518518518518, -0.06018518518518518, -0.06018518518518518, -0.06018518518518518, -0.06018518518518518, -0.06018518518518518, -0.06018518518518518, -0.06018518518518518, -0.06018518518518518, -0.06018518518518518, -0.06018518518518518, -0.06018518518518518, -0.06018518518518518, -0.06018518518518518, -0.06018518518518518, -0.06018518518518518, -0.06018518518518518]"	"[-0.3712962962962963, -0.3712962962962963, -0.3712962962962963, -0.3712962962962963, -0.3712962962962963, -0.3712962962962963, -0.3712962962962963, -0.3712962962962963, -0.3712962962962963, -0.3712962962962963, -0.3712962962962963, -0.3712962962962963, -0.3712962962962963, -0.3712962962962963, -0.3712962962962963, -0.3712962962962963, -0.3712962962962963, -0.3712962962962963]"	"[1, 1, 1, 1, 1, 1, 1, 1, 1, 1, 1, 1, 1, 1, 1, 1, 1, 0]"	"[0, 0, 0, 0, 0, 0, 0, 0, 0, 0, 0, 0, 0, 0, 0, 0, 0, 0]"	"[0, 0, 0, 0, 0, 0, 0, 0, 0, 0, 0, 0, 0, 0, 0, 0, 0, 1]"	"[0.5169227000005776, 0.9671384999965085, 1.4005046000092989, 1.8420457000029273, 2.3087498000095366, 2.7506876999977976, 3.217124100003275, 3.7004612000018824, 4.225532099997508, 4.725738699999056, 5.067242000004626, 5.584141600003932, 6.225661700009368, 6.784239800006617, 7.425754199997755, 8.025791100008064, 8.709301700000651, 9.092526699998416]"	18	"[0.5120956000027945, 0.9623219999921275, 1.3956856000004336, 1.8372237000003224, 2.3039286999992328, 2.7458680999989156, 3.2123029999929713, 3.6873557999933837, 4.2207120999955805, 4.720914000004996, 5.062418200002867, 5.579319399999804, 6.220837700006086, 6.779420499995467, 7.42093069999828, 8.020971299993107, 8.7044859000016, 9.087645599996904]"	"[0.6203113999945344, 1.0953391999937594, 1.52039920000243, 1.9620477999997092, 2.4537498999998206, 2.8954499999963446, 3.3454793999990216, 3.7871849999937695, 4.328877099993406, 4.779037899992545, 5.195602299994789, 5.704064699995797, 6.379024399997434, 6.945735400004196, 7.562438799999654, 8.14580990000104, 8.895898400005535, 9.087650200002827]"	425.465163200002	425.471040400007	426.962985400009	426.979457599999	NA	NA	NA	NA	NA	NA	NA	14	"02"	"2024-02-07_15h21.42.956"	"BART_exp"	"2023.2.3"	119.93197460356	"2024-02-07 15h22.01.255697 +0100"	NA
"balloon.png"	36	0	21	21	8	426.979457599999	NA	NA	NA	NA	NA	NA	NA	NA	NA	NA	NA	NA	426.963168000002	426.979457599999	426.979457599999	426.979457599999	426.979457599999	426.979457599999	-0.00068979999923612	-0.00068979999923612	-0.00068979999923612	426.979457599999	437.290242400006	22	1.1	FALSE	"[-0.06018518518518518, -0.06018518518518518, -0.06018518518518518, -0.06018518518518518, -0.06018518518518518, -0.06018518518518518, -0.06018518518518518, -0.06018518518518518, -0.06018518518518518, -0.06018518518518518, -0.06018518518518518, -0.06018518518518518, -0.06018518518518518, -0.06018518518518518, -0.06018518518518518, -0.06018518518518518, -0.06018518518518518, -0.06018518518518518, -0.06018518518518518, -0.06018518518518518, -0.06018518518518518, -0.06018518518518518, -0.06018518518518518]"	"[-0.3712962962962963, -0.3712962962962963, -0.3712962962962963, -0.3712962962962963, -0.3712962962962963, -0.3712962962962963, -0.3712962962962963, -0.3712962962962963, -0.3712962962962963, -0.3712962962962963, -0.3712962962962963, -0.3712962962962963, -0.3712962962962963, -0.3712962962962963, -0.3712962962962963, -0.3712962962962963, -0.3712962962962963, -0.3712962962962963, -0.3712962962962963, -0.3712962962962963, -0.3712962962962963, -0.3712962962962963, -0.3712962962962963]"	"[1, 1, 1, 1, 1, 1, 1, 1, 1, 1, 1, 1, 1, 1, 1, 1, 1, 1, 1, 1, 1, 1, 0]"	"[0, 0, 0, 0, 0, 0, 0, 0, 0, 0, 0, 0, 0, 0, 0, 0, 0, 0, 0, 0, 0, 0, 0]"	"[0, 0, 0, 0, 0, 0, 0, 0, 0, 0, 0, 0, 0, 0, 0, 0, 0, 0, 0, 0, 0, 0, 1]"	"[0.6586611000093399, 1.1172343000071123, 1.5421804000070551, 1.958894000010332, 2.317254599998705, 2.8087958000105573, 3.267186800003401, 3.775772200009669, 4.208903400009149, 5.067387600007351, 5.35080569999991, 5.74247500000638, 6.0923327000055, 6.43406369999866, 6.775886400006129, 7.167612800010829, 7.592682800008333, 7.984311100008199, 8.642544100002851, 8.99278630000481, 9.617591900008847, 10.009284600004321, 10.326139500000863]"	23	"[0.6559432000067318, 1.1145153999968898, 1.5394633999967482, 1.956176100007724, 2.3145385999960126, 2.8060703000082867, 3.264475699994364, 3.7730497000011383, 4.2061860999965575, 5.064677800008212, 5.3480893000087235, 5.739757200004533, 6.081345400001737, 6.43133960000705, 6.7731648000044515, 7.164893399996799, 7.589965899998788, 7.981588499998907, 8.639821000004304, 8.990065000005416, 9.614868300006492, 10.006566900003236, 10.323354899999686]"	"[0.7641284999990603, 1.2224659000057727, 1.6393551000073785, 2.0393182999978308, 2.430892300006235, 2.939261200008332, 3.37266580000869, 3.880987800002913, 4.297706500001368, 5.172753000006196, 5.46446869999636, 5.831140900001628, 6.197820999994292, 6.531207699998049, 6.881250100006582, 7.297888600005535, 7.697944300001836, 8.106272699995316, 8.756311300006928, 9.1232514000003, 9.706392599997343, 10.12322100000165, 10.323359500005608]"	437.291249600006	437.296845100005	438.788857899999	438.805311500008	NA	NA	NA	NA	NA	NA	NA	14	"02"	"2024-02-07_15h21.42.956"	"BART_exp"	"2023.2.3"	119.93197460356	"2024-02-07 15h22.01.255697 +0100"	NA
"balloon.png"	5	0	22	22	1	438.805311500008	NA	NA	NA	NA	NA	NA	NA	NA	NA	NA	NA	NA	438.789034500005	438.805311500008	438.805311500008	438.805311500008	438.805311500008	438.805311500008	-0.00094230000104289	-0.00094230000104289	-0.00094230000104289	438.805311500008	441.240818300008	6	0.25	TRUE	"[-0.06018518518518518, -0.06018518518518518, -0.06018518518518518, -0.06018518518518518, -0.06018518518518518, -0.06018518518518518]"	"[-0.3712962962962963, -0.3712962962962963, -0.3712962962962963, -0.3712962962962963, -0.3712962962962963, -0.3712962962962963]"	"[1, 1, 1, 1, 1, 1]"	"[0, 0, 0, 0, 0, 0]"	"[0, 0, 0, 0, 0, 0]"	"[0.5337661999947159, 0.9504560000059428, 1.267094700000598, 1.633726600004593, 1.9754056999954628, 2.308899099996779]"	6	"[0.527246900004684, 0.9439401999989059, 1.2605900000053225, 1.627206600009231, 1.9688848000077996, 2.30238300000201]"	"[0.6352652000059607, 1.0519594000070356, 1.385298299996066, 1.7353328000026522, 2.0937069000065094, 2.435406200005673]"	441.24150080001	441.247115900012	442.739068200011	442.755550600006	NA	NA	NA	NA	NA	NA	NA	14	"02"	"2024-02-07_15h21.42.956"	"BART_exp"	"2023.2.3"	119.93197460356	"2024-02-07 15h22.01.255697 +0100"	NA
"balloon.png"	118	0	23	23	27	442.755550600006	NA	NA	NA	NA	NA	NA	NA	NA	NA	NA	NA	NA	442.739242399999	442.755550600006	442.755550600006	442.755550600006	442.755550600006	442.755550600006	-0.00095039998996071	-0.00095039998996071	-0.00095039998996071	442.755550600006	452.874723200002	20	1	FALSE	"[-0.06018518518518518, -0.06018518518518518, -0.06018518518518518, -0.06018518518518518, -0.06018518518518518, -0.06018518518518518, -0.06018518518518518, -0.06018518518518518, -0.06018518518518518, -0.06018518518518518, -0.06018518518518518, -0.06018518518518518, -0.06018518518518518, -0.06018518518518518, -0.06018518518518518, -0.06018518518518518, -0.06018518518518518, -0.06018518518518518, -0.06018518518518518, -0.06018518518518518, -0.06018518518518518]"	"[-0.3712962962962963, -0.3712962962962963, -0.3712962962962963, -0.3712962962962963, -0.3712962962962963, -0.3712962962962963, -0.3712962962962963, -0.3712962962962963, -0.3712962962962963, -0.3712962962962963, -0.3712962962962963, -0.3712962962962963, -0.3712962962962963, -0.3712962962962963, -0.3712962962962963, -0.3712962962962963, -0.3712962962962963, -0.3712962962962963, -0.3712962962962963, -0.3712962962962963, -0.3712962962962963]"	"[1, 1, 1, 1, 1, 1, 1, 1, 1, 1, 1, 1, 1, 1, 1, 1, 1, 1, 1, 1, 0]"	"[0, 0, 0, 0, 0, 0, 0, 0, 0, 0, 0, 0, 0, 0, 0, 0, 0, 0, 0, 0, 0]"	"[0, 0, 0, 0, 0, 0, 0, 0, 0, 0, 0, 0, 0, 0, 0, 0, 0, 0, 0, 0, 1]"	"[0.34212529999786057, 0.8853177999990294, 1.3088693999889074, 1.793396399996709, 2.183925499994075, 2.5506233999913093, 2.9256192999891937, 3.334009599988349, 4.058892699991702, 4.575759999992442, 5.29243809999025, 5.775826399985817, 6.2340484999876935, 6.667404199994053, 7.034154799999669, 7.484293599991361, 7.900995999996667, 8.309371399998781, 8.792540999987978, 9.459434099990176, 10.13455729999987]"	21	"[0.33614980000129435, 0.8795187999930931, 1.3028931000008015, 1.7875886999972863, 2.1779564000025857, 2.5446452000032878, 2.9196452000032878, 3.328032000004896, 4.052922799994121, 4.569788299995707, 5.286463700002059, 5.769851300006849, 6.228073999998742, 6.661431100001209, 7.02817910000158, 7.478317899993272, 7.895022800003062, 8.303398000003654, 8.78656459999911, 9.453463099998771, 10.128515999997035]"	"[0.5025425000058021, 1.0193299999955343, 1.4692508000007365, 1.8692753000068478, 2.277646899994579, 2.694368600001326, 3.0528592000046046, 3.48607689999335, 4.219469500007108, 4.711164299995289, 5.419513200002257, 5.93635620000714, 6.377963000006275, 6.786277000006521, 7.136314699993818, 7.603115000005346, 8.011361199998646, 8.41973660000076, 8.92808640000294, 9.611528399997042, 10.128520700003719]"	452.875820800007	452.8812836	454.3732208	454.381343500005	NA	NA	NA	NA	NA	NA	NA	14	"02"	"2024-02-07_15h21.42.956"	"BART_exp"	"2023.2.3"	119.93197460356	"2024-02-07 15h22.01.255697 +0100"	NA
"balloon.png"	31	0	24	24	7	454.381343500005	NA	NA	NA	NA	NA	NA	NA	NA	NA	NA	NA	NA	454.37339980001	454.381343500005	454.381343500005	454.381343500005	454.381343500005	454.381343500005	0.00558389999787323	0.00558389999787323	0.00558389999787323	454.381343500005	465.692129100004	22	1.1	FALSE	"[-0.06018518518518518, -0.06018518518518518, -0.06018518518518518, -0.06018518518518518, -0.06018518518518518, -0.06018518518518518, -0.06018518518518518, -0.06018518518518518, -0.06018518518518518, -0.06018518518518518, -0.06018518518518518, -0.06018518518518518, -0.06018518518518518, -0.06018518518518518, -0.06018518518518518, -0.06018518518518518, -0.06018518518518518, -0.06018518518518518, -0.06018518518518518, -0.06018518518518518, -0.06018518518518518, -0.06018518518518518, -0.06018518518518518]"	"[-0.3712962962962963, -0.3712962962962963, -0.3712962962962963, -0.3712962962962963, -0.3712962962962963, -0.3712962962962963, -0.3712962962962963, -0.3712962962962963, -0.3712962962962963, -0.3712962962962963, -0.3712962962962963, -0.3712962962962963, -0.3712962962962963, -0.3712962962962963, -0.3712962962962963, -0.3712962962962963, -0.3712962962962963, -0.3712962962962963, -0.3712962962962963, -0.3712962962962963, -0.3712962962962963, -0.3712962962962963, -0.3712962962962963]"	"[1, 1, 1, 1, 1, 1, 1, 1, 1, 1, 1, 1, 1, 1, 1, 1, 1, 1, 1, 1, 1, 1, 0]"	"[0, 0, 0, 0, 0, 0, 0, 0, 0, 0, 0, 0, 0, 0, 0, 0, 0, 0, 0, 0, 0, 0, 0]"	"[0, 0, 0, 0, 0, 0, 0, 0, 0, 0, 0, 0, 0, 0, 0, 0, 0, 0, 0, 0, 0, 0, 1]"	"[0.7005515999917407, 1.1090333000029204, 1.5422105000034207, 1.9921041000052355, 2.333916399991722, 2.8923227000050247, 3.383879300003173, 3.7423325999989174, 4.158888899997692, 4.625664799998049, 4.975655699992785, 5.3673010999918915, 5.767331199996988, 6.093994800001383, 6.442555699992226, 7.392559300002176, 7.9674757000029786, 8.425822999997763, 9.51772639999399, 9.85942249999789, 10.209270299994387, 11.051167700003134, 11.317830300002242]"	23	"[0.6986727000039537, 1.107143899993389, 1.5403188000054797, 1.9902235000045039, 2.332029600001988, 2.8904315999971004, 3.381995999996434, 3.7404368999996223, 4.156993299999158, 4.623776699998416, 4.973762399997213, 5.365409999998519, 5.765438300004462, 6.092267300002277, 6.440660399995977, 7.39066350000212, 7.965587800004869, 8.42392960000143, 9.515833400000702, 9.857533599992166, 10.207396199999494, 11.049282099993434, 11.315873999992618]"	"[0.8399911000014981, 1.2400628000032157, 1.6399891000037314, 2.040068699992844, 2.4400690000038594, 3.023412599999574, 3.4818124000012176, 3.848527299996931, 4.29020629999286, 4.765335399992182, 5.106933300005039, 5.498597400001017, 5.9237807000026805, 6.232030300001497, 6.573661899994477, 7.498721900003147, 8.10711509999237, 8.557182599994121, 9.62549289999879, 9.973897100004251, 10.32393489999231, 11.16565329999139, 11.315878399997018]"	465.693064800013	465.698793200005	467.190747700006	467.207224000013	NA	NA	NA	NA	NA	NA	NA	14	"02"	"2024-02-07_15h21.42.956"	"BART_exp"	"2023.2.3"	119.93197460356	"2024-02-07 15h22.01.255697 +0100"	NA
"balloon.png"	101	0	25	25	23	467.207224000013	NA	NA	NA	NA	NA	NA	NA	NA	NA	NA	NA	NA	467.190922599999	467.207224000013	467.207224000013	467.207224000013	467.207224000013	467.207224000013	-0.00087580000399611	-0.00087580000399611	-0.00087580000399611	467.207224000013	475.909395800001	17	0.85	FALSE	"[-0.06018518518518518, -0.06018518518518518, -0.06018518518518518, -0.06018518518518518, -0.06018518518518518, -0.06018518518518518, -0.06018518518518518, -0.06018518518518518, -0.06018518518518518, -0.06018518518518518, -0.06018518518518518, -0.06018518518518518, -0.06018518518518518, -0.06018518518518518, -0.06018518518518518, -0.06018518518518518, -0.06018518518518518, -0.06018518518518518]"	"[-0.3712962962962963, -0.3712962962962963, -0.3712962962962963, -0.3712962962962963, -0.3712962962962963, -0.3712962962962963, -0.3712962962962963, -0.3712962962962963, -0.3712962962962963, -0.3712962962962963, -0.3712962962962963, -0.3712962962962963, -0.3712962962962963, -0.3712962962962963, -0.3712962962962963, -0.3712962962962963, -0.3712962962962963, -0.3712962962962963]"	"[1, 1, 1, 1, 1, 1, 1, 1, 1, 1, 1, 1, 1, 1, 1, 1, 1, 0]"	"[0, 0, 0, 0, 0, 0, 0, 0, 0, 0, 0, 0, 0, 0, 0, 0, 0, 0]"	"[0, 0, 0, 0, 0, 0, 0, 0, 0, 0, 0, 0, 0, 0, 0, 0, 0, 1]"	"[0.7919896999956109, 1.1670236000063596, 1.5837752999941586, 2.008744300008402, 2.417222000003676, 3.008940800005803, 3.4173197000054643, 3.817443399995682, 4.234056600005715, 4.675755100004608, 5.259229600007529, 5.717493200005265, 6.250862200002302, 6.667556900007185, 7.2093638999940595, 7.742469999997411, 8.150836400003755, 8.717567400002736]"	18	"[0.7875292000098852, 1.1625616000092123, 1.57931680000911, 2.0042802000098163, 2.4127672000031453, 3.0044843000068795, 3.4128574000060325, 3.81298840000818, 4.229600100006792, 4.671299100009492, 5.254774500004714, 5.713037000008626, 6.246404800011078, 6.663096100004623, 7.204914700007066, 7.738008000000264, 8.146380799997132, 8.713042800009134]"	"[0.8957516000082251, 1.2874566000100458, 1.7124579000083031, 2.112488200000371, 2.5291671000013594, 3.1377541000110796, 3.554335100008757, 3.9459353999991436, 4.345965700005763, 4.779376300008153, 5.362711100009619, 5.837744200005545, 6.371161300005042, 6.821135100006359, 7.354494800005341, 7.896211100000073, 8.321378100008587, 8.713047299999744]"	475.910484700013	475.916174400001	477.408124400012	477.42461110001	NA	NA	NA	NA	NA	NA	NA	14	"02"	"2024-02-07_15h21.42.956"	"BART_exp"	"2023.2.3"	119.93197460356	"2024-02-07 15h22.01.255697 +0100"	NA
"balloon.png"	79	0	26	26	18	477.42461110001	NA	NA	NA	NA	NA	NA	NA	NA	NA	NA	NA	NA	477.408299400005	477.42461110001	477.42461110001	477.42461110001	477.42461110001	477.42461110001	-0.00089789999765343	-0.00089789999765343	-0.00089789999765343	477.42461110001	487.85201680001	22	1.1	FALSE	"[-0.06018518518518518, -0.06018518518518518, -0.06018518518518518, -0.06018518518518518, -0.06018518518518518, -0.06018518518518518, -0.06018518518518518, -0.06018518518518518, -0.06018518518518518, -0.06018518518518518, -0.06018518518518518, -0.06018518518518518, -0.06018518518518518, -0.06018518518518518, -0.06018518518518518, -0.06018518518518518, -0.06018518518518518, -0.06018518518518518, -0.06018518518518518, -0.06018518518518518, -0.06018518518518518, -0.06018518518518518, -0.06018518518518518]"	"[-0.3712962962962963, -0.3712962962962963, -0.3712962962962963, -0.3712962962962963, -0.3712962962962963, -0.3712962962962963, -0.3712962962962963, -0.3712962962962963, -0.3712962962962963, -0.3712962962962963, -0.3712962962962963, -0.3712962962962963, -0.3712962962962963, -0.3712962962962963, -0.3712962962962963, -0.3712962962962963, -0.3712962962962963, -0.3712962962962963, -0.3712962962962963, -0.3712962962962963, -0.3712962962962963, -0.3712962962962963, -0.3712962962962963]"	"[1, 1, 1, 1, 1, 1, 1, 1, 1, 1, 1, 1, 1, 1, 1, 1, 1, 1, 1, 1, 1, 1, 0]"	"[0, 0, 0, 0, 0, 0, 0, 0, 0, 0, 0, 0, 0, 0, 0, 0, 0, 0, 0, 0, 0, 0, 0]"	"[0, 0, 0, 0, 0, 0, 0, 0, 0, 0, 0, 0, 0, 0, 0, 0, 0, 0, 0, 0, 0, 0, 1]"	"[0.8505052999971667, 1.2672474999999395, 1.608869899995625, 2.0920694999949774, 2.625653199997032, 3.0838240000011865, 3.500527999989572, 4.0842457999970065, 4.49223869999696, 4.958949799998663, 5.350621399993543, 5.7508405999979, 6.192513299989514, 6.575843400001759, 7.192569799997727, 7.60928679999779, 8.026044999991427, 8.434330099989893, 8.900889600001392, 9.334425199995167, 9.80940909999481, 10.142615099990508, 10.442802999998094]"	23	"[0.843198400005349, 1.2599447999964468, 1.6015611000038916, 2.0847591000056127, 2.618349099997431, 3.07651500000793, 3.49322519999987, 4.076941899998928, 4.4849341999943135, 4.951644900007523, 5.343319000006886, 5.74352980000549, 6.185210099996766, 6.568537700004526, 7.185265199994319, 7.601982899999712, 8.018739399994956, 8.427030799997738, 8.893579399998998, 9.327121700000134, 9.8021035999991, 10.135309100005543, 10.4354319999984]"	"[0.9761896999989403, 1.3762276000052225, 1.7346061999996891, 2.242958799994085, 2.7763454999949317, 3.2097102999978233, 3.634741700006998, 4.234792300005211, 4.634816200006753, 5.05150610000419, 5.4181662000046344, 5.8265729999984615, 6.3015983999939635, 6.684966600005282, 7.31836239999393, 7.718371299997671, 8.160103000001982, 8.57670849999704, 9.035125499998685, 9.476812699998845, 9.926829899995937, 10.25185230000352, 10.435436800005846]"	487.8530302	487.858666200002	489.350628	489.367074300011	NA	NA	NA	NA	NA	NA	NA	14	"02"	"2024-02-07_15h21.42.956"	"BART_exp"	"2023.2.3"	119.93197460356	"2024-02-07 15h22.01.255697 +0100"	NA
"balloon.png"	110	0	27	27	25	489.367074300011	NA	NA	NA	NA	NA	NA	NA	NA	NA	NA	NA	NA	489.350805800001	489.367074300011	489.367074300011	489.367074300011	489.367074300011	489.367074300011	-0.00096010000561364	-0.00096010000561364	-0.00096010000561364	489.367074300011	496.652630500001	17	0.85	FALSE	"[-0.06018518518518518, -0.06018518518518518, -0.06018518518518518, -0.06018518518518518, -0.06018518518518518, -0.06018518518518518, -0.06018518518518518, -0.06018518518518518, -0.06018518518518518, -0.06018518518518518, -0.06018518518518518, -0.06018518518518518, -0.06018518518518518, -0.06018518518518518, -0.06018518518518518, -0.06018518518518518, -0.06018518518518518, -0.06018518518518518]"	"[-0.3712962962962963, -0.3712962962962963, -0.3712962962962963, -0.3712962962962963, -0.3712962962962963, -0.3712962962962963, -0.3712962962962963, -0.3712962962962963, -0.3712962962962963, -0.3712962962962963, -0.3712962962962963, -0.3712962962962963, -0.3712962962962963, -0.3712962962962963, -0.3712962962962963, -0.3712962962962963, -0.3712962962962963, -0.3712962962962963]"	"[1, 1, 1, 1, 1, 1, 1, 1, 1, 1, 1, 1, 1, 1, 1, 1, 1, 0]"	"[0, 0, 0, 0, 0, 0, 0, 0, 0, 0, 0, 0, 0, 0, 0, 0, 0, 0]"	"[0, 0, 0, 0, 0, 0, 0, 0, 0, 0, 0, 0, 0, 0, 0, 0, 0, 1]"	"[0.5669627000024775, 1.1586670999968192, 1.458845899993321, 1.8338691999961156, 2.242214799989597, 2.6507115999993403, 2.9922143000003416, 3.3588111999997636, 3.9756877000036184, 4.284052000002703, 4.700709600001574, 5.092423499998404, 5.642456100002164, 5.975696699999389, 6.434181299991906, 6.6341839999950025, 7.0179017999907956, 7.30088650000107]"	18	"[0.5620649000047706, 1.1537628000078257, 1.4539464999979828, 1.8289632000087295, 2.2373143000004347, 2.6458108000078937, 2.987318500003312, 3.353909299999941, 3.970788500009803, 4.279152700008126, 4.695810200006235, 5.087524000002304, 5.637560200004373, 5.970796299996437, 6.429282600001898, 6.629278599997633, 7.013016500000958, 7.295921900004032]"	"[0.686912699995446, 1.2786082999955397, 1.5619769000040833, 1.9953271999984281, 2.387051600002451, 2.787061499999254, 3.0704125000047497, 3.487300499997218, 4.028810899995733, 4.362152800007607, 4.812194300000556, 5.187211099997512, 5.737277200008975, 6.087339400008204, 6.545659099996556, 6.745661000008113, 7.129186699996353, 7.295926500009955]"	496.653558000005	496.659272300007	498.151229300012	498.167706799999	NA	NA	NA	NA	NA	NA	NA	14	"02"	"2024-02-07_15h21.42.956"	"BART_exp"	"2023.2.3"	119.93197460356	"2024-02-07 15h22.01.255697 +0100"	NA
"balloon.png"	53	0	28	28	12	498.167706799999	NA	NA	NA	NA	NA	NA	NA	NA	NA	NA	NA	NA	498.151425300006	498.167706799999	498.167706799999	498.167706799999	498.167706799999	498.167706799999	-0.00080910000542644	-0.00080910000542644	-0.00080910000542644	498.167706799999	509.070145100006	22	1.1	FALSE	"[-0.06018518518518518, -0.06018518518518518, -0.06018518518518518, -0.06018518518518518, -0.06018518518518518, -0.06018518518518518, -0.06018518518518518, -0.06018518518518518, -0.06018518518518518, -0.06018518518518518, -0.06018518518518518, -0.06018518518518518, -0.06018518518518518, -0.06018518518518518, -0.06018518518518518, -0.06018518518518518, -0.06018518518518518, -0.06018518518518518, -0.06018518518518518, -0.06018518518518518, -0.06018518518518518, -0.06018518518518518, -0.06018518518518518]"	"[-0.3712962962962963, -0.3712962962962963, -0.3712962962962963, -0.3712962962962963, -0.3712962962962963, -0.3712962962962963, -0.3712962962962963, -0.3712962962962963, -0.3712962962962963, -0.3712962962962963, -0.3712962962962963, -0.3712962962962963, -0.3712962962962963, -0.3712962962962963, -0.3712962962962963, -0.3712962962962963, -0.3712962962962963, -0.3712962962962963, -0.3712962962962963, -0.3712962962962963, -0.3712962962962963, -0.3712962962962963, -0.3712962962962963]"	"[1, 1, 1, 1, 1, 1, 1, 1, 1, 1, 1, 1, 1, 1, 1, 1, 1, 1, 1, 1, 1, 1, 0]"	"[0, 0, 0, 0, 0, 0, 0, 0, 0, 0, 0, 0, 0, 0, 0, 0, 0, 0, 0, 0, 0, 0, 0]"	"[0, 0, 0, 0, 0, 0, 0, 0, 0, 0, 0, 0, 0, 0, 0, 0, 0, 0, 0, 0, 0, 0, 1]"	"[1.2921172000060324, 1.5419552000093972, 1.9253642999974545, 2.883867700002156, 3.4339016000012634, 3.7838944000104675, 4.167114399999264, 4.483828099997481, 4.842574000009336, 5.209015700005693, 5.625721700009308, 6.017486700002337, 6.442444100001012, 6.775644499997725, 7.234162799999467, 7.75073080000584, 8.14251650001097, 8.500760900002206, 8.952728500007652, 9.392978800009587, 10.084368900003028, 10.375998300005449, 10.917733399997815]"	23	"[1.2881608999887249, 1.5379996999981813, 1.9214177999965614, 2.879915500001516, 3.4299434999993537, 3.7799431000021286, 4.16317159999744, 4.479876299999887, 4.8386155999905895, 5.205062099994393, 5.6217697999964, 6.013529399991967, 6.438490499989712, 6.771687499989639, 7.230204999999842, 7.746771499994793, 8.13856439999654, 8.496805599992513, 8.949001899993164, 9.38904329999059, 10.080419999998412, 10.372042899994995, 10.91371789999539]"	"[1.3878197000012733, 1.6628519999940181, 2.0462308999995003, 2.9713188000023365, 3.554868599996553, 3.8713305999990553, 4.238033899993752, 4.579718599998159, 4.979896699995152, 5.329759799991734, 5.738195199999609, 6.1798572999978205, 6.563350399999763, 6.93822270000237, 7.363321099997847, 7.879939499995089, 8.288293599995086, 8.638337399999727, 9.06505209999159, 9.5064538000006, 10.213512899994384, 10.513498899992555, 10.913722199999029]"	509.071097600012	509.07676560001	510.568866000001	510.5852476	NA	NA	NA	NA	NA	NA	NA	14	"02"	"2024-02-07_15h21.42.956"	"BART_exp"	"2023.2.3"	119.93197460356	"2024-02-07 15h22.01.255697 +0100"	NA
"balloon.png"	62	0	29	29	14	510.5852476	NA	NA	NA	NA	NA	NA	NA	NA	NA	NA	NA	NA	510.569065100004	510.5852476	510.5852476	510.5852476	510.5852476	510.5852476	-0.00071170000592246	-0.00071170000592246	-0.00071170000592246	510.5852476	520.337543000001	22	1.1	FALSE	"[-0.06018518518518518, -0.06018518518518518, -0.06018518518518518, -0.06018518518518518, -0.06018518518518518, -0.06018518518518518, -0.06018518518518518, -0.06018518518518518, -0.06018518518518518, -0.06018518518518518, -0.06018518518518518, -0.06018518518518518, -0.06018518518518518, -0.06018518518518518, -0.06018518518518518, -0.06018518518518518, -0.06018518518518518, -0.06018518518518518, -0.06018518518518518, -0.06018518518518518, -0.06018518518518518, -0.06018518518518518, -0.06018518518518518]"	"[-0.3712962962962963, -0.3712962962962963, -0.3712962962962963, -0.3712962962962963, -0.3712962962962963, -0.3712962962962963, -0.3712962962962963, -0.3712962962962963, -0.3712962962962963, -0.3712962962962963, -0.3712962962962963, -0.3712962962962963, -0.3712962962962963, -0.3712962962962963, -0.3712962962962963, -0.3712962962962963, -0.3712962962962963, -0.3712962962962963, -0.3712962962962963, -0.3712962962962963, -0.3712962962962963, -0.3712962962962963, -0.3712962962962963]"	"[1, 1, 1, 1, 1, 1, 1, 1, 1, 1, 1, 1, 1, 1, 1, 1, 1, 1, 1, 1, 1, 1, 0]"	"[0, 0, 0, 0, 0, 0, 0, 0, 0, 0, 0, 0, 0, 0, 0, 0, 0, 0, 0, 0, 0, 0, 0]"	"[0, 0, 0, 0, 0, 0, 0, 0, 0, 0, 0, 0, 0, 0, 0, 0, 0, 0, 0, 0, 0, 0, 1]"	"[1.0336886000004597, 1.3754762000025949, 1.7430651000031503, 2.308620299998438, 2.7002560999972047, 3.225461699999869, 3.6005318999959854, 4.017282899993006, 4.425545299993246, 4.7503980999899795, 5.367233700002544, 5.6006270999932894, 5.975693899992621, 6.317170099995565, 6.750677799995174, 7.117343799996888, 7.550772299990058, 7.835540599990054, 8.242493300000206, 8.550821800003177, 9.04252770000312, 9.25073010000051, 9.767534600003273]"	23	"[1.0271751999971457, 1.368961100000888, 1.7366522999946028, 2.3021107999957167, 2.693742499992368, 3.2189417999907164, 3.5940123000036692, 4.010768399995868, 4.419029500000761, 4.743879999994533, 5.3607173999916995, 5.594107899989467, 5.969177799997851, 6.31064989999868, 6.744161700000404, 7.110823900002288, 7.5442511000001105, 7.829185399998096, 8.235980999990716, 8.544307299991488, 9.03601019999769, 9.244215799990343, 9.760952399999951]"	"[1.1852130999905057, 1.518693499994697, 1.8518924999953015, 2.4269872000004398, 2.818648699991172, 3.410304199991515, 3.7186522999982117, 4.13535719999345, 4.527089299997897, 4.87714519999281, 5.4521245999931125, 5.735450799998944, 6.085527799994452, 6.418854899995495, 6.860784299991792, 7.19391899999755, 7.618964299996151, 7.952321799995843, 8.335745699994732, 8.668999699992128, 9.135717099998146, 9.352426299999934, 9.76095689999056]"	520.338568800013	520.344200300009	521.836176199999	521.844312600006	NA	NA	NA	NA	NA	NA	NA	14	"02"	"2024-02-07_15h21.42.956"	"BART_exp"	"2023.2.3"	119.93197460356	"2024-02-07 15h22.01.255697 +0100"	NA
NA	NA	NA	NA	NA	NA	NA	NA	NA	NA	NA	NA	NA	NA	NA	NA	NA	NA	NA	NA	NA	NA	NA	NA	NA	NA	NA	NA	NA	NA	NA	NA	NA	NA	NA	NA	NA	NA	NA	NA	NA	NA	NA	NA	NA	NA	521.836212499999	521.844312600006	521.844312600006	530.170382299999	"space"	8.32351539999945	"None"	14	"02"	"2024-02-07_15h21.42.956"	"BART_exp"	"2023.2.3"	119.93197460356	"2024-02-07 15h22.01.255697 +0100"	NA
