"diceImage"	"d_number"	"dice_loop.thisRepN"	"dice_loop.thisTrialN"	"dice_loop.thisN"	"dice_loop.thisIndex"	"thisRow.t"	"notes"	"Start.started"	"text_start.started"	"continue_start.started"	"mouse_start.started"	"Start.stopped"	"mouse_start.x"	"mouse_start.y"	"mouse_start.leftButton"	"mouse_start.midButton"	"mouse_start.rightButton"	"mouse_start.time"	"trial.started"	"box_dice.started"	"text_dice_header.started"	"text_gain.started"	"value_gain.started"	"text_bank.started"	"value_bank.started"	"img_dice_1.started"	"img_dice_2.started"	"img_dice_3.started"	"img_dice_4.started"	"img_dice_5.started"	"img_dice_6.started"	"img_dice_1_2.started"	"img_dice_3_4.started"	"img_dice_5_6.started"	"img_dice_1_2_3.started"	"img_dice_4_5_6.started"	"img_dice_1_2_3_4.started"	"img_dice_2_3_4_5.started"	"img_dice_3_4_5_6.started"	"text_value_header.started"	"text_value_1000.started"	"text_value_500.started"	"text_value_200.started"	"text_value_100.started"	"mouse_task.started"	"loss_sound.started"	"img_dice_throw_trials.started"	"img_dice_throw_trials.stopped"	"trial.stopped"	"mouse_task.x"	"mouse_task.y"	"mouse_task.leftButton"	"mouse_task.midButton"	"mouse_task.rightButton"	"mouse_task.time"	"choice"	"gain"	"gain_sound.started"	"gain_sound.stopped"	"End.started"	"text_end.started"	"key_end.started"	"End.stopped"	"key_end.keys"	"key_end.rt"	"key_end.duration"	"participant"	"session"	"date"	"expName"	"psychopyVersion"	"frameRate"	"expStart"	"...75"
NA	NA	NA	NA	NA	NA	NA	NA	0.0417058000020916	0.050841300002503	0.050841300002503	0.0420458999979019	95.5499485	"[0.7277777777777777]"	"[-0.4009259259259259]"	"[1]"	"[0]"	"[0]"	"[95.50727170000027]"	NA	NA	NA	NA	NA	NA	NA	NA	NA	NA	NA	NA	NA	NA	NA	NA	NA	NA	NA	NA	NA	NA	NA	NA	NA	NA	NA	NA	NA	NA	NA	NA	NA	NA	NA	NA	NA	NA	NA	NA	NA	NA	NA	NA	NA	NA	NA	NA	19	"03"	"2024-02-08_17h31.48.057"	"GDT_exp"	"2023.2.3"	119.971686679342	"2024-02-08 17h31.57.103593 +0100"	NA
"dice_5.png"	5	0	0	0	4	95.6328910000011	NA	NA	NA	NA	NA	NA	NA	NA	NA	NA	NA	NA	95.5563868999998	95.6328910000011	95.6328910000011	95.6328910000011	95.6328910000011	95.6328910000011	95.6328910000011	95.6328910000011	95.6328910000011	95.6328910000011	95.6328910000011	95.6328910000011	95.6328910000011	95.6328910000011	95.6328910000011	95.6328910000011	95.6328910000011	95.6328910000011	95.6328910000011	95.6328910000011	95.6328910000011	95.6328910000011	95.6328910000011	95.6328910000011	95.6328910000011	95.6328910000011	0.0243206999984977	4.17463349999889	99.7913254000014	101.358044700002	101.310360300002	"[-0.43796296296296294, -0.2740740740740741]"	"[-0.24722222222222223, -0.25555555555555554]"	"[1, 0]"	"[0, 0]"	"[0, 1]"	"[2.452051799999026, 4.11887139999817]"	3	-200	NA	NA	NA	NA	NA	NA	NA	NA	NA	19	"03"	"2024-02-08_17h31.48.057"	"GDT_exp"	"2023.2.3"	119.971686679342	"2024-02-08 17h31.57.103593 +0100"	NA
"dice_2.png"	2	0	1	1	1	101.358044700002	NA	NA	NA	NA	NA	NA	NA	NA	NA	NA	NA	NA	101.311150900001	101.358044700002	101.358044700002	101.358044700002	101.358044700002	101.358044700002	101.358044700002	101.358044700002	101.358044700002	101.358044700002	101.358044700002	101.358044700002	101.358044700002	101.358044700002	101.358044700002	101.358044700002	101.358044700002	101.358044700002	101.358044700002	101.358044700002	101.358044700002	101.358044700002	101.358044700002	101.358044700002	101.358044700002	101.358044700002	0.0234553000009328	2.32222349999938	103.699886500002	105.249994200003	105.202592400001	"[-0.1361111111111111, -0.2796296296296296]"	"[-0.2657407407407407, -0.2611111111111111]"	"[1, 0]"	"[0, 0]"	"[0, 1]"	"[1.7235385999993014, 2.2988518999991356]"	3	-200	NA	NA	NA	NA	NA	NA	NA	NA	NA	19	"03"	"2024-02-08_17h31.48.057"	"GDT_exp"	"2023.2.3"	119.971686679342	"2024-02-08 17h31.57.103593 +0100"	NA
"dice_4.png"	4	0	2	2	3	105.249994200003	NA	NA	NA	NA	NA	NA	NA	NA	NA	NA	NA	NA	105.203163400001	105.249994200003	105.249994200003	105.249994200003	105.249994200003	105.249994200003	105.249994200003	105.249994200003	105.249994200003	105.249994200003	105.249994200003	105.249994200003	105.249994200003	105.249994200003	105.249994200003	105.249994200003	105.249994200003	105.249994200003	105.249994200003	105.249994200003	105.249994200003	105.249994200003	105.249994200003	105.249994200003	105.249994200003	105.249994200003	0.0179461000006995	NA	108.550252000001	110.108671100003	110.069415100003	"[-0.019444444444444445, -0.19722222222222222]"	"[-0.2518518518518518, -0.2564814814814815]"	"[1, 0]"	"[0, 0]"	"[0, 1]"	"[2.6293789000010293, 3.2541194000004907]"	3	200	3.27219010000044	4.77233130000241	NA	NA	NA	NA	NA	NA	NA	19	"03"	"2024-02-08_17h31.48.057"	"GDT_exp"	"2023.2.3"	119.971686679342	"2024-02-08 17h31.57.103593 +0100"	NA
"dice_1.png"	1	0	3	3	0	110.108671100003	NA	NA	NA	NA	NA	NA	NA	NA	NA	NA	NA	NA	110.069985800001	110.108671100003	110.108671100003	110.108671100003	110.108671100003	110.108671100003	110.108671100003	110.108671100003	110.108671100003	110.108671100003	110.108671100003	110.108671100003	110.108671100003	110.108671100003	110.108671100003	110.108671100003	110.108671100003	110.108671100003	110.108671100003	110.108671100003	110.108671100003	110.108671100003	110.108671100003	110.108671100003	110.108671100003	110.108671100003	0.0147742000008293	NA	112.175598400001	113.7424407	113.703222300002	"[-0.4101851851851852, -0.2]"	"[-0.25833333333333336, -0.26296296296296295]"	"[1, 0]"	"[0, 0]"	"[0, 1]"	"[1.3158094000027631, 2.0156072999998287]"	3	200	2.03062480000153	3.53910890000043	NA	NA	NA	NA	NA	NA	NA	19	"03"	"2024-02-08_17h31.48.057"	"GDT_exp"	"2023.2.3"	119.971686679342	"2024-02-08 17h31.57.103593 +0100"	NA
"dice_6.png"	6	0	4	4	5	113.7424407	NA	NA	NA	NA	NA	NA	NA	NA	NA	NA	NA	NA	113.703753600003	113.7424407	113.7424407	113.7424407	113.7424407	113.7424407	113.7424407	113.7424407	113.7424407	113.7424407	113.7424407	113.7424407	113.7424407	113.7424407	113.7424407	113.7424407	113.7424407	113.7424407	113.7424407	113.7424407	113.7424407	113.7424407	113.7424407	113.7424407	113.7424407	113.7424407	0.0148339000006672	NA	116.275907200001	117.842524600001	117.803110300003	"[-0.12129629629629629, -0.12129629629629629]"	"[-0.2537037037037037, -0.2537037037037037]"	"[1, 0]"	"[0, 0]"	"[0, 1]"	"[1.7819570999999996, 2.49046620000081]"	3	200	2.50547290000031	4.03074240000205	NA	NA	NA	NA	NA	NA	NA	19	"03"	"2024-02-08_17h31.48.057"	"GDT_exp"	"2023.2.3"	119.971686679342	"2024-02-08 17h31.57.103593 +0100"	NA
"dice_3.png"	3	0	5	5	2	117.842524600001	NA	NA	NA	NA	NA	NA	NA	NA	NA	NA	NA	NA	117.803657100001	117.842524600001	117.842524600001	117.842524600001	117.842524600001	117.842524600001	117.842524600001	117.842524600001	117.842524600001	117.842524600001	117.842524600001	117.842524600001	117.842524600001	117.842524600001	117.842524600001	117.842524600001	117.842524600001	117.842524600001	117.842524600001	117.842524600001	117.842524600001	117.842524600001	117.842524600001	117.842524600001	117.842524600001	117.842524600001	0.0175284999968426	3.93108729999949	121.801142700002	123.343068600003	123.303757700003	"[-0.12685185185185185, -0.12685185185185185]"	"[-0.25277777777777777, -0.25277777777777777]"	"[1, 0]"	"[0, 0]"	"[0, 1]"	"[1.9130753999997978, 3.9133177000003343]"	3	-200	NA	NA	NA	NA	NA	NA	NA	NA	NA	19	"03"	"2024-02-08_17h31.48.057"	"GDT_exp"	"2023.2.3"	119.971686679342	"2024-02-08 17h31.57.103593 +0100"	NA
"dice_5.png"	5	1	0	6	4	123.343068600003	NA	NA	NA	NA	NA	NA	NA	NA	NA	NA	NA	NA	123.3043335	123.343068600003	123.343068600003	123.343068600003	123.343068600003	123.343068600003	123.343068600003	123.343068600003	123.343068600003	123.343068600003	123.343068600003	123.343068600003	123.343068600003	123.343068600003	123.343068600003	123.343068600003	123.343068600003	123.343068600003	123.343068600003	123.343068600003	123.343068600003	123.343068600003	123.343068600003	123.343068600003	123.343068600003	123.343068600003	0.0146453999986988	3.43906259999858	126.809957100002	128.3515998	128.3123027	"[-0.45092592592592595, -0.2953703703703704]"	"[-0.25277777777777777, -0.2574074074074074]"	"[1, 0]"	"[0, 0]"	"[0, 1]"	"[2.3572793999992427, 3.424264699999185]"	3	-200	NA	NA	NA	NA	NA	NA	NA	NA	NA	19	"03"	"2024-02-08_17h31.48.057"	"GDT_exp"	"2023.2.3"	119.971686679342	"2024-02-08 17h31.57.103593 +0100"	NA
"dice_2.png"	2	1	1	7	1	128.3515998	NA	NA	NA	NA	NA	NA	NA	NA	NA	NA	NA	NA	128.312826700003	128.3515998	128.3515998	128.3515998	128.3515998	128.3515998	128.3515998	128.3515998	128.3515998	128.3515998	128.3515998	128.3515998	128.3515998	128.3515998	128.3515998	128.3515998	128.3515998	128.3515998	128.3515998	128.3515998	128.3515998	128.3515998	128.3515998	128.3515998	128.3515998	128.3515998	0.0148099999969418	NA	130.051722	131.610305400001	131.572042900003	"[-0.45740740740740743, -0.45740740740740743]"	"[-0.262037037037037, -0.262037037037037]"	"[1, 0]"	"[0, 0]"	"[0, 1]"	"[1.4323681999994733, 1.6574599999985367]"	3	200	1.67236989999947	3.19752919999883	NA	NA	NA	NA	NA	NA	NA	19	"03"	"2024-02-08_17h31.48.057"	"GDT_exp"	"2023.2.3"	119.971686679342	"2024-02-08 17h31.57.103593 +0100"	NA
"dice_4.png"	4	1	2	8	3	131.610305400001	NA	NA	NA	NA	NA	NA	NA	NA	NA	NA	NA	NA	131.572620000003	131.610305400001	131.610305400001	131.610305400001	131.610305400001	131.610305400001	131.610305400001	131.610305400001	131.610305400001	131.610305400001	131.610305400001	131.610305400001	131.610305400001	131.610305400001	131.610305400001	131.610305400001	131.610305400001	131.610305400001	131.610305400001	131.610305400001	131.610305400001	131.610305400001	131.610305400001	131.610305400001	131.610305400001	131.610305400001	0.0145085000003746	NA	133.660311200001	135.2106489	135.173770100002	"[-0.07592592592592592, -0.11203703703703703]"	"[-0.2574074074074074, -0.25555555555555554]"	"[1, 0]"	"[0, 0]"	"[0, 1]"	"[1.6230445000001055, 2.006419299999834]"	3	200	2.02117200000066	3.52964439999778	NA	NA	NA	NA	NA	NA	NA	19	"03"	"2024-02-08_17h31.48.057"	"GDT_exp"	"2023.2.3"	119.971686679342	"2024-02-08 17h31.57.103593 +0100"	NA
"dice_6.png"	6	1	3	9	5	135.2106489	NA	NA	NA	NA	NA	NA	NA	NA	NA	NA	NA	NA	135.174337300003	135.2106489	135.2106489	135.2106489	135.2106489	135.2106489	135.2106489	135.2106489	135.2106489	135.2106489	135.2106489	135.2106489	135.2106489	135.2106489	135.2106489	135.2106489	135.2106489	135.2106489	135.2106489	135.2106489	135.2106489	135.2106489	135.2106489	135.2106489	135.2106489	135.2106489	0.0147732999976142	1.03636170000027	136.277162500002	137.843997700002	137.804898500002	"[-0.525, -0.4527777777777778]"	"[-0.062037037037037036, -0.10555555555555556]"	"[1, 0]"	"[0, 0]"	"[0, 1]"	"[0.47115089999715565, 1.0212455999972008]"	1	-1000	NA	NA	NA	NA	NA	NA	NA	NA	NA	19	"03"	"2024-02-08_17h31.48.057"	"GDT_exp"	"2023.2.3"	119.971686679342	"2024-02-08 17h31.57.103593 +0100"	NA
"dice_1.png"	1	1	4	10	0	137.843997700002	NA	NA	NA	NA	NA	NA	NA	NA	NA	NA	NA	NA	137.805478400001	137.843997700002	137.843997700002	137.843997700002	137.843997700002	137.843997700002	137.843997700002	137.843997700002	137.843997700002	137.843997700002	137.843997700002	137.843997700002	137.843997700002	137.843997700002	137.843997700002	137.843997700002	137.843997700002	137.843997700002	137.843997700002	137.843997700002	137.843997700002	137.843997700002	137.843997700002	137.843997700002	137.843997700002	137.843997700002	0.0148791999999958	NA	142.1359085	143.711016200003	143.663406900003	"[-0.3888888888888889, -0.3888888888888889]"	"[-0.2351851851851852, -0.2351851851851852]"	"[1, 0]"	"[0, 0]"	"[0, 1]"	"[3.62389169999733, 4.248748499998328]"	3	200	4.26389220000056	5.78907690000051	NA	NA	NA	NA	NA	NA	NA	19	"03"	"2024-02-08_17h31.48.057"	"GDT_exp"	"2023.2.3"	119.971686679342	"2024-02-08 17h31.57.103593 +0100"	NA
"dice_3.png"	3	1	5	11	2	143.711016200003	NA	NA	NA	NA	NA	NA	NA	NA	NA	NA	NA	NA	143.663979600002	143.711016200003	143.711016200003	143.711016200003	143.711016200003	143.711016200003	143.711016200003	143.711016200003	143.711016200003	143.711016200003	143.711016200003	143.711016200003	143.711016200003	143.711016200003	143.711016200003	143.711016200003	143.711016200003	143.711016200003	143.711016200003	143.711016200003	143.711016200003	143.711016200003	143.711016200003	143.711016200003	143.711016200003	143.711016200003	0.0180395999996108	2.10570619999999	145.844490900003	147.411272000001	147.371835400001	"[-0.08888888888888889, -0.10462962962962963]"	"[-0.2462962962962963, -0.24444444444444444]"	"[1, 0]"	"[0, 0]"	"[0, 1]"	"[1.6289926999997988, 2.087273599998298]"	3	-200	NA	NA	NA	NA	NA	NA	NA	NA	NA	19	"03"	"2024-02-08_17h31.48.057"	"GDT_exp"	"2023.2.3"	119.971686679342	"2024-02-08 17h31.57.103593 +0100"	NA
"dice_1.png"	1	2	0	12	0	147.411272000001	NA	NA	NA	NA	NA	NA	NA	NA	NA	NA	NA	NA	147.372408700001	147.411272000001	147.411272000001	147.411272000001	147.411272000001	147.411272000001	147.411272000001	147.411272000001	147.411272000001	147.411272000001	147.411272000001	147.411272000001	147.411272000001	147.411272000001	147.411272000001	147.411272000001	147.411272000001	147.411272000001	147.411272000001	147.411272000001	147.411272000001	147.411272000001	147.411272000001	147.411272000001	147.411272000001	147.411272000001	0.0142300000006799	1.07242220000262	148.5113523	150.053125600003	150.0138023	"[-0.10462962962962963, -0.10462962962962963]"	"[-0.24444444444444444, -0.24444444444444444]"	"[1, 0]"	"[0, 0]"	"[0, 1]"	"[0.6331785000002128, 1.0579608000007283]"	3	-200	NA	NA	NA	NA	NA	NA	NA	NA	NA	19	"03"	"2024-02-08_17h31.48.057"	"GDT_exp"	"2023.2.3"	119.971686679342	"2024-02-08 17h31.57.103593 +0100"	NA
"dice_5.png"	5	2	1	13	4	150.053125600003	NA	NA	NA	NA	NA	NA	NA	NA	NA	NA	NA	NA	150.0143713	150.053125600003	150.053125600003	150.053125600003	150.053125600003	150.053125600003	150.053125600003	150.053125600003	150.053125600003	150.053125600003	150.053125600003	150.053125600003	150.053125600003	150.053125600003	150.053125600003	150.053125600003	150.053125600003	150.053125600003	150.053125600003	150.053125600003	150.053125600003	150.053125600003	150.053125600003	150.053125600003	150.053125600003	150.053125600003	0.0142745999983163	NA	150.753173100002	152.320023	152.2840125	"[-0.10462962962962963, -0.10462962962962963]"	"[-0.24444444444444444, -0.24444444444444444]"	"[1, 0]"	"[0, 0]"	"[0, 1]"	"[0.20778490000157035, 0.6577595999988262]"	3	200	0.672276199999033	2.17242019999685	NA	NA	NA	NA	NA	NA	NA	19	"03"	"2024-02-08_17h31.48.057"	"GDT_exp"	"2023.2.3"	119.971686679342	"2024-02-08 17h31.57.103593 +0100"	NA
"dice_4.png"	4	2	2	14	3	152.320023	NA	NA	NA	NA	NA	NA	NA	NA	NA	NA	NA	NA	152.284549800002	152.320023	152.320023	152.320023	152.320023	152.320023	152.320023	152.320023	152.320023	152.320023	152.320023	152.320023	152.320023	152.320023	152.320023	152.320023	152.320023	152.320023	152.320023	152.320023	152.320023	152.320023	152.320023	152.320023	152.320023	152.320023	0.0150369000002684	1.58565299999827	153.936739300003	155.503504	155.455954100002	"[-0.537962962962963, -0.26851851851851855]"	"[-0.041666666666666664, -0.21203703703703702]"	"[1, 0]"	"[0, 0]"	"[0, 1]"	"[0.6787436000013258, 1.570265100002871]"	1	-1000	NA	NA	NA	NA	NA	NA	NA	NA	NA	19	"03"	"2024-02-08_17h31.48.057"	"GDT_exp"	"2023.2.3"	119.971686679342	"2024-02-08 17h31.57.103593 +0100"	NA
"dice_6.png"	6	2	3	15	5	155.503504	NA	NA	NA	NA	NA	NA	NA	NA	NA	NA	NA	NA	155.456531200001	155.503504	155.503504	155.503504	155.503504	155.503504	155.503504	155.503504	155.503504	155.503504	155.503504	155.503504	155.503504	155.503504	155.503504	155.503504	155.503504	155.503504	155.503504	155.503504	155.503504	155.503504	155.503504	155.503504	155.503504	155.503504	0.0163935999989917	2.18894269999873	157.712054300002	159.262144800003	159.222942100001	"[-0.43796296296296294, -0.43796296296296294]"	"[-0.2490740740740741, -0.2490740740740741]"	"[1, 0]"	"[0, 0]"	"[0, 1]"	"[1.8975090999992972, 2.1725246000023617]"	3	-200	NA	NA	NA	NA	NA	NA	NA	NA	NA	19	"03"	"2024-02-08_17h31.48.057"	"GDT_exp"	"2023.2.3"	119.971686679342	"2024-02-08 17h31.57.103593 +0100"	NA
"dice_3.png"	3	2	4	16	2	159.262144800003	NA	NA	NA	NA	NA	NA	NA	NA	NA	NA	NA	NA	159.223525100002	159.262144800003	159.262144800003	159.262144800003	159.262144800003	159.262144800003	159.262144800003	159.262144800003	159.262144800003	159.262144800003	159.262144800003	159.262144800003	159.262144800003	159.262144800003	159.262144800003	159.262144800003	159.262144800003	159.262144800003	159.262144800003	159.262144800003	159.262144800003	159.262144800003	159.262144800003	159.262144800003	159.262144800003	159.262144800003	0.0147801999992225	NA	162.304011	163.854254200003	163.8151631	"[-0.41203703703703703, -0.30462962962962964]"	"[-0.2518518518518518, -0.25462962962962965]"	"[1, 0]"	"[0, 0]"	"[0, 1]"	"[2.307354299999133, 2.983739400002378]"	3	200	2.99739979999868	4.49744009999995	NA	NA	NA	NA	NA	NA	NA	19	"03"	"2024-02-08_17h31.48.057"	"GDT_exp"	"2023.2.3"	119.971686679342	"2024-02-08 17h31.57.103593 +0100"	NA
"dice_2.png"	2	2	5	17	1	163.854254200003	NA	NA	NA	NA	NA	NA	NA	NA	NA	NA	NA	NA	163.8157168	163.854254200003	163.854254200003	163.854254200003	163.854254200003	163.854254200003	163.854254200003	163.854254200003	163.854254200003	163.854254200003	163.854254200003	163.854254200003	163.854254200003	163.854254200003	163.854254200003	163.854254200003	163.854254200003	163.854254200003	163.854254200003	163.854254200003	163.854254200003	163.854254200003	163.854254200003	163.854254200003	163.854254200003	163.854254200003	0.0147060999988753	NA	167.012793900001	168.546098700001	168.532013	"[-0.45925925925925926, -0.45925925925925926]"	"[-0.2564814814814815, -0.2564814814814815]"	"[1, 0]"	"[0, 0]"	"[0, 1]"	"[2.682080300000962, 3.1155556999983673]"	3	200	3.13040270000056	4.6472188000007	NA	NA	NA	NA	NA	NA	NA	19	"03"	"2024-02-08_17h31.48.057"	"GDT_exp"	"2023.2.3"	119.971686679342	"2024-02-08 17h31.57.103593 +0100"	NA
NA	NA	NA	NA	NA	NA	NA	NA	NA	NA	NA	NA	NA	NA	NA	NA	NA	NA	NA	NA	NA	NA	NA	NA	NA	NA	NA	NA	NA	NA	NA	NA	NA	NA	NA	NA	NA	NA	NA	NA	NA	NA	NA	NA	NA	NA	NA	NA	NA	NA	NA	NA	NA	NA	NA	NA	NA	NA	NA	NA	168.532485200001	168.546098700001	168.546098700001	175.3886929	"space"	6.83831360000113	"None"	19	"03"	"2024-02-08_17h31.48.057"	"GDT_exp"	"2023.2.3"	119.971686679342	"2024-02-08 17h31.57.103593 +0100"	NA
