image	max_pumps	pump_loop.thisRepN	pump_loop.thisTrialN	pump_loop.thisN	pump_loop.thisIndex	thisRow.t	notes	Start.started	text_start.started	continue_start.started	mouse_start.started	Start.stopped	mouse_start.x	mouse_start.y	mouse_start.leftButton	mouse_start.midButton	mouse_start.rightButton	mouse_start.time	trials.started	stim_balloon.started	stim_balloon_burst.started	stim_balloon_burst.stopped	text_ballon_value.started	text_bank.started	mouse.started	sound_bang.started	sound_bang.stopped	button_balloon.started	trials.stopped	n_pumps	earnings	popped	mouse.x	mouse.y	mouse.leftButton	mouse.midButton	mouse.rightButton	mouse.time	button_balloon.numClicks	button_balloon.timesOn	button_balloon.timesOff	Feedback.started	text_feedback.started	text_feedback.stopped	Feedback.stopped	End.started	text_end.started	key_end.started	End.stopped	key_end.keys	key_end.rt	key_end.duration	participant	session	date	expName	psychopyVersion	frameRate	expStart	
								0.0018019000417552888	0.009537999983876944	0.009537999983876944	0.0021135000279173255	35.48390150000341	[0.7194444444444444]	[-0.3925925925925926]	[1]	[0]	[0]	[35.481109599990305]																																			33	03	2024-02-27_09h26.53.060	BART_exp	2023.2.3	None	2024-02-27 09h27.02.670123 +0100	
balloon.png	123	0	0	0	28	35.55326590000186													35.49739909998607	35.55326590000186	35.55326590000186	35.55326590000186	35.55326590000186	35.55326590000186	0.015406200021971017	0.015406200021971017	0.015406200021971017	35.55326590000186	41.48573140002554	15	0.75	False	"[-0.03611111111111111, -0.03611111111111111, -0.03611111111111111, -0.018518518518518517, -0.013888888888888888, -0.013888888888888888, -0.012037037037037037, -0.018518518518518517, -0.018518518518518517, -0.018518518518518517, -0.018518518518518517, -0.018518518518518517, -0.018518518518518517, -0.018518518518518517, -0.018518518518518517, -0.019444444444444445, -0.021296296296296296, -0.018518518518518517, -0.018518518518518517, -0.018518518518518517, -0.018518518518518517, -0.018518518518518517, -0.018518518518518517]"	"[-0.016666666666666666, -0.016666666666666666, -0.01574074074074074, -0.025, -0.025, -0.025, -0.03148148148148148, -0.40370370370370373, -0.40370370370370373, -0.40370370370370373, -0.40370370370370373, -0.40370370370370373, -0.40370370370370373, -0.40370370370370373, -0.40370370370370373, -0.4046296296296296, -0.4046296296296296, -0.4027777777777778, -0.4027777777777778, -0.4027777777777778, -0.4027777777777778, -0.4027777777777778, -0.4027777777777778]"	"[1, 1, 1, 1, 1, 1, 1, 1, 1, 1, 1, 1, 1, 1, 1, 1, 1, 1, 1, 1, 1, 1, 0]"	"[0, 0, 0, 0, 0, 0, 0, 0, 0, 0, 0, 0, 0, 0, 0, 0, 0, 0, 0, 0, 0, 0, 0]"	"[0, 0, 0, 0, 0, 0, 0, 0, 0, 0, 0, 0, 0, 0, 0, 0, 0, 0, 0, 0, 0, 0, 1]"	"[1.4534596999874339, 1.628381000016816, 1.7950248999986798, 2.1615490000112914, 2.3448921000235714, 2.503323199984152, 2.8202726999879815, 3.4867255000281148, 3.678416999988258, 3.8452637000009418, 3.995320999994874, 4.161699199990835, 4.320133100030944, 4.495064800023101, 4.6783721999963745, 4.84532110003056, 5.012003400013782, 5.2038215000065975, 5.353768400033005, 5.5036359000368975, 5.678445800032932, 5.828717500029597, 5.987183100020047]"	16	"[3.4369630999863148, 3.628660399990622, 3.7955355999874882, 3.9455723999999464, 4.1119503999943845, 4.270371599995997, 4.445305300003383, 4.628613199980464, 4.795570800022688, 4.962254000012763, 5.15408170002047, 5.304056600027252, 5.45387780002784, 5.628681899979711, 5.778967900027055, 5.937376799993217]"	"[3.528509500029031, 3.6868461000267416, 3.861881999997422, 4.020227300003171, 4.170265200024005, 4.361881699995138, 4.520235100004356, 4.695216400024947, 4.853755899996031, 5.0286044999957085, 5.195284800021909, 5.361930700019002, 5.52047320001293, 5.695293100026902, 5.83711060002679, 5.937380900024436]"	41.48720899998443	41.497365800023545	43.00257790001342	42.98485489998711								33	03	2024-02-27_09h26.53.060	BART_exp	2023.2.3	None	2024-02-27 09h27.02.670123 +0100	
balloon.png	23	0	1	1	5	43.00257790001342													42.98506969999289	43.00257790001342	43.00257790001342	43.00257790001342	43.00257790001342	43.00257790001342	-0.0003648999845609069	-0.0003648999845609069	-0.0003648999845609069	43.00257790001342	45.22726950002834	13	0.65	False	"[-0.019444444444444445, -0.019444444444444445, -0.019444444444444445, -0.019444444444444445, -0.019444444444444445, -0.019444444444444445, -0.019444444444444445, -0.019444444444444445, -0.020370370370370372, -0.020370370370370372, -0.020370370370370372, -0.020370370370370372, -0.020370370370370372]"	"[-0.4027777777777778, -0.4027777777777778, -0.4027777777777778, -0.4027777777777778, -0.4027777777777778, -0.4027777777777778, -0.4027777777777778, -0.40185185185185185, -0.40185185185185185, -0.40185185185185185, -0.40185185185185185, -0.40185185185185185, -0.40185185185185185]"	"[1, 1, 1, 1, 1, 1, 1, 1, 1, 1, 1, 1, 0]"	"[0, 0, 0, 0, 0, 0, 0, 0, 0, 0, 0, 0, 0]"	"[0, 0, 0, 0, 0, 0, 0, 0, 0, 0, 0, 0, 1]"	"[0.13333619997138157, 0.2911184999975376, 0.4663680999656208, 0.6158857999835163, 0.7909655999974348, 0.9413151000044309, 1.107850399974268, 1.2831150999991223, 1.4494011999922805, 1.599416300014127, 1.7496461999835446, 1.9246953999972902, 2.2411217999760993]"	13	"[0.12123670004075393, 0.27895340003306046, 0.454216499987524, 0.6037115000071935, 0.7787946999887936, 0.9291621000156738, 1.0956844000029378, 1.2711475000251085, 1.4372695999918506, 1.5872958000400104, 1.7375469999969937, 1.9125331999966875, 2.228884400043171]"	"[0.2041190000018105, 0.3453898000298068, 0.5120527000399306, 0.6873130000312813, 0.8453693999908864, 0.995409200026188, 1.1705869000288658, 1.3287554000271484, 1.5038052999880165, 1.6620883000432514, 1.828784400015138, 2.003791499999352, 2.2288887000177056]"	45.22811580001144	45.2337507000193	46.72655520000262	46.717708399984986								33	03	2024-02-27_09h26.53.060	BART_exp	2023.2.3	None	2024-02-27 09h27.02.670123 +0100	
balloon.png	31	0	2	2	7	46.72655520000262													46.7179208000307	46.72655520000262	46.72655520000262	46.72655520000262	46.72655520000262	46.72655520000262	0.00575470004696399	0.00575470004696399	0.00575470004696399	46.72655520000262	50.261207700008526	20	1.00	False	"[-0.023148148148148147, -0.023148148148148147, -0.023148148148148147, -0.023148148148148147, -0.023148148148148147, -0.023148148148148147, -0.023148148148148147, -0.023148148148148147, -0.023148148148148147, -0.023148148148148147, -0.023148148148148147, -0.024074074074074074, -0.025, -0.025925925925925925, -0.025925925925925925, -0.025925925925925925, -0.025925925925925925, -0.025925925925925925, -0.025925925925925925, -0.025925925925925925]"	"[-0.40185185185185185, -0.40185185185185185, -0.40185185185185185, -0.40185185185185185, -0.40185185185185185, -0.40185185185185185, -0.40185185185185185, -0.40185185185185185, -0.40185185185185185, -0.40185185185185185, -0.40185185185185185, -0.40185185185185185, -0.40185185185185185, -0.40185185185185185, -0.40185185185185185, -0.40185185185185185, -0.40185185185185185, -0.40185185185185185, -0.40185185185185185, -0.40185185185185185]"	"[1, 1, 1, 1, 1, 1, 1, 1, 1, 1, 1, 1, 1, 1, 1, 1, 1, 1, 1, 0]"	"[0, 0, 0, 0, 0, 0, 0, 0, 0, 0, 0, 0, 0, 0, 0, 0, 0, 0, 0, 0]"	"[0, 0, 0, 0, 0, 0, 0, 0, 0, 0, 0, 0, 0, 0, 0, 0, 0, 0, 0, 1]"	"[0.13347470003645867, 0.30845589999808, 0.4666439000284299, 0.633510000014212, 0.7921042999951169, 0.9587251000339165, 1.1754763000062667, 1.3334250000189058, 1.5085603999905288, 1.675187900022138, 1.850115699984599, 2.0252187000005506, 2.1921509000239894, 2.350462600006722, 2.5086924000061117, 2.866889299999457, 3.066876500030048, 3.2089030999923125, 3.383770500018727, 3.5421339999884367]"	20	"[0.1303627000306733, 0.3053360999911092, 0.46352019999176264, 0.6303843000205234, 0.7890082999947481, 0.9556259000091814, 1.1723700999864377, 1.3303016999852844, 1.5054356000036933, 1.6720650999923237, 1.8469956000335515, 2.022102900024038, 2.1890465000178665, 2.347361300024204, 2.505563999991864, 2.863778300001286, 3.0637470000074245, 3.205815599998459, 3.380657900008373, 3.538942000013776]"	"[0.2300431000185199, 0.388594500022009, 0.5553411000291817, 0.7219531000009738, 0.9053023000014946, 1.0968218999914825, 1.2052480999846011, 1.3886110000312328, 1.5802156000281684, 1.7635538000031374, 1.9302515999879688, 2.105338599998504, 2.288711400004104, 2.4720880999811925, 2.797003699990455, 2.9388724000309594, 3.147011700028088, 3.3149780000094324, 3.463703399989754, 3.538946099986788]"	50.26225810003234	50.26741700002458	51.76086760003818	51.75136779999593								33	03	2024-02-27_09h26.53.060	BART_exp	2023.2.3	None	2024-02-27 09h27.02.670123 +0100	
balloon.png	105	0	3	3	24	51.76086760003818													51.75158380001085	51.76086760003818	51.76086760003818	51.76086760003818	51.76086760003818	51.76086760003818	0.005283000005874783	0.005283000005874783	0.005283000005874783	51.76086760003818	55.29485679999925	20	1.00	False	"[-0.026851851851851852, -0.026851851851851852, -0.026851851851851852, -0.026851851851851852, -0.026851851851851852, -0.026851851851851852, -0.027777777777777776, -0.02962962962962963, -0.02962962962962963, -0.02962962962962963, -0.02962962962962963, -0.02962962962962963, -0.030555555555555555, -0.03148148148148148, -0.03148148148148148, -0.03148148148148148, -0.032407407407407406, -0.03333333333333333, -0.03425925925925926, -0.03425925925925926]"	"[-0.40185185185185185, -0.40185185185185185, -0.40185185185185185, -0.40185185185185185, -0.40185185185185185, -0.4027777777777778, -0.4027777777777778, -0.40370370370370373, -0.4046296296296296, -0.40555555555555556, -0.40555555555555556, -0.40555555555555556, -0.40555555555555556, -0.4064814814814815, -0.4064814814814815, -0.4064814814814815, -0.4064814814814815, -0.4074074074074074, -0.4074074074074074, -0.4083333333333333]"	"[1, 1, 1, 1, 1, 1, 1, 1, 1, 1, 1, 1, 1, 1, 1, 1, 1, 1, 1, 0]"	"[0, 0, 0, 0, 0, 0, 0, 0, 0, 0, 0, 0, 0, 0, 0, 0, 0, 0, 0, 0]"	"[0, 0, 0, 0, 0, 0, 0, 0, 0, 0, 0, 0, 0, 0, 0, 0, 0, 0, 0, 1]"	"[0.10005840001394972, 0.29267569998046383, 0.4752398999989964, 0.6498460000148043, 0.8417249000049196, 0.999885400000494, 1.1754826999967918, 1.3356976000359282, 1.5169091999996454, 1.70014050003374, 1.8834747999790125, 2.0749464000109583, 2.2582983000320382, 2.4333760000299662, 2.6083286000066437, 2.808477699989453, 2.9915971999871545, 3.1918632999877445, 3.3586052000173368, 3.5419094000244513]"	20	"[0.09672009997302666, 0.2893749999930151, 0.4719604999991134, 0.6466492000035942, 0.8384041999815963, 0.9965358999907039, 1.1722865999909118, 1.3323445999994874, 1.5135674999910407, 1.6968106999993324, 1.8801338999764994, 2.071657899999991, 2.254975599993486, 2.430026200017892, 2.604966400016565, 2.805124500009697, 2.9882619000272825, 3.1885298999841325, 3.355258400028106, 3.5384882999933325]"	"[0.2220005000126548, 0.371924199978821, 0.5384360000025481, 0.7297585000051185, 0.9050306999706663, 1.0716739000054076, 1.2549491000245325, 1.4381914000259712, 1.6213993999990635, 1.8047982000280172, 1.9798300000256859, 2.1560619000229053, 2.3547589000081643, 2.5465714000165462, 2.7132482000160962, 2.8967734000179917, 3.088144799985457, 3.27998499997193, 3.4633041999768466, 3.5384923000237904]"	55.29598870000336	55.30123199999798	56.79292490001535	56.78511370002525								33	03	2024-02-27_09h26.53.060	BART_exp	2023.2.3	None	2024-02-27 09h27.02.670123 +0100	
balloon.png	62	0	4	4	14	56.79292490001535													56.785339099995326	56.79292490001535	56.79292490001535	56.79292490001535	56.79292490001535	56.79292490001535	0.00528189999749884	0.00528189999749884	0.00528189999749884	56.79292490001535	60.511813000019174	20	1.00	False	"[-0.024074074074074074, -0.023148148148148147, -0.025, -0.025, -0.027777777777777776, -0.027777777777777776, -0.027777777777777776, -0.027777777777777776, -0.026851851851851852, -0.026851851851851852, -0.026851851851851852, -0.026851851851851852, -0.027777777777777776, -0.027777777777777776, -0.028703703703703703, -0.028703703703703703, -0.028703703703703703, -0.028703703703703703, -0.028703703703703703, -0.028703703703703703]"	"[-0.39537037037037037, -0.39537037037037037, -0.3972222222222222, -0.3972222222222222, -0.3972222222222222, -0.3972222222222222, -0.3972222222222222, -0.3972222222222222, -0.3972222222222222, -0.3972222222222222, -0.3972222222222222, -0.3972222222222222, -0.3972222222222222, -0.3972222222222222, -0.39814814814814814, -0.39814814814814814, -0.39814814814814814, -0.39814814814814814, -0.39814814814814814, -0.39814814814814814]"	"[1, 1, 1, 1, 1, 1, 1, 1, 1, 1, 1, 1, 1, 1, 1, 1, 1, 1, 1, 0]"	"[0, 0, 0, 0, 0, 0, 0, 0, 0, 0, 0, 0, 0, 0, 0, 0, 0, 0, 0, 0]"	"[0, 0, 0, 0, 0, 0, 0, 0, 0, 0, 0, 0, 0, 0, 0, 0, 0, 0, 0, 1]"	"[0.20004720002179965, 0.38338409998686984, 0.5727678000112064, 0.7585210999823175, 0.9336505000246689, 1.1169822000083514, 1.3003356999834068, 1.491937400016468, 1.658584700024221, 1.8501956000109203, 2.0084348000236787, 2.2251881000120193, 2.4177175000077114, 2.6084955999976955, 2.783604900003411, 2.9669735999777913, 3.1504239999921992, 3.3585280000115745, 3.5251810000045225, 3.7253558000084013]"	21	"[0.01994090003427118, 0.19781560002593324, 0.38114720000885427, 0.5705237000365742, 0.7562990000005811, 0.9314273000345565, 1.1147766000358388, 1.2981085000210442, 1.4897090999875218, 1.656358900014311, 1.8479739000322297, 2.0061991999973543, 2.2229453999898396, 2.4155259000253864, 2.6062767999828793, 2.781369300035294, 2.9647355999914, 3.1481997999944724, 3.356298800033983, 3.522958900022786, 3.7230618000030518]"	"[0.08919650001917034, 0.2893344000331126, 0.44772310002008453, 0.6394062000326812, 0.8311698000179604, 1.0060409000143409, 1.1727124000317417, 1.3644734999979846, 1.5727425999939442, 1.7394752000109293, 1.947890000010375, 2.106089000008069, 2.27281579998089, 2.489452200010419, 2.697965600003954, 2.8894541999907233, 3.0894511999795213, 3.256190299987793, 3.4314824999892153, 3.6395300999865867, 3.7230662999791093]"	60.51288769999519	60.518278500007	62.01128480001353	62.0021733000176								33	03	2024-02-27_09h26.53.060	BART_exp	2023.2.3	None	2024-02-27 09h27.02.670123 +0100	
balloon.png	14	0	5	5	3	62.01128480001353													62.00245339999674	62.01128480001353	62.01128480001353	62.01128480001353	62.01128480001353	62.01128480001353	0.005382800009101629	0.005382800009101629	0.005382800009101629	62.01128480001353	64.74584809999214	15	0.70	True	"[-0.049074074074074076, -0.049074074074074076, -0.049074074074074076, -0.049074074074074076, -0.049074074074074076, -0.05, -0.05, -0.05, -0.05, -0.05, -0.05, -0.05, -0.05, -0.05, -0.05]"	"[-0.37407407407407406, -0.37407407407407406, -0.37407407407407406, -0.37407407407407406, -0.37407407407407406, -0.375, -0.375, -0.375, -0.375, -0.375, -0.375, -0.375, -0.375, -0.375, -0.375]"	"[1, 1, 1, 1, 1, 1, 1, 1, 1, 1, 1, 1, 1, 1, 1]"	"[0, 0, 0, 0, 0, 0, 0, 0, 0, 0, 0, 0, 0, 0, 0]"	"[0, 0, 0, 0, 0, 0, 0, 0, 0, 0, 0, 0, 0, 0, 0]"	"[0.03113600000506267, 0.20824730000458658, 0.3832693000440486, 0.574809700017795, 0.7497482000035234, 0.9581838000449352, 1.1248476000037044, 1.299982100026682, 1.4999789000139572, 1.7000066000036895, 1.8917444000253454, 2.0917780000017956, 2.2584934000042267, 2.441871200047899, 2.6165276000392623]"	15	"[0.02220500004477799, 0.20529150002403185, 0.38041270000394434, 0.5718354000127874, 0.7468072000192478, 0.955209800042212, 1.1218757000169717, 1.2970193999935873, 1.4970055000158027, 1.6970396999968216, 1.888771700032521, 2.0888201000052504, 2.255537200020626, 2.4389062999980524, 2.6135499000083655]"	"[0.09475540003040805, 0.30867749999742955, 0.46339370001805946, 0.6717229000059888, 0.8717561000376008, 1.0633354000165127, 1.2300289000268094, 1.4135096000391059, 1.6218081000261009, 1.8133866999996826, 1.9967429999960586, 2.180142400029581, 2.3718327000387944, 2.546765500039328, 2.73015660000965]"	64.74673900002381	64.75321540003642	66.25234040000942	66.2441075000097								33	03	2024-02-27_09h26.53.060	BART_exp	2023.2.3	None	2024-02-27 09h27.02.670123 +0100	
balloon.png	110	0	6	6	25	66.25234040000942													66.24432779999916	66.25234040000942	66.25234040000942	66.25234040000942	66.25234040000942	66.25234040000942	-0.0008852999890223145	-0.0008852999890223145	-0.0008852999890223145	66.25234040000942	67.03742609999608	3	0.15	False	"[-0.05, -0.05, -0.05, -0.05092592592592592]"	"[-0.37592592592592594, -0.37592592592592594, -0.3768518518518518, -0.37777777777777777]"	"[1, 1, 1, 0]"	"[0, 0, 0, 0]"	"[0, 0, 0, 1]"	"[0.058457400009501725, 0.2585289999842644, 0.44197539996821433, 0.7919403999694623]"	4	"[0.055734199995640665, 0.2558221000363119, 0.43927610001992434, 0.7891587000340223]"	"[0.16390720003983006, 0.3472073000157252, 0.5054771000286564, 0.7891631000093184]"	67.03816100000404	67.04370909999125	68.53579100000206	68.52760670002317								33	03	2024-02-27_09h26.53.060	BART_exp	2023.2.3	None	2024-02-27 09h27.02.670123 +0100	
balloon.png	1	0	7	7	0	68.53579100000206													68.52782220003428	68.53579100000206	68.53579100000206	68.53579100000206	68.53579100000206	68.53579100000206	0.00556790002156049	0.00556790002156049	0.00556790002156049	68.53579100000206	68.79619510000339	2	0.05	True	[-0.05648148148148148]	[-0.3814814814814815]	[1]	[0]	[0]	[0.15844749996904284]	1	[0.15586920001078397]	[0.2555627000401728]	68.79681740002707	68.80201889999444	70.30232600000454	70.28601650003111								33	03	2024-02-27_09h26.53.060	BART_exp	2023.2.3	None	2024-02-27 09h27.02.670123 +0100	
balloon.png	92	0	8	8	21	70.30232600000454													70.28624590003164	70.30232600000454	70.30232600000454	70.30232600000454	70.30232600000454	70.30232600000454	0.005599200027063489			70.30232600000454	70.63752460002434	2	0.10	False	"[-0.05648148148148148, -0.05648148148148148]"	"[-0.38796296296296295, -0.38796296296296295]"	"[1, 0]"	"[0, 0]"	"[0, 1]"	"[0.1922156000509858, 0.35017300001345575]"	3	"[0.014689100033137947, 0.18993749999208376, 0.34777970000868663]"	"[0.0895918000023812, 0.2560620000003837, 0.3477839000406675]"	70.63814860000275	70.64381700003287	72.13750459998846	72.12784830003511								33	03	2024-02-27_09h26.53.060	BART_exp	2023.2.3	None	2024-02-27 09h27.02.670123 +0100	
balloon.png	36	0	9	9	8	72.13750459998846													72.12806379998801	72.13750459998846	72.13750459998846	72.13750459998846	72.13750459998846	72.13750459998846	-0.0005705999792553484	-0.0005705999792553484	-0.0005705999792553484	72.13750459998846	73.89604820002569	9	0.45	False	"[-0.05648148148148148, -0.05648148148148148, -0.05648148148148148, -0.05648148148148148, -0.05648148148148148, -0.05648148148148148, -0.05648148148148148, -0.05648148148148148, -0.05648148148148148, -0.05648148148148148]"	"[-0.38796296296296295, -0.38796296296296295, -0.38796296296296295, -0.38796296296296295, -0.38796296296296295, -0.38796296296296295, -0.38796296296296295, -0.38796296296296295, -0.38796296296296295, -0.38796296296296295]"	"[1, 1, 1, 1, 1, 1, 1, 1, 1, 0]"	"[0, 0, 0, 0, 0, 0, 0, 0, 0, 0]"	"[0, 0, 0, 0, 0, 0, 0, 0, 0, 1]"	"[0.04154009994817898, 0.22485169995343313, 0.4163804999552667, 0.5997672999510542, 0.8498293999582529, 1.0248563999775797, 1.1915376999531873, 1.3832973999669775, 1.5585290999733843, 1.7666939999908209]"	10	"[0.03796430001966655, 0.22126730001764372, 0.4128043000237085, 0.5961797999916598, 0.8462411999935284, 1.0212780000292696, 1.1879550000303425, 1.37970570003381, 1.5549980000359938, 1.7630531000322662]"	"[0.12936640001134947, 0.32119930000044405, 0.496000399987679, 0.721173900004942, 0.9464522000052966, 1.112755800015293, 1.287848700012546, 1.4712670000153594, 1.6628029000130482, 1.763057200005278]"	73.89691770001082	73.90309760003584	75.3941962000099	75.38636950001819								33	03	2024-02-27_09h26.53.060	BART_exp	2023.2.3	None	2024-02-27 09h27.02.670123 +0100	
balloon.png	53	0	10	10	12	75.3941962000099													75.38658699998632	75.3941962000099	75.3941962000099	75.3941962000099	75.3941962000099	75.3941962000099	0.005655499990098178	0.005655499990098178	0.005655499990098178	75.3941962000099	79.68841310002608	22	1.10	False	"[-0.05648148148148148, -0.05648148148148148, -0.05740740740740741, -0.05740740740740741, -0.05740740740740741, -0.05740740740740741, -0.05740740740740741, -0.05740740740740741, -0.05740740740740741, -0.05740740740740741, -0.05740740740740741, -0.05740740740740741, -0.05740740740740741, -0.05740740740740741, -0.05740740740740741, -0.05740740740740741, -0.05740740740740741, -0.05740740740740741, -0.05648148148148148, -0.05648148148148148, -0.05740740740740741, -0.05740740740740741, -0.05740740740740741]"	"[-0.387037037037037, -0.387037037037037, -0.387037037037037, -0.387037037037037, -0.387037037037037, -0.387037037037037, -0.387037037037037, -0.387037037037037, -0.387037037037037, -0.387037037037037, -0.387037037037037, -0.3861111111111111, -0.3861111111111111, -0.3861111111111111, -0.3861111111111111, -0.3851851851851852, -0.3851851851851852, -0.3851851851851852, -0.38425925925925924, -0.38425925925925924, -0.38425925925925924, -0.38425925925925924, -0.38425925925925924]"	"[1, 1, 1, 1, 1, 1, 1, 1, 1, 1, 1, 1, 1, 1, 1, 1, 1, 1, 1, 1, 1, 1, 0]"	"[0, 0, 0, 0, 0, 0, 0, 0, 0, 0, 0, 0, 0, 0, 0, 0, 0, 0, 0, 0, 0, 0, 0]"	"[0, 0, 0, 0, 0, 0, 0, 0, 0, 0, 0, 0, 0, 0, 0, 0, 0, 0, 0, 0, 0, 0, 1]"	"[0.05852660001255572, 0.24191639997297898, 0.44192209996981546, 0.6503317999886349, 0.8254051000112668, 1.033731599978637, 1.2168558000121266, 1.400189700012561, 1.6083971000043675, 1.7923955000005662, 1.9918007000233047, 2.2003134000115097, 2.408460800012108, 2.6004167000064626, 2.775205800018739, 2.975190599972848, 3.1673783999867737, 3.367403900017962, 3.550816399976611, 3.7585319000063464, 3.925218300020788, 4.116794399975333, 4.300429599999916]"	23	"[0.05625839997082949, 0.23964509996585548, 0.43966550001641735, 0.6480650000157766, 0.8231495000072755, 1.0314744000206701, 1.21457409998402, 1.3979015999939293, 1.6061132000177167, 1.7901536999852397, 1.9895290000131354, 2.198030599975027, 2.406179199984763, 2.5981299999984913, 2.7729188000084832, 2.9729071999900043, 3.1650925999856554, 3.365142799972091, 3.5485736000118777, 3.756288799981121, 3.922928999993019, 4.114511099993251, 4.29814259998966]"	"[0.17260609997902066, 0.35596409998834133, 0.5311269999947399, 0.7310917999711819, 0.9145146000082605, 1.1393555999966338, 1.3144899000180885, 1.506018700019922, 1.6811881000176072, 1.9060651999898255, 2.098159499990288, 2.289384700008668, 2.4894632999785244, 2.689419900008943, 2.8561147999716923, 3.0649857000098564, 3.2727786999894306, 3.4561370000010356, 3.648378000012599, 3.8561668000184, 4.0315359000233, 4.206179399974644, 4.298147999972571]"	79.68954310001573	79.69444140000269	81.18659830000252	81.17837249999866								33	03	2024-02-27_09h26.53.060	BART_exp	2023.2.3	None	2024-02-27 09h27.02.670123 +0100	
balloon.png	114	0	11	11	26	81.18659830000252													81.1785830000299	81.18659830000252	81.18659830000252	81.18659830000252	81.18659830000252	81.18659830000252	0.00506399996811524	0.00506399996811524	0.00506399996811524	81.18659830000252	85.82197879999876	23	1.15	False	"[0.03796296296296296, 0.03796296296296296, 0.03796296296296296, 0.03796296296296296, 0.03796296296296296, 0.03796296296296296, 0.03796296296296296, 0.03796296296296296, 0.03796296296296296, 0.03796296296296296, 0.03796296296296296, 0.03888888888888889, 0.03888888888888889, 0.037037037037037035, 0.037037037037037035, 0.037037037037037035, 0.037037037037037035, 0.037037037037037035, 0.037037037037037035, 0.037037037037037035, 0.037037037037037035, 0.037037037037037035, 0.03611111111111111]"	"[-0.38333333333333336, -0.38333333333333336, -0.38333333333333336, -0.38333333333333336, -0.38333333333333336, -0.38333333333333336, -0.38333333333333336, -0.38333333333333336, -0.38333333333333336, -0.38333333333333336, -0.38333333333333336, -0.38333333333333336, -0.38333333333333336, -0.3851851851851852, -0.3851851851851852, -0.3851851851851852, -0.3824074074074074, -0.3814814814814815, -0.3814814814814815, -0.3814814814814815, -0.3814814814814815, -0.3814814814814815, -0.3851851851851852]"	"[1, 1, 1, 1, 1, 1, 1, 1, 1, 1, 1, 1, 1, 1, 1, 1, 1, 1, 1, 1, 1, 1, 0]"	"[0, 0, 0, 0, 0, 0, 0, 0, 0, 0, 0, 0, 0, 0, 0, 0, 0, 0, 0, 0, 0, 0, 0]"	"[0, 0, 0, 0, 0, 0, 0, 0, 0, 0, 0, 0, 0, 0, 0, 0, 0, 0, 0, 0, 0, 0, 1]"	"[0.14167610002914444, 0.33344190003117546, 0.5083223000401631, 0.7001112000434659, 0.858639900048729, 1.091952000046149, 1.2506057000136934, 1.4587008000235073, 1.6339101000339724, 1.8504334000172094, 2.0419766000122763, 2.2586721000261605, 2.4919977000099607, 2.6672032000496984, 2.8754407000378706, 3.1085858000442386, 3.375274799996987, 3.608630400034599, 3.7837102000485174, 4.000416600028984, 4.192060700035654, 4.417319000000134, 4.642234800034203]"	23	"[0.13917680003214628, 0.33093060000101104, 0.5058108000084758, 0.6976186000392772, 0.8561467000399716, 1.0894528000499122, 1.2481043000007048, 1.4562107000383548, 1.6314592999988236, 1.847951500036288, 2.0394812000449747, 2.256167700048536, 2.489490300009493, 2.6647038999944925, 2.872941800043918, 3.1060803000000305, 3.372787700034678, 3.6061288000200875, 3.7812070000218228, 3.9979132000007667, 4.189552600029856, 4.414836600015406, 4.639671200013254]"	"[0.24750769999809563, 0.4723658000002615, 0.6475032000453211, 0.7891107000177726, 0.9724849000340328, 1.1975199000444263, 1.372491899994202, 1.5891306000412442, 1.7809334000339732, 1.9558725000242703, 2.1725605000392534, 2.372541100019589, 2.572667000000365, 2.7644635000033304, 2.9643014000030234, 3.272666600008961, 3.497751100047026, 3.7060488000279292, 3.8810893000336364, 4.097807000041939, 4.297846100002062, 4.572857999999542, 4.639675300044473]"	85.82308100000955	85.82827250001719	87.32074290001765	87.31244609999703								33	03	2024-02-27_09h26.53.060	BART_exp	2023.2.3	None	2024-02-27 09h27.02.670123 +0100	
balloon.png	27	0	12	12	6	87.32074290001765													87.31265530001838	87.32074290001765	87.32074290001765	87.32074290001765	87.32074290001765	87.32074290001765	0.005358499998692423	0.005358499998692423	0.005358499998692423	87.32074290001765	92.7392952000373	28	1.35	True	"[0.040740740740740744, 0.040740740740740744, 0.040740740740740744, 0.040740740740740744, 0.040740740740740744, 0.040740740740740744, 0.040740740740740744, 0.040740740740740744, 0.040740740740740744, 0.040740740740740744, 0.040740740740740744, 0.040740740740740744, 0.03981481481481482, 0.037037037037037035, 0.03518518518518519, 0.03425925925925926, 0.03425925925925926, 0.03425925925925926, 0.03425925925925926, 0.03425925925925926, 0.03425925925925926, 0.03425925925925926, 0.03425925925925926, 0.03425925925925926, 0.03425925925925926, 0.03425925925925926, 0.03425925925925926]"	"[-0.36944444444444446, -0.36944444444444446, -0.36944444444444446, -0.36944444444444446, -0.36944444444444446, -0.36944444444444446, -0.36944444444444446, -0.36944444444444446, -0.36944444444444446, -0.36944444444444446, -0.36944444444444446, -0.36944444444444446, -0.36944444444444446, -0.3712962962962963, -0.37222222222222223, -0.3731481481481482, -0.3731481481481482, -0.3731481481481482, -0.3731481481481482, -0.3731481481481482, -0.3731481481481482, -0.3731481481481482, -0.37407407407407406, -0.37407407407407406, -0.37407407407407406, -0.37407407407407406, -0.37407407407407406]"	"[1, 1, 1, 1, 1, 1, 1, 1, 1, 1, 1, 1, 1, 1, 1, 1, 1, 1, 1, 1, 1, 1, 1, 1, 1, 1, 1]"	"[0, 0, 0, 0, 0, 0, 0, 0, 0, 0, 0, 0, 0, 0, 0, 0, 0, 0, 0, 0, 0, 0, 0, 0, 0, 0, 0]"	"[0, 0, 0, 0, 0, 0, 0, 0, 0, 0, 0, 0, 0, 0, 0, 0, 0, 0, 0, 0, 0, 0, 0, 0, 0, 0, 0]"	"[0.14157680002972484, 0.35073890001513064, 0.5339386000414379, 0.7339524000417441, 0.9082773000118323, 1.0916332000051625, 1.2916412000195123, 1.4750007000402547, 1.666772500029765, 1.8415083000436425, 2.033448500034865, 2.2416085000149906, 2.44986410002457, 2.649842799990438, 2.8498278000042774, 3.0416451999917626, 3.258546800003387, 3.48336220002966, 3.6751742000342347, 3.8665391000104137, 4.05853899999056, 4.2834702000254765, 4.475302000006195, 4.66679839999415, 4.875333400035743, 5.058619900024496, 5.250155800022185]"	27	"[0.13899240002501756, 0.34819400002015755, 0.5313754000235349, 0.7314106000121683, 0.9056877000257373, 1.0890466999844648, 1.2890434000291862, 1.4724063000176102, 1.6642972999834456, 1.8389180999947712, 2.0309562000329606, 2.239043799985666, 2.4473040000302717, 2.6472527000005357, 2.8472233000211418, 3.0390346000203863, 3.2559703000006266, 3.480761300015729, 3.672592999995686, 3.8639325000112876, 4.05595040001208, 4.280868000001647, 4.47273330000462, 4.664196800033096, 4.872748100024182, 5.056027300015558, 5.247547700011637]"	"[0.2809469000203535, 0.4554671000223607, 0.6555251000099815, 0.838688199990429, 1.022072300023865, 1.2257429999881424, 1.4053839999833144, 1.5639769000117667, 1.7888205000199378, 1.938782099983655, 2.172217399987858, 2.363831900001969, 2.572157100017648, 2.7471847999840975, 2.9805040000355802, 3.1971367000369355, 3.3973375000059605, 3.622316900000442, 3.7889382999856025, 3.988951899984386, 4.180546900024638, 4.413908499991521, 4.597272099985275, 4.805809499986935, 4.997269299987238, 5.172507899987977, 5.414056600013282]"	92.74057409999659	92.74533629999496	94.2377078999998	94.22931600001175								33	03	2024-02-27_09h26.53.060	BART_exp	2023.2.3	None	2024-02-27 09h27.02.670123 +0100	
balloon.png	71	0	13	13	16	94.2377078999998													94.22953330003656	94.2377078999998	94.2377078999998	94.2377078999998	94.2377078999998	94.2377078999998	0.004885300004389137			94.2377078999998	97.94770060002338	19	0.95	False	"[0.03333333333333333, 0.03333333333333333, 0.03333333333333333, 0.03333333333333333, 0.03333333333333333, 0.03333333333333333, 0.03333333333333333, 0.03333333333333333, 0.03333333333333333, 0.03333333333333333, 0.03333333333333333, 0.03333333333333333, 0.03333333333333333, 0.03333333333333333, 0.03333333333333333, 0.03333333333333333, 0.032407407407407406, 0.032407407407407406, 0.032407407407407406]"	"[-0.37592592592592594, -0.37592592592592594, -0.37592592592592594, -0.37592592592592594, -0.37592592592592594, -0.37592592592592594, -0.37592592592592594, -0.37592592592592594, -0.37592592592592594, -0.37592592592592594, -0.37592592592592594, -0.37592592592592594, -0.37592592592592594, -0.37592592592592594, -0.37592592592592594, -0.37592592592592594, -0.37592592592592594, -0.37592592592592594, -0.37592592592592594]"	"[1, 1, 1, 1, 1, 1, 1, 1, 1, 1, 1, 1, 1, 1, 1, 1, 1, 1, 0]"	"[0, 0, 0, 0, 0, 0, 0, 0, 0, 0, 0, 0, 0, 0, 0, 0, 0, 0, 0]"	"[0, 0, 0, 0, 0, 0, 0, 0, 0, 0, 0, 0, 0, 0, 0, 0, 0, 0, 1]"	"[0.07515689998399466, 0.321279100026004, 0.4964122999808751, 0.6833880000049248, 0.9167335000238381, 1.1168939999770373, 1.3000669000321068, 1.4919435000047088, 1.7167875000159256, 1.900265500007663, 2.0942670999793336, 2.283480599988252, 2.483486899989657, 2.683503100008238, 2.86681660002796, 3.066915000032168, 3.2668874000082724, 3.4587791999801993, 3.716927100031171]"	19	"[0.0726023000315763, 0.31874670000979677, 0.4938741000369191, 0.6808324999874458, 0.914180200023111, 1.1143386000185274, 1.2975085999933071, 1.4893878999864683, 1.7142296999809332, 1.8977074000285938, 2.091725700011011, 2.280921900004614, 2.480932100035716, 2.6809474999899976, 2.8642639000318013, 3.0643612000276335, 3.264328600023873, 3.456300600024406, 3.7143209000350907]"	"[0.21079500002088025, 0.41012870002305135, 0.6058880999917164, 0.7973974000196904, 1.0225862000370398, 1.2142004999914207, 1.4141386999981478, 1.6226957000326365, 1.822778899979312, 2.022988400014583, 2.1913649000343867, 2.389828799990937, 2.589867900009267, 2.7808829999994487, 2.974392900010571, 3.180961899983231, 3.364242799987551, 3.539513800002169, 3.714325100008864]"	97.94872530002613	97.95405360002769	99.44884730002377	99.43992850003997								33	03	2024-02-27_09h26.53.060	BART_exp	2023.2.3	None	2024-02-27 09h27.02.670123 +0100	
balloon.png	101	0	14	14	23	99.44884730002377													99.44037570001092	99.44884730002377	99.44884730002377	99.44884730002377	99.44884730002377	99.44884730002377	0.0001993000041693449	0.0001993000041693449	0.0001993000041693449	99.44884730002377	105.77390680002281	30	1.50	False	"[0.028703703703703703, 0.028703703703703703, 0.028703703703703703, 0.028703703703703703, 0.028703703703703703, 0.028703703703703703, 0.028703703703703703, 0.028703703703703703, 0.028703703703703703, 0.028703703703703703, 0.028703703703703703, 0.028703703703703703, 0.028703703703703703, 0.028703703703703703, 0.028703703703703703, 0.028703703703703703, 0.028703703703703703, 0.028703703703703703, 0.028703703703703703, 0.028703703703703703, 0.028703703703703703, 0.028703703703703703, 0.027777777777777776, 0.026851851851851852, 0.026851851851851852, 0.026851851851851852, 0.026851851851851852, 0.026851851851851852, 0.026851851851851852, 0.026851851851851852]"	"[-0.37777777777777777, -0.37777777777777777, -0.37777777777777777, -0.37777777777777777, -0.37777777777777777, -0.37777777777777777, -0.37777777777777777, -0.37777777777777777, -0.37777777777777777, -0.37777777777777777, -0.37777777777777777, -0.37777777777777777, -0.37777777777777777, -0.37777777777777777, -0.37777777777777777, -0.37777777777777777, -0.37777777777777777, -0.37777777777777777, -0.37777777777777777, -0.37777777777777777, -0.37777777777777777, -0.37962962962962965, -0.38055555555555554, -0.38055555555555554, -0.38055555555555554, -0.38055555555555554, -0.38055555555555554, -0.38055555555555554, -0.38055555555555554, -0.38055555555555554]"	"[1, 1, 1, 1, 1, 1, 1, 1, 1, 1, 1, 1, 1, 1, 1, 1, 1, 1, 1, 1, 1, 1, 1, 1, 1, 1, 1, 1, 1, 0]"	"[0, 0, 0, 0, 0, 0, 0, 0, 0, 0, 0, 0, 0, 0, 0, 0, 0, 0, 0, 0, 0, 0, 0, 0, 0, 0, 0, 0, 0, 0]"	"[0, 0, 0, 0, 0, 0, 0, 0, 0, 0, 0, 0, 0, 0, 0, 0, 0, 0, 0, 0, 0, 0, 0, 0, 0, 0, 0, 0, 0, 1]"	"[0.17247809999389574, 0.3559162999736145, 0.5474023999995552, 0.7641104999929667, 1.1974752999958582, 1.3726307000033557, 1.5642528000171296, 1.7726568999933079, 1.964250799966976, 2.197546000010334, 2.4390987000078894, 2.6307431000168435, 2.823010099993553, 3.0475032000103965, 3.2474938000086695, 3.4725536999758333, 3.6725624999962747, 3.8808747999719344, 4.080887999967672, 4.322665199986659, 4.514191599970218, 4.706076800008304, 4.906386399990879, 5.122894599975552, 5.347811500017997, 5.547864499967545, 5.7399418000131845, 5.941939899988938, 6.14006010000594, 6.331437500019092]"	30	"[0.16998659999808297, 0.3534302999614738, 0.5449000999797136, 0.7616083999746479, 1.1949706000159495, 1.3701330999610946, 1.561754199967254, 1.770152400014922, 1.9617519999737851, 2.195036599994637, 2.4365888999891467, 2.6282551999902353, 2.8207808000152, 3.0450117000145838, 3.2449870000127703, 3.4700653000036255, 3.67005600000266, 3.8783721000072546, 4.078388599969912, 4.320160900009796, 4.511684699973557, 4.7035771000082605, 4.903934900008608, 5.120404099987354, 5.34531279996736, 5.545370600011665, 5.737438899988774, 5.939460499968845, 6.137567600002512, 6.329047899984289]"	"[0.2945703999721445, 0.4863653999636881, 0.71128350001527, 1.027987600013148, 1.2865528999827802, 1.494702399999369, 1.6698147999704815, 1.8699055999750271, 2.0947610000148416, 2.30314490001183, 2.5365422999602742, 2.7365221999934874, 2.9199041000101715, 3.1615795000107028, 3.37823530001333, 3.6032760000089183, 3.8033265999983996, 4.003326200006995, 4.220012000005227, 4.420115199987777, 4.603363599977456, 4.820096999988891, 5.020137799961958, 5.228316099965014, 5.453549099969678, 5.661691099987365, 5.870446499960963, 6.053862700005993, 6.245096599974204, 6.32905679999385]"	105.77514019998489	105.7796260000323	107.27283959998749	107.26360629999544								33	03	2024-02-27_09h26.53.060	BART_exp	2023.2.3	None	2024-02-27 09h27.02.670123 +0100	
balloon.png	79	0	15	15	18	107.27283959998749													107.26381680002669	107.27283959998749	107.27283959998749	107.27283959998749	107.27283959998749	107.27283959998749	0.004549300007056445	0.004549300007056445	0.004549300007056445	107.27283959998749	112.77393810002832	22	1.10	False	"[0.026851851851851852, 0.026851851851851852, 0.025925925925925925, 0.025925925925925925, 0.025925925925925925, 0.025925925925925925, 0.025925925925925925, 0.025925925925925925, 0.025925925925925925, 0.025925925925925925, 0.025925925925925925, 0.025925925925925925, 0.025925925925925925, 0.025925925925925925, 0.025925925925925925, 0.012962962962962963, 0.012962962962962963, 0.012962962962962963, 0.012962962962962963, 0.012962962962962963, 0.012962962962962963, 0.012962962962962963, 0.012962962962962963]"	"[-0.3824074074074074, -0.3824074074074074, -0.3824074074074074, -0.3851851851851852, -0.3851851851851852, -0.3851851851851852, -0.3851851851851852, -0.3851851851851852, -0.3851851851851852, -0.3851851851851852, -0.3851851851851852, -0.3851851851851852, -0.3851851851851852, -0.3851851851851852, -0.3851851851851852, -0.35462962962962963, -0.35462962962962963, -0.35462962962962963, -0.35462962962962963, -0.35462962962962963, -0.35462962962962963, -0.35462962962962963, -0.35462962962962963]"	"[1, 1, 1, 1, 1, 1, 1, 1, 1, 1, 1, 1, 1, 1, 1, 1, 1, 1, 1, 1, 1, 1, 0]"	"[0, 0, 0, 0, 0, 0, 0, 0, 0, 0, 0, 0, 0, 0, 0, 0, 0, 0, 0, 0, 0, 0, 0]"	"[0, 0, 0, 0, 0, 0, 0, 0, 0, 0, 0, 0, 0, 0, 0, 0, 0, 0, 0, 0, 0, 0, 1]"	"[0.03545500000473112, 0.24986330000683665, 0.44983389996923506, 0.6416101999930106, 0.8437911999644712, 1.0832781000062823, 1.291840699966997, 1.5085273999720812, 1.6921761999838054, 1.8918493999517523, 2.1085874999989755, 2.266691399971023, 2.491772299981676, 2.683578700001817, 2.9169231999549083, 3.4667941000079736, 3.808501999999862, 4.1170991999679245, 4.375435199995991, 4.592027299979236, 4.7755068999831565, 5.017865500005428, 5.508876699954271]"	23	"[0.032308599969837815, 0.246747899975162, 0.44672549999086186, 0.6384641999611631, 0.840678000007756, 1.080125299980864, 1.2886930999811739, 1.5053846999653615, 1.689015899959486, 1.8887068000040017, 2.105448799964506, 2.2635360999847762, 2.4886156999855302, 2.6804308999562636, 2.913775299966801, 3.463641299982555, 3.805351299990434, 4.113949799968395, 4.372306199977174, 4.588870899984613, 4.772379099973477, 5.014704399975017, 5.505669299978763]"	"[0.1799773999955505, 0.3549434999586083, 0.5550600999849848, 0.7717059999704361, 0.9883596999570727, 1.1884157999884337, 1.3966528999735601, 1.6217420999892056, 1.7966724999714643, 1.9967449000105262, 2.1800169000052847, 2.4135173999820836, 2.6134023999911733, 2.846753699996043, 3.0801042999955826, 3.538498600013554, 4.030208799988031, 4.247156500001438, 4.480334599968046, 4.696932999999262, 4.930318099970464, 5.355423600005452, 5.505673600011505]"	112.77496820001397	112.78009060001932	114.27251450001495	114.26406300003873								33	03	2024-02-27_09h26.53.060	BART_exp	2023.2.3	None	2024-02-27 09h27.02.670123 +0100	
balloon.png	127	0	16	16	29	114.27251450001495													114.26427620003233	114.27251450001495	114.27251450001495	114.27251450001495	114.27251450001495	114.27251450001495	0.005301699973642826	0.005301699973642826	0.005301699973642826	114.27251450001495	119.83249320002506	27	1.35	False	"[0.032407407407407406, 0.032407407407407406, 0.032407407407407406, 0.032407407407407406, 0.032407407407407406, 0.032407407407407406, 0.032407407407407406, 0.032407407407407406, 0.032407407407407406, 0.032407407407407406, 0.032407407407407406, 0.032407407407407406, 0.032407407407407406, 0.032407407407407406, 0.032407407407407406, 0.032407407407407406, 0.032407407407407406, 0.032407407407407406, 0.032407407407407406, 0.032407407407407406, 0.032407407407407406, 0.032407407407407406, 0.032407407407407406, 0.032407407407407406, 0.032407407407407406, 0.032407407407407406, 0.032407407407407406]"	"[-0.37407407407407406, -0.37407407407407406, -0.37407407407407406, -0.37407407407407406, -0.37407407407407406, -0.37407407407407406, -0.37407407407407406, -0.37407407407407406, -0.37407407407407406, -0.37407407407407406, -0.37407407407407406, -0.37407407407407406, -0.37407407407407406, -0.37407407407407406, -0.37407407407407406, -0.37407407407407406, -0.37407407407407406, -0.37407407407407406, -0.37407407407407406, -0.37407407407407406, -0.37407407407407406, -0.37407407407407406, -0.37407407407407406, -0.37407407407407406, -0.37407407407407406, -0.37407407407407406, -0.37407407407407406]"	"[1, 1, 1, 1, 1, 1, 1, 1, 1, 1, 1, 1, 1, 1, 1, 1, 1, 1, 1, 1, 1, 1, 1, 1, 1, 1, 0]"	"[0, 0, 0, 0, 0, 0, 0, 0, 0, 0, 0, 0, 0, 0, 0, 0, 0, 0, 0, 0, 0, 0, 0, 0, 0, 0, 0]"	"[0, 0, 0, 0, 0, 0, 0, 0, 0, 0, 0, 0, 0, 0, 0, 0, 0, 0, 0, 0, 0, 0, 0, 0, 0, 0, 1]"	"[0.14233010000316426, 0.3257416000124067, 0.5093236000393517, 0.7257403000257909, 0.8924873000360094, 1.0601526999962516, 1.2752057000179775, 1.4926278000348248, 1.666931800020393, 1.8585818000137806, 2.0669746000203304, 2.250316000019666, 2.4589439000119455, 2.671153800038155, 2.864511499996297, 3.1171469000400975, 3.2939589000307024, 3.4584998000063933, 3.6673338999971747, 3.908763999992516, 4.092518100049347, 4.317204800026957, 4.492127200006507, 4.700647499994375, 4.884003400045913, 5.084009500045795, 5.567124799999874]"	26	"[0.13987459999043494, 0.32329019997268915, 0.5069069999735802, 0.7233320999657735, 0.8901080999639817, 1.057890199997928, 1.490214899997227, 1.664468799950555, 1.8561706999898888, 2.064512199955061, 2.247850899992045, 2.4564905999577604, 2.668702299997676, 2.862307899980806, 3.114690199960023, 3.291551399976015, 3.4560333999688737, 3.6648902999586426, 3.9062892999500036, 4.090095599996857, 4.3147459999891, 4.489676799974404, 4.698235599964391, 4.881553099956363, 5.081594299990684, 5.5645920999813825]"	"[0.24740789999486879, 0.43966869998257607, 0.6062309999833815, 0.8230627999873832, 0.9894916999619454, 1.3641360999899916, 1.5894255999592133, 1.7809148999513127, 1.9642439999734052, 2.1731181999784894, 2.376954499981366, 2.566876799974125, 2.7582310999860056, 2.984058299975004, 3.1729821999906562, 3.3643863999750465, 3.597808599995915, 3.78930969996145, 4.0226091999793425, 4.23115249996772, 4.431129899981897, 4.614536199951544, 4.814369499974418, 4.997942699992564, 5.222829999984242, 5.564596499956679]"	119.83375900000101	119.83886640000856	121.33129810000537	121.32289589999709								33	03	2024-02-27_09h26.53.060	BART_exp	2023.2.3	None	2024-02-27 09h27.02.670123 +0100	
balloon.png	49	0	17	17	11	121.33129810000537													121.32312890002504	121.33129810000537	121.33129810000537	121.33129810000537	121.33129810000537	121.33129810000537	0.005355099972803146	0.005355099972803146	0.005355099972803146	121.33129810000537	127.62460620002821	31	1.55	False	"[0.032407407407407406, 0.032407407407407406, 0.032407407407407406, 0.032407407407407406, 0.032407407407407406, 0.032407407407407406, 0.032407407407407406, 0.032407407407407406, 0.032407407407407406, 0.032407407407407406, 0.032407407407407406, 0.032407407407407406, 0.032407407407407406, 0.032407407407407406, 0.032407407407407406, 0.032407407407407406, 0.032407407407407406, 0.032407407407407406, 0.032407407407407406, 0.032407407407407406, 0.032407407407407406, 0.032407407407407406, 0.032407407407407406, 0.032407407407407406, 0.032407407407407406, 0.032407407407407406, 0.032407407407407406, 0.032407407407407406, 0.032407407407407406, 0.032407407407407406, 0.032407407407407406]"	"[-0.37407407407407406, -0.37407407407407406, -0.37407407407407406, -0.37407407407407406, -0.37407407407407406, -0.37407407407407406, -0.37407407407407406, -0.37407407407407406, -0.37407407407407406, -0.37407407407407406, -0.37407407407407406, -0.37407407407407406, -0.37407407407407406, -0.37407407407407406, -0.37407407407407406, -0.37407407407407406, -0.37407407407407406, -0.37407407407407406, -0.37407407407407406, -0.37407407407407406, -0.37407407407407406, -0.37407407407407406, -0.37407407407407406, -0.37407407407407406, -0.37407407407407406, -0.37407407407407406, -0.37407407407407406, -0.3731481481481482, -0.3731481481481482, -0.3731481481481482, -0.3731481481481482]"	"[1, 1, 1, 1, 1, 1, 1, 1, 1, 1, 1, 1, 1, 1, 1, 1, 1, 1, 1, 1, 1, 1, 1, 1, 1, 1, 1, 1, 1, 1, 0]"	"[0, 0, 0, 0, 0, 0, 0, 0, 0, 0, 0, 0, 0, 0, 0, 0, 0, 0, 0, 0, 0, 0, 0, 0, 0, 0, 0, 0, 0, 0, 0]"	"[0, 0, 0, 0, 0, 0, 0, 0, 0, 0, 0, 0, 0, 0, 0, 0, 0, 0, 0, 0, 0, 0, 0, 0, 0, 0, 0, 0, 0, 0, 1]"	"[0.25017579999985173, 0.46685820003040135, 0.6607332000276074, 0.8669843000243418, 1.0768937000539154, 1.2723592000547796, 1.4754031000193208, 1.7087623000261374, 1.9002060000202619, 2.102465800009668, 2.309027800045442, 2.5172225999995135, 2.7167926000547595, 2.9358628000481986, 3.150126100052148, 3.333555300021544, 3.5668332000495866, 3.741957300051581, 3.935001800011378, 4.133563400013372, 4.333596200041939, 4.550255700014532, 4.74190180003643, 4.941920000012033, 5.1252615000121295, 5.325301800039597, 5.508616400009487, 5.708631500019692, 5.89202040003147, 6.067286100005731, 6.300424100016244]"	32	"[0.021832600003108382, 0.24789240001700819, 0.4645687000011094, 0.6585692000226118, 0.8649314000504091, 1.0747386000002734, 1.2701056000078097, 1.4731292000506073, 1.706467900017742, 1.897932700056117, 2.100194000056945, 2.3067673000041395, 2.5151860000332817, 2.7145100000198, 2.9335684000398032, 3.1478310000384226, 3.331259000056889, 3.564537800033577, 3.739733900001738, 3.9328509000479244, 4.131265800038818, 4.331300100020599, 4.547951600048691, 4.739595600054599, 4.939626900013536, 5.122971800039522, 5.323007500031963, 5.506314300000668, 5.706331200024579, 5.889721400046255, 6.064995500026271, 6.298075300001074]"	"[0.11490870005218312, 0.3060240000486374, 0.5747334000188857, 0.789577100018505, 1.031026400043629, 1.1981894000200555, 1.384591400041245, 1.5897817000513896, 1.8398517000023276, 2.0166186000569724, 2.241841600043699, 2.4143569000298157, 2.62617380003212, 2.8252459000214003, 3.031161700026132, 3.2250877000042237, 3.433938500005752, 3.6396227000514045, 3.856187500001397, 4.056252000038512, 4.256325400026981, 4.422835000033956, 4.622861600015312, 4.839525500021409, 5.039610700041521, 5.214592500007711, 5.431317200011108, 5.598245900007896, 5.806525600026362, 5.981328600028064, 6.172965500038117, 6.2980795000330545]"	127.62597130000358	127.63110520003829	129.12349590001395	129.1150802000193								33	03	2024-02-27_09h26.53.060	BART_exp	2023.2.3	None	2024-02-27 09h27.02.670123 +0100	
balloon.png	57	0	18	18	13	129.12349590001395													129.11529380001593	129.12349590001395	129.12349590001395	129.12349590001395	129.12349590001395	129.12349590001395	0.005280799989122897	0.005280799989122897	0.005280799989122897	129.12349590001395	136.3671531000291	35	1.75	False	"[0.02962962962962963, 0.02962962962962963, 0.02962962962962963, 0.02962962962962963, 0.02962962962962963, 0.02962962962962963, 0.02962962962962963, 0.02962962962962963, 0.02962962962962963, 0.02962962962962963, 0.02962962962962963, 0.02962962962962963, 0.02962962962962963, 0.02962962962962963, 0.02962962962962963, 0.02962962962962963, 0.02962962962962963, 0.02962962962962963, 0.02962962962962963, 0.02962962962962963, 0.02962962962962963, 0.02962962962962963, 0.02962962962962963, 0.02962962962962963, 0.02962962962962963, 0.02962962962962963, 0.02962962962962963, 0.02962962962962963, 0.02962962962962963, 0.02962962962962963, 0.02962962962962963, 0.02962962962962963, 0.02962962962962963, 0.02962962962962963, 0.02962962962962963]"	"[-0.3731481481481482, -0.3731481481481482, -0.3731481481481482, -0.3731481481481482, -0.3731481481481482, -0.3731481481481482, -0.3731481481481482, -0.3731481481481482, -0.3731481481481482, -0.3731481481481482, -0.3731481481481482, -0.3731481481481482, -0.3731481481481482, -0.3731481481481482, -0.3731481481481482, -0.3731481481481482, -0.3731481481481482, -0.3731481481481482, -0.3731481481481482, -0.3731481481481482, -0.3731481481481482, -0.3731481481481482, -0.3731481481481482, -0.3731481481481482, -0.3731481481481482, -0.3731481481481482, -0.3731481481481482, -0.3731481481481482, -0.3731481481481482, -0.3731481481481482, -0.3731481481481482, -0.3731481481481482, -0.3731481481481482, -0.3731481481481482, -0.3731481481481482]"	"[1, 1, 1, 1, 1, 1, 1, 1, 1, 1, 1, 1, 1, 1, 1, 1, 1, 1, 1, 1, 1, 1, 1, 1, 1, 1, 1, 1, 1, 1, 1, 1, 1, 1, 0]"	"[0, 0, 0, 0, 0, 0, 0, 0, 0, 0, 0, 0, 0, 0, 0, 0, 0, 0, 0, 0, 0, 0, 0, 0, 0, 0, 0, 0, 0, 0, 0, 0, 0, 0, 0]"	"[0, 0, 0, 0, 0, 0, 0, 0, 0, 0, 0, 0, 0, 0, 0, 0, 0, 0, 0, 0, 0, 0, 0, 0, 0, 0, 0, 0, 0, 0, 0, 0, 0, 0, 1]"	"[0.19171330000972375, 0.4002149000298232, 0.5917833000421524, 0.7834156000171788, 0.9919862000388093, 1.2087561000371352, 1.4003069000318646, 1.6087569000083022, 1.8336459000129253, 2.0087711000232957, 2.242146600037813, 2.4337378999916837, 2.6670410000369884, 2.868997700046748, 3.059205199999269, 3.2835217000101693, 3.4835263999993913, 3.683562000049278, 3.892871299991384, 4.092275800008792, 4.300314399995841, 4.492288800014649, 4.683679400011897, 4.925316900014877, 5.141974200028926, 5.358664800005499, 5.57539930002531, 5.775288900011219, 6.000653300026897, 6.192291999992449, 6.408911500009708, 6.618636800034437, 6.825593699992169, 7.017337299999781, 7.250728400016669]"	35	"[0.1891693000216037, 0.3976805999991484, 0.5892248000018299, 0.7808590999920852, 0.9894583999994211, 1.2062245000270195, 1.3977748000179417, 1.6062534999800846, 1.8310989000019617, 2.00624900002731, 2.2396134000155143, 2.431196700024884, 2.6644973999937065, 2.8664534999988973, 3.056674199993722, 3.280967900005635, 3.4809820000082254, 3.6810071999789216, 3.8903879999998026, 4.089761200011708, 4.297758899978362, 4.489860799978487, 4.681135000020731, 4.9228054999839514, 5.139469699992333, 5.356161199975759, 5.57288360001985, 5.772730999975465, 5.998120600008406, 6.189752699981909, 6.406396700011101, 6.6162253000075, 6.8230367000214756, 7.0148061999934725, 7.248120000003837]"	"[0.28071989997988567, 0.48072240001056343, 0.6807705999817699, 0.8725041000288911, 1.0974361000116915, 1.3141180999809876, 1.5225530000170693, 1.7225314999814145, 1.930810299993027, 2.139238199975807, 2.364197899994906, 2.5561033000121824, 2.7642136000213213, 2.9808745000045747, 3.180860100022983, 3.3976170999812894, 3.6064372999826446, 3.797584599989932, 4.039601999975275, 4.206359500007238, 4.3976651999983005, 4.597594999999274, 4.806041300005745, 5.03936719999183, 5.264507899992168, 5.464380500023253, 5.681084499985445, 5.914457799983211, 6.114406000007875, 6.356062699982431, 6.539283799997065, 6.731161199975759, 6.922757100022864, 7.147835700016003, 7.248124299978372]"	136.36856319999788	136.37334890000056	137.86579810001422	137.85733070003334								33	03	2024-02-27_09h26.53.060	BART_exp	2023.2.3	None	2024-02-27 09h27.02.670123 +0100	
balloon.png	88	0	19	19	20	137.86579810001422													137.85754290001933	137.86579810001422	137.86579810001422	137.86579810001422	137.86579810001422	137.86579810001422	0.004919699975289404	0.004919699975289404	0.004919699975289404	137.86579810001422	145.1260970000294	34	1.70	False	"[0.02962962962962963, 0.02962962962962963, 0.02962962962962963, 0.02962962962962963, 0.02962962962962963, 0.02962962962962963, 0.02962962962962963, 0.02962962962962963, 0.02962962962962963, 0.02962962962962963, 0.02962962962962963, 0.02962962962962963, 0.02962962962962963, 0.02962962962962963, 0.02962962962962963, 0.02962962962962963, 0.02962962962962963, 0.02962962962962963, 0.02962962962962963, 0.02962962962962963, 0.02962962962962963, 0.02962962962962963, 0.02962962962962963, 0.02962962962962963, 0.02962962962962963, 0.02962962962962963, 0.02962962962962963, 0.02962962962962963, 0.02962962962962963, 0.02962962962962963, 0.02962962962962963, 0.02962962962962963, 0.02962962962962963, 0.02962962962962963]"	"[-0.3731481481481482, -0.3731481481481482, -0.3731481481481482, -0.3731481481481482, -0.3731481481481482, -0.3731481481481482, -0.3731481481481482, -0.3731481481481482, -0.3731481481481482, -0.3731481481481482, -0.3731481481481482, -0.3731481481481482, -0.3731481481481482, -0.3731481481481482, -0.3731481481481482, -0.3731481481481482, -0.3731481481481482, -0.3731481481481482, -0.3731481481481482, -0.3731481481481482, -0.3731481481481482, -0.3731481481481482, -0.3731481481481482, -0.3731481481481482, -0.3731481481481482, -0.3731481481481482, -0.3731481481481482, -0.3731481481481482, -0.3731481481481482, -0.3731481481481482, -0.3731481481481482, -0.3731481481481482, -0.3731481481481482, -0.3731481481481482]"	"[1, 1, 1, 1, 1, 1, 1, 1, 1, 1, 1, 1, 1, 1, 1, 1, 1, 1, 1, 1, 1, 1, 1, 1, 1, 1, 1, 1, 1, 1, 1, 1, 1, 0]"	"[0, 0, 0, 0, 0, 0, 0, 0, 0, 0, 0, 0, 0, 0, 0, 0, 0, 0, 0, 0, 0, 0, 0, 0, 0, 0, 0, 0, 0, 0, 0, 0, 0, 0]"	"[0, 0, 0, 0, 0, 0, 0, 0, 0, 0, 0, 0, 0, 0, 0, 0, 0, 0, 0, 0, 0, 0, 0, 0, 0, 0, 0, 0, 0, 0, 0, 0, 0, 1]"	"[0.21668499999213964, 0.4417185000493191, 0.625337400007993, 0.8251380000147037, 1.1502746000187472, 1.3585941000492312, 1.6001012999913655, 1.8334672000491992, 2.0002527000033297, 2.216791800048668, 2.4337001999956556, 2.6630181000218727, 2.904556500026956, 3.0757508000242524, 3.283715800032951, 3.4837251999997534, 3.686257300025318, 3.9260034000035375, 4.142334800038952, 4.342317800037563, 4.53366770001594, 4.716939200006891, 4.925865400000475, 5.150366100016981, 5.350351400033105, 5.550382400047965, 5.74208490003366, 5.992052800022066, 6.1838603999931365, 6.400459900032729, 6.6173298000358045, 6.842304799996782, 7.067429699993227, 7.267400000011548]"	34	"[0.21414620004361495, 0.43920110003091395, 0.6228239000192843, 0.8226055000559427, 1.1477525000227615, 1.3560614000307396, 1.5975725000025705, 1.8309325000154786, 1.9977144000004046, 2.2142732000211254, 2.431179700011853, 2.6605204000370577, 2.902023200003896, 3.073218800011091, 3.281193600036204, 3.481194799998775, 3.683713400037959, 3.923544400022365, 4.139841000025626, 4.339829900010955, 4.531132900039665, 4.714399000047706, 4.9235022000502795, 5.14783150004223, 5.347813900036272, 5.547842800035141, 5.739619100000709, 5.9895297000184655, 6.181329400045797, 6.39792529999977, 6.614810700004455, 6.8397801000392064, 7.064924100006465, 7.264810500026215]"	"[0.3224288000492379, 0.5474157000426203, 0.747460900049191, 0.989170600019861, 1.2807814000407234, 1.4725430000107735, 1.7061633000266738, 1.914128000033088, 2.172628900036216, 2.3726668000454083, 2.5561060000327416, 2.7687604000093415, 3.0104567000526004, 3.1896217000321485, 3.3897546000080183, 3.5975815000128932, 3.8065274000400677, 3.989776200032793, 4.222940900013782, 4.4309612000361085, 4.631030300050043, 4.8309887000359595, 5.022568300017156, 5.256275700055994, 5.447689900000114, 5.664445100002922, 5.889350900019053, 6.131156800023746, 6.306083000032231, 6.506072500022128, 6.714554300007876, 6.981242300011218, 7.17289140005596, 7.264814599999227]"	145.12746550003067	145.13231820001965	146.62458589999005	146.6162900000345								33	03	2024-02-27_09h26.53.060	BART_exp	2023.2.3	None	2024-02-27 09h27.02.670123 +0100	
balloon.png	66	0	20	20	15	146.62458589999005													146.6165129999863	146.62458589999005	146.62458589999005	146.62458589999005	146.62458589999005	146.62458589999005	0.004945699998643249	0.004945699998643249	0.004945699998643249	146.62458589999005	151.34362599998713	22	1.10	False	"[0.02962962962962963, 0.02962962962962963, 0.02962962962962963, 0.02962962962962963, 0.02962962962962963, 0.02962962962962963, 0.02962962962962963, 0.02962962962962963, 0.02962962962962963, 0.02962962962962963, 0.02962962962962963, 0.02962962962962963, 0.02962962962962963, 0.02962962962962963, 0.02962962962962963, 0.02962962962962963, 0.02962962962962963, 0.02962962962962963, 0.02962962962962963, 0.02962962962962963, 0.02962962962962963, 0.02962962962962963, 0.02962962962962963]"	"[-0.3731481481481482, -0.3731481481481482, -0.3731481481481482, -0.3731481481481482, -0.3731481481481482, -0.3731481481481482, -0.3731481481481482, -0.3731481481481482, -0.3731481481481482, -0.3731481481481482, -0.3731481481481482, -0.3731481481481482, -0.3731481481481482, -0.3731481481481482, -0.3731481481481482, -0.3731481481481482, -0.3731481481481482, -0.3731481481481482, -0.3731481481481482, -0.3731481481481482, -0.3731481481481482, -0.3731481481481482, -0.3731481481481482]"	"[1, 1, 1, 1, 1, 1, 1, 1, 1, 1, 1, 1, 1, 1, 1, 1, 1, 1, 1, 1, 1, 1, 1]"	"[0, 0, 0, 0, 0, 0, 0, 0, 0, 0, 0, 0, 0, 0, 0, 0, 0, 0, 0, 0, 0, 0, 0]"	"[0, 0, 0, 0, 0, 0, 0, 0, 0, 0, 0, 0, 0, 0, 0, 0, 0, 0, 0, 0, 0, 0, 1]"	"[0.17494530003750697, 0.3832974000251852, 0.600105200021062, 1.0500743000302464, 1.2501863000215963, 1.416729300050065, 1.6167477000271901, 1.8001235999981873, 1.9853897000430152, 2.2085711000254378, 2.4253212000476196, 2.6501405000453815, 2.8001792000140995, 2.9835130000137724, 3.1921258000074886, 3.400141500052996, 3.583502600027714, 3.8002454000525177, 3.9925698000006378, 4.250411200046074, 4.450225800042972, 4.650429700035602, 4.725847500027157]"	21	"[0.1723453999729827, 0.380694699997548, 0.5975021999911405, 1.0474775999900885, 1.2475816999794915, 1.414137199986726, 1.6141759000020102, 1.7975288999732584, 1.9827832999872044, 2.2059683999978006, 2.422720299975481, 2.6475424999953248, 2.797573800024111, 2.9809066000161693, 3.1895260000019334, 3.3975395999732427, 3.5808997999993153, 3.7976445999811403, 3.990015299990773, 4.247812899993733, 4.6478294000262395]"	"[0.2806251000147313, 0.46397240000078455, 0.9057324000168592, 1.1557187999715097, 1.355776500015054, 1.5391332000144757, 1.722482500015758, 1.9140616999939084, 2.130730399978347, 2.3473739000037313, 2.539263300015591, 2.7141044000163674, 2.9393504000036046, 3.1227230000076815, 3.3061340000131167, 3.514147099980619, 3.7063377000158653, 3.9141202999744564, 4.1730149000068195, 4.573095200001262, 4.723220699990634]"	151.34467560000485	151.34934740001336	152.8496314000222	152.83330300002126								33	03	2024-02-27_09h26.53.060	BART_exp	2023.2.3	None	2024-02-27 09h27.02.670123 +0100	
balloon.png	84	0	21	21	19	152.8496314000222													152.83352400001604	152.8496314000222	152.8496314000222	152.8496314000222	152.8496314000222	152.8496314000222	0.0050469000125303864	0.0050469000125303864	0.0050469000125303864	152.8496314000222	155.3018580999924	12	0.60	False	"[0.02962962962962963, 0.02962962962962963, 0.02962962962962963, 0.02962962962962963, 0.02962962962962963, 0.02962962962962963, 0.02962962962962963, 0.02962962962962963, 0.02962962962962963, 0.02962962962962963, 0.02962962962962963, 0.02962962962962963, 0.02962962962962963]"	"[-0.3731481481481482, -0.3731481481481482, -0.3731481481481482, -0.3731481481481482, -0.3731481481481482, -0.3731481481481482, -0.3731481481481482, -0.3731481481481482, -0.3731481481481482, -0.3731481481481482, -0.3731481481481482, -0.3731481481481482, -0.3731481481481482]"	"[1, 1, 1, 1, 1, 1, 1, 1, 1, 1, 1, 1, 0]"	"[0, 0, 0, 0, 0, 0, 0, 0, 0, 0, 0, 0, 0]"	"[0, 0, 0, 0, 0, 0, 0, 0, 0, 0, 0, 0, 1]"	"[0.029568700003437698, 0.2503104000352323, 0.4584980999934487, 0.6585145000135526, 0.8503402000060305, 1.0418667000485584, 1.27533560001757, 1.4752968000248075, 1.6504369000322185, 1.8679862000280991, 2.1004819000372663, 2.300500400015153, 2.4671755000017583]"	13	"[0.027236900001298636, 0.248014000011608, 0.4561837000073865, 0.6561951999901794, 0.8480358999804594, 1.0395431999932043, 1.273017700004857, 1.4729772999999113, 1.648141800018493, 1.8658161999774165, 2.098171400022693, 2.2981919000158086, 2.464801999973133]"	"[0.18101100000785664, 0.34761880000587553, 0.5476593999774195, 0.7725977000081912, 0.9392836000188254, 1.1392409999971278, 1.3810657999711111, 1.589343799976632, 1.8059689999790862, 1.9893575999885798, 2.2312294999719597, 2.3978788999957033, 2.4648063000058755]"	155.30271620000713	155.30796539998846	156.8004480000236	156.79192899999907								33	03	2024-02-27_09h26.53.060	BART_exp	2023.2.3	None	2024-02-27 09h27.02.670123 +0100	
balloon.png	118	0	22	22	27	156.8004480000236													156.79213990003336	156.8004480000236	156.8004480000236	156.8004480000236	156.8004480000236	156.8004480000236	0.005375700013246387	0.005375700013246387	0.005375700013246387	156.8004480000236	158.46004219999304	8	0.40	False	"[0.02962962962962963, 0.02962962962962963, 0.02962962962962963, 0.02962962962962963, 0.02962962962962963, 0.02962962962962963, 0.02962962962962963, 0.02962962962962963]"	"[-0.3731481481481482, -0.3731481481481482, -0.3731481481481482, -0.3731481481481482, -0.3731481481481482, -0.3731481481481482, -0.3731481481481482, -0.3731481481481482]"	"[1, 1, 1, 1, 1, 1, 1, 0]"	"[0, 0, 0, 0, 0, 0, 0, 0]"	"[0, 0, 0, 0, 0, 0, 0, 1]"	"[0.1834265999495983, 0.4751848999876529, 0.6837287999805994, 0.9420626999926753, 1.1255222999607213, 1.2920926999649964, 1.4670314999530092, 1.6668514999910258]"	8	"[0.18076110002584755, 0.4725295000243932, 0.6810977000277489, 0.9394150000298396, 1.1228818999952637, 1.2894459000090137, 1.4643919999944046, 1.6641244000056759]"	"[0.37243290001060814, 0.5557605000212789, 0.8140521000023, 1.0308584000449628, 1.222453000023961, 1.4058913000044413, 1.5807457999908365, 1.6641286000376567]"	158.46078369999304	158.46662469999865	159.95936740003526	159.95104489999358								33	03	2024-02-27_09h26.53.060	BART_exp	2023.2.3	None	2024-02-27 09h27.02.670123 +0100	
balloon.png	10	0	23	23	2	159.95936740003526													159.9514309000224	159.95936740003526	159.95936740003526	159.95936740003526	159.95936740003526	159.95936740003526	0.005843600025400519	0.005843600025400519	0.005843600025400519	159.95936740003526	162.2776321999845	11	0.50	True	"[0.02962962962962963, 0.02962962962962963, 0.02962962962962963, 0.02962962962962963, 0.02962962962962963, 0.02962962962962963, 0.02962962962962963, 0.02962962962962963, 0.02962962962962963, 0.02962962962962963, 0.02962962962962963]"	"[-0.3731481481481482, -0.3731481481481482, -0.3731481481481482, -0.3731481481481482, -0.3731481481481482, -0.37407407407407406, -0.37407407407407406, -0.37407407407407406, -0.37407407407407406, -0.37407407407407406, -0.37407407407407406]"	"[1, 1, 1, 1, 1, 1, 1, 1, 1, 1, 1]"	"[0, 0, 0, 0, 0, 0, 0, 0, 0, 0, 0]"	"[0, 0, 0, 0, 0, 0, 0, 0, 0, 0, 0]"	"[0.11682280001696199, 0.31669430003967136, 0.5167506000143476, 0.7411782999988645, 0.9329834000091068, 1.1244461000314914, 1.349625000031665, 1.5412015999900177, 1.7494853000389412, 1.966160400013905, 2.182961200014688]"	11	"[0.11431820003781468, 0.3141812999965623, 0.514231400040444, 0.7386632999987341, 0.9306330000399612, 1.1218825000105426, 1.3471769000170752, 1.53863339999225, 1.7469590000109747, 1.9636213000048883, 2.1806578999967314]"	"[0.2548367999843322, 0.48030940000899136, 0.6633890999946743, 0.863388900004793, 1.0548934999969788, 1.2382369000115432, 1.4632883000303991, 1.6716312000062317, 1.8799420000286773, 2.0799351999885403, 2.3134837000397965]"	162.2787313000299	162.28345709998393	163.77566270000534	163.76738630002365								33	03	2024-02-27_09h26.53.060	BART_exp	2023.2.3	None	2024-02-27 09h27.02.670123 +0100	
balloon.png	44	0	24	24	10	163.77566270000534													163.76760080002714	163.77566270000534	163.77566270000534	163.77566270000534	163.77566270000534	163.77566270000534	0.004816200002096593			163.77566270000534	166.84433360002004	15	0.75	False	"[0.02962962962962963, 0.02962962962962963, 0.02962962962962963, 0.02962962962962963, 0.02962962962962963, 0.02962962962962963, 0.02962962962962963, 0.02962962962962963, 0.02962962962962963, 0.02962962962962963, 0.02962962962962963, 0.02962962962962963, 0.02962962962962963, 0.02962962962962963, 0.02962962962962963, 0.02962962962962963]"	"[-0.37407407407407406, -0.37407407407407406, -0.37407407407407406, -0.37407407407407406, -0.37407407407407406, -0.37407407407407406, -0.37407407407407406, -0.37407407407407406, -0.37407407407407406, -0.37407407407407406, -0.37407407407407406, -0.37407407407407406, -0.37407407407407406, -0.37407407407407406, -0.37407407407407406, -0.37407407407407406]"	"[1, 1, 1, 1, 1, 1, 1, 1, 1, 1, 1, 1, 1, 1, 1, 0]"	"[0, 0, 0, 0, 0, 0, 0, 0, 0, 0, 0, 0, 0, 0, 0, 0]"	"[0, 0, 0, 0, 0, 0, 0, 0, 0, 0, 0, 0, 0, 0, 0, 1]"	"[0.07520870002917945, 0.2833572000381537, 0.46677009999984875, 0.6501118000014685, 0.8418290000408888, 1.0252015000442043, 1.2168041000259109, 1.416798899997957, 1.5923203999991529, 1.8086509000277147, 2.000168400001712, 2.208655800030101, 2.4002077000332065, 2.633698399993591, 2.8587242999929003, 3.075569100037683]"	16	"[0.07267870003124699, 0.28083290002541617, 0.464248200005386, 0.6475827000103891, 0.8393006999976933, 1.022675000014715, 1.2142775999964215, 1.4142857000115328, 1.5897867000312544, 1.8061241999967024, 1.9976403000182472, 2.206127399986144, 2.3976792999892496, 2.6311735000344925, 2.8561965000117198, 3.0729908000212163]"	"[0.20589039998594671, 0.3726100000203587, 0.5733100000070408, 0.7558499000151642, 0.9392038999940269, 1.1307993999798782, 1.3141658999957144, 1.5059691999922507, 1.6808668000157923, 1.8975246000336483, 2.080907900002785, 2.314238300023135, 2.5143661000183783, 2.739572799997404, 2.9894582999986596, 3.072994899994228]"	166.84532560000662	166.8504205000354	168.343016800005	168.33438160002697								33	03	2024-02-27_09h26.53.060	BART_exp	2023.2.3	None	2024-02-27 09h27.02.670123 +0100	
balloon.png	97	0	25	25	22	168.343016800005													168.33459799998673	168.343016800005	168.343016800005	168.343016800005	168.343016800005	168.343016800005	0.005272599984891713	0.005272599984891713	0.005272599984891713	168.343016800005	169.58576980000362	6	0.30	False	"[0.028703703703703703, 0.028703703703703703, 0.028703703703703703, 0.028703703703703703, 0.028703703703703703, 0.028703703703703703]"	"[-0.37407407407407406, -0.37407407407407406, -0.37407407407407406, -0.37407407407407406, -0.37407407407407406, -0.37407407407407406]"	"[1, 1, 1, 1, 1, 0]"	"[0, 0, 0, 0, 0, 0]"	"[0, 0, 0, 0, 0, 1]"	"[0.19236050004838035, 0.38336530001834035, 0.5668635000474751, 0.7589615000179037, 0.9669116000295617, 1.2500923000043258]"	6	"[0.18989280000096187, 0.3808470999938436, 0.5643446000176482, 0.7564935000264086, 0.9643884000252001, 1.2475099000148475]"	"[0.2974133000243455, 0.4982960000052117, 0.6561128000030294, 0.8393470000009984, 1.0807635000091977, 1.247514000046067]"	169.5864586000098	169.5923394000274	171.08537570002954	171.07624810002744								33	03	2024-02-27_09h26.53.060	BART_exp	2023.2.3	None	2024-02-27 09h27.02.670123 +0100	
balloon.png	5	0	26	26	1	171.08537570002954													171.07646519999253	171.08537570002954	171.08537570002954	171.08537570002954	171.08537570002954	171.08537570002954	0.005994000006467104	0.005994000006467104	0.005994000006467104	171.08537570002954	172.16129449999426	6	0.25	True	"[0.028703703703703703, 0.028703703703703703, 0.028703703703703703, 0.028703703703703703, 0.028703703703703703]"	"[-0.37407407407407406, -0.375, -0.375, -0.375, -0.375]"	"[1, 1, 1, 1, 1]"	"[0, 0, 0, 0, 0]"	"[0, 0, 0, 0, 0]"	"[0.19213959999615327, 0.4168354999856092, 0.618160700018052, 0.8002381999976933, 0.9606088000000454]"	6	"[0.01783239998621866, 0.18893619999289513, 0.41359980002744123, 0.6152786000166088, 0.7969946000375785, 0.9573817999917082]"	"[0.09669159998884425, 0.2908760000136681, 0.4966029000352137, 0.6966236000298522, 0.8799984999932349, 1.0717641999945045]"	172.16235150001012	172.16745220002485	173.65931660000933	173.65142459998606								33	03	2024-02-27_09h26.53.060	BART_exp	2023.2.3	None	2024-02-27 09h27.02.670123 +0100	
balloon.png	18	0	27	27	4	173.65931660000933													173.65163790003862	173.65931660000933	173.65931660000933	173.65931660000933	173.65931660000933	173.65931660000933	0.0052158000180497766			173.65931660000933	177.003407399985	15	0.75	False	"[0.028703703703703703, 0.028703703703703703, 0.024074074074074074, 0.024074074074074074, 0.024074074074074074, 0.023148148148148147, 0.023148148148148147, 0.023148148148148147, 0.023148148148148147, 0.023148148148148147, 0.023148148148148147, 0.023148148148148147, 0.024074074074074074, 0.024074074074074074, 0.024074074074074074, 0.024074074074074074]"	"[-0.375, -0.375, -0.37592592592592594, -0.37592592592592594, -0.37592592592592594, -0.37592592592592594, -0.37592592592592594, -0.37592592592592594, -0.37592592592592594, -0.37592592592592594, -0.37592592592592594, -0.37592592592592594, -0.37592592592592594, -0.37592592592592594, -0.3768518518518518, -0.3768518518518518]"	"[1, 1, 1, 1, 1, 1, 1, 1, 1, 1, 1, 1, 1, 1, 1, 0]"	"[0, 0, 0, 0, 0, 0, 0, 0, 0, 0, 0, 0, 0, 0, 0, 0]"	"[0, 0, 0, 0, 0, 0, 0, 0, 0, 0, 0, 0, 0, 0, 0, 1]"	"[0.37509719998342916, 0.5501213999814354, 0.7417760999524035, 0.9334932999918237, 1.1168378999573179, 1.3084779999917373, 1.4750980999669991, 1.683745699992869, 1.891777299984824, 2.1085318999830633, 2.291815099946689, 2.5251830999623053, 2.7252358999685384, 2.941930399974808, 3.133913300000131, 3.3506622999557294]"	16	"[0.3727373000001535, 0.5477824000408873, 0.7394108999869786, 0.9311335000093095, 1.11447179998504, 1.306118400010746, 1.472746699990239, 1.6814116000314243, 1.8894181000068784, 2.1061639999970794, 2.289465799985919, 2.522819800011348, 2.7228793000103906, 2.939579900004901, 3.131549100042321, 3.3482451000018045]"	"[0.45593039999948815, 0.647749499999918, 0.8310134999919683, 1.022716700041201, 1.2166828000335954, 1.439283300016541, 1.5811044999863952, 1.7645123000256717, 1.9726743000210263, 2.1811904000351205, 2.3893959000124596, 2.6393945000017993, 2.839395600021817, 3.048030700010713, 3.2394144000136293, 3.348249400034547]"	177.004390600021	177.00945840001805	178.5013327000197	178.49342489999253								33	03	2024-02-27_09h26.53.060	BART_exp	2023.2.3	None	2024-02-27 09h27.02.670123 +0100	
balloon.png	40	0	28	28	9	178.5013327000197													178.4936338000116	178.5013327000197	178.5013327000197	178.5013327000197	178.5013327000197	178.5013327000197	0.005230300012044609	0.005230300012044609	0.005230300012044609	178.5013327000197	181.51167259999784	14	0.70	False	"[0.021296296296296296, 0.019444444444444445, 0.019444444444444445, 0.023148148148148147, 0.026851851851851852, 0.026851851851851852, 0.026851851851851852, 0.026851851851851852, 0.026851851851851852, 0.026851851851851852, 0.026851851851851852, 0.026851851851851852, 0.025925925925925925, 0.026851851851851852, 0.026851851851851852]"	"[-0.3814814814814815, -0.3851851851851852, -0.3851851851851852, -0.3814814814814815, -0.3787037037037037, -0.3787037037037037, -0.3787037037037037, -0.3787037037037037, -0.3787037037037037, -0.3787037037037037, -0.37962962962962965, -0.38055555555555554, -0.38055555555555554, -0.37962962962962965, -0.37962962962962965]"	"[1, 1, 1, 1, 1, 1, 1, 1, 1, 1, 1, 1, 1, 1, 0]"	"[0, 0, 0, 0, 0, 0, 0, 0, 0, 0, 0, 0, 0, 0, 0]"	"[0, 0, 0, 0, 0, 0, 0, 0, 0, 0, 0, 0, 0, 0, 1]"	"[0.08334670000476763, 0.35025319998385385, 0.558701400004793, 0.7251526999752969, 0.9586225000093691, 1.1337163000134751, 1.3168382999720052, 1.4917156000155956, 1.6917650999967009, 1.908404599991627, 2.108481200004462, 2.2918044999823906, 2.4751593999681063, 2.7003061000141315, 3.0169643000117503]"	15	"[0.08106520003639162, 0.3479419000213966, 0.5564694000058807, 0.7228742000297643, 0.9563468000269495, 1.131402800034266, 1.3145078000379726, 1.4894014000310563, 1.6894401000463404, 1.9060730000492185, 2.106147200043779, 2.2894659000448883, 2.4728222000412643, 2.697984800033737, 3.0145683000446297]"	"[0.26426820002961904, 0.43931919999886304, 0.6143174000317231, 0.8143098000437021, 1.0059346000198275, 1.205930800002534, 1.3726190000306815, 1.5726490000379272, 1.764638799999375, 1.997759300051257, 2.17266219999874, 2.372791200003121, 2.572722500015516, 2.747834400041029, 3.0145724000176415]"	181.51257289998466	181.51809620001586	183.01104599999962	183.00220779998926								33	03	2024-02-27_09h26.53.060	BART_exp	2023.2.3	None	2024-02-27 09h27.02.670123 +0100	
balloon.png	75	0	29	29	17	183.01104599999962													183.00242820003768	183.01104599999962	183.01104599999962	183.01104599999962	183.01104599999962	183.01104599999962	0.005723799986299127	0.005723799986299127	0.005723799986299127	183.01104599999962	184.47040470002685	6	0.30	False	"[0.022222222222222223, 0.020370370370370372, 0.019444444444444445, 0.019444444444444445, 0.019444444444444445, 0.019444444444444445]"	"[-0.39351851851851855, -0.39351851851851855, -0.39351851851851855, -0.39351851851851855, -0.39351851851851855, -0.39351851851851855]"	"[1, 1, 1, 1, 1, 0]"	"[0, 0, 0, 0, 0, 0]"	"[0, 0, 0, 0, 0, 1]"	"[0.4500832000048831, 0.6251862999633886, 0.8419018000131473, 1.0085492999642156, 1.208379799965769, 1.4668288999819197]"	6	"[0.44740900001488626, 0.6225234000012279, 0.839240700006485, 1.0058899000287056, 1.2056984000373632, 1.464088000007905]"	"[0.5222371999989264, 0.7137836000183597, 0.8972048000432551, 1.1138119000243023, 1.3056158000254072, 1.4640921000391245]"	184.47118300001603	184.47668660001364	185.96860389999347	185.96095099998638								33	03	2024-02-27_09h26.53.060	BART_exp	2023.2.3	None	2024-02-27 09h27.02.670123 +0100	
																																														185.96099360001972	185.96860389999347	185.96860389999347	199.0534190000035	space	13.082305699994322	None	33	03	2024-02-27_09h26.53.060	BART_exp	2023.2.3	None	2024-02-27 09h27.02.670123 +0100	
