"image"	"max_pumps"	"pump_loop.thisRepN"	"pump_loop.thisTrialN"	"pump_loop.thisN"	"pump_loop.thisIndex"	"thisRow.t"	"notes"	"Start.started"	"text_start.started"	"continue_start.started"	"mouse_start.started"	"Start.stopped"	"mouse_start.x"	"mouse_start.y"	"mouse_start.leftButton"	"mouse_start.midButton"	"mouse_start.rightButton"	"mouse_start.time"	"trials.started"	"stim_balloon.started"	"stim_balloon_burst.started"	"stim_balloon_burst.stopped"	"text_ballon_value.started"	"text_bank.started"	"mouse.started"	"sound_bang.started"	"sound_bang.stopped"	"button_balloon.started"	"trials.stopped"	"n_pumps"	"earnings"	"popped"	"mouse.x"	"mouse.y"	"mouse.leftButton"	"mouse.midButton"	"mouse.rightButton"	"mouse.time"	"button_balloon.numClicks"	"button_balloon.timesOn"	"button_balloon.timesOff"	"Feedback.started"	"text_feedback.started"	"text_feedback.stopped"	"Feedback.stopped"	"End.started"	"text_end.started"	"key_end.started"	"End.stopped"	"key_end.keys"	"key_end.rt"	"key_end.duration"	"participant"	"session"	"date"	"expName"	"psychopyVersion"	"frameRate"	"expStart"	"...61"
NA	NA	NA	NA	NA	NA	NA	NA	0.00118459999976039	0.00546820000090519	0.00546820000090519	0.00145990000055462	24.0464380000012	"[0.7157407407407408]"	"[-0.40370370370370373]"	"[1]"	"[0]"	"[0]"	"[24.044304299999567]"	NA	NA	NA	NA	NA	NA	NA	NA	NA	NA	NA	NA	NA	NA	NA	NA	NA	NA	NA	NA	NA	NA	NA	NA	NA	NA	NA	NA	NA	NA	NA	NA	NA	NA	31	"01"	"2024-02-21_11h05.29.558"	"BART_exp"	"2023.2.3"	122.439484284005	"2024-02-21 11h05.49.137243 +0100"	NA
"balloon.png"	10	0	0	0	2	24.1139920000005	NA	NA	NA	NA	NA	NA	NA	NA	NA	NA	NA	NA	24.0581198	24.1139920000005	24.1139920000005	24.1139920000005	24.1139920000005	24.1139920000005	0.0132469000000128	0.0132469000000128	0.0132469000000128	24.1139920000005	28.0728182000003	11	0.5	TRUE	"[0.023148148148148147, 0.023148148148148147, 0.023148148148148147, 0.023148148148148147, 0.023148148148148147, 0.023148148148148147, 0.023148148148148147, 0.023148148148148147, 0.023148148148148147, 0.023148148148148147, 0.023148148148148147]"	"[-0.3962962962962963, -0.3962962962962963, -0.3962962962962963, -0.3962962962962963, -0.3962962962962963, -0.3962962962962963, -0.3962962962962963, -0.3962962962962963, -0.3962962962962963, -0.3962962962962963, -0.3962962962962963]"	"[1, 1, 1, 1, 1, 1, 1, 1, 1, 1, 1]"	"[0, 0, 0, 0, 0, 0, 0, 0, 0, 0, 0]"	"[0, 0, 0, 0, 0, 0, 0, 0, 0, 0, 0]"	"[1.580263299998478, 1.8635355999995227, 2.1302430999985518, 2.346996799999033, 2.5469760999985738, 2.7384790999985853, 2.9634626999995817, 3.180615100000068, 3.388511399998606, 3.6738397999997687, 3.9050683999994362]"	11	"[1.5303519999997661, 1.8136276999994152, 2.080348800000138, 2.297087199998714, 2.4970908999985113, 2.6885521999993216, 2.913536000000022, 3.130698199998733, 3.338583099999596, 3.6239124999992782, 3.8551385999999184]"	"[1.6633640999989439, 1.9467676999993273, 2.1975633000001835, 2.413418999998612, 2.6216102999987925, 2.813521000000037, 3.0302912999995897, 3.247047899998506, 3.4637411999992764, 3.7305343999996694, 3.957254399998419]"	28.0741383000004	28.0820111000012	29.5833667000006	29.5734969000005	NA	NA	NA	NA	NA	NA	NA	31	"01"	"2024-02-21_11h05.29.558"	"BART_exp"	"2023.2.3"	122.439484284005	"2024-02-21 11h05.49.137243 +0100"	NA
"balloon.png"	118	0	1	1	27	29.5833667000006	NA	NA	NA	NA	NA	NA	NA	NA	NA	NA	NA	NA	29.5738627999999	29.5833667000006	29.5833667000006	29.5833667000006	29.5833667000006	29.5833667000006	0.00140030000147817	0.00140030000147817	0.00140030000147817	29.5833667000006	33.189803700001	12	0.6	FALSE	"[0.023148148148148147, 0.023148148148148147, 0.023148148148148147, 0.023148148148148147, 0.023148148148148147, 0.023148148148148147, 0.023148148148148147, 0.023148148148148147, 0.023148148148148147, 0.023148148148148147, 0.023148148148148147, 0.023148148148148147, 0.023148148148148147]"	"[-0.3962962962962963, -0.3962962962962963, -0.3962962962962963, -0.3962962962962963, -0.3962962962962963, -0.3962962962962963, -0.3962962962962963, -0.3962962962962963, -0.3962962962962963, -0.3962962962962963, -0.3962962962962963, -0.3962962962962963, -0.3962962962962963]"	"[1, 1, 1, 1, 1, 1, 1, 1, 1, 1, 1, 1, 0]"	"[0, 0, 0, 0, 0, 0, 0, 0, 0, 0, 0, 0, 0]"	"[0, 0, 0, 0, 0, 0, 0, 0, 0, 0, 0, 0, 1]"	"[0.5809578999997029, 0.8062078000002657, 1.056241799999043, 1.2561187999999675, 1.4396300999997038, 1.6478585999993811, 1.8564129000005778, 2.0896499999998923, 2.322884699999122, 2.5228353000002244, 2.7143593999990117, 2.9060774999998102, 3.6147204999997484]"	13	"[0.5767980999989959, 0.8020425999984582, 1.052057099999729, 1.2519415999995545, 1.4354803999995056, 1.6436715999989246, 1.852257999998983, 2.0854721999985486, 2.3187000999987504, 2.5186406999982864, 2.7101677999999083, 2.901900899998509, 3.610472699998354]"	"[0.6599713999985397, 0.9266239999997197, 1.1600105999987136, 1.359937399998671, 1.5517591999996512, 1.7600170999994589, 1.9684613999997964, 2.2185215999998036, 2.426697899998544, 2.618518099998255, 2.826744999998482, 3.0351572999989003, 3.610477799998989]"	33.190734400001	33.1992270999999	34.7032810000001	34.6884255000004	NA	NA	NA	NA	NA	NA	NA	31	"01"	"2024-02-21_11h05.29.558"	"BART_exp"	"2023.2.3"	122.439484284005	"2024-02-21 11h05.49.137243 +0100"	NA
"balloon.png"	23	0	2	2	5	34.7032810000001	NA	NA	NA	NA	NA	NA	NA	NA	NA	NA	NA	NA	34.6886401000011	34.7032810000001	34.7032810000001	34.7032810000001	34.7032810000001	34.7032810000001	-0.00066700000024866	-0.00066700000024866	-0.00066700000024866	34.7032810000001	40.1482574000001	14	0.7	FALSE	"[0.023148148148148147, 0.023148148148148147, 0.023148148148148147, 0.023148148148148147, 0.023148148148148147, 0.023148148148148147, 0.023148148148148147, 0.023148148148148147, 0.023148148148148147, 0.023148148148148147, 0.023148148148148147, 0.023148148148148147, 0.023148148148148147, 0.023148148148148147, 0.023148148148148147]"	"[-0.3962962962962963, -0.3962962962962963, -0.3962962962962963, -0.3962962962962963, -0.3962962962962963, -0.3962962962962963, -0.3962962962962963, -0.3962962962962963, -0.3962962962962963, -0.3962962962962963, -0.3962962962962963, -0.3962962962962963, -0.3962962962962963, -0.3962962962962963, -0.3962962962962963]"	"[1, 1, 1, 1, 1, 1, 1, 1, 1, 1, 1, 1, 1, 1, 0]"	"[0, 0, 0, 0, 0, 0, 0, 0, 0, 0, 0, 0, 0, 0, 0]"	"[0, 0, 0, 0, 0, 0, 0, 0, 0, 0, 0, 0, 0, 0, 1]"	"[0.6333513999998104, 1.0084834999997838, 1.3254792999996425, 1.550206399999297, 1.7423742999999376, 1.9169423999992432, 2.116888000000472, 2.6500851000000694, 2.841924899999867, 3.025353200000609, 3.8251811000009184, 3.9918455999995786, 4.1504234000003635, 4.883861000000252, 5.458568699999887]"	15	"[0.6239906999999221, 0.999120700000276, 1.316118099999585, 1.5408358000004228, 1.7330177999992884, 1.907581699999355, 2.1075079000002006, 2.640709199999037, 2.832583800000066, 3.016023899999709, 3.815840400000525, 3.98248969999986, 4.1410477999997966, 4.874495500000194, 5.449124799999481]"	"[0.7572206000004371, 1.1072021999989374, 1.4158711999989464, 1.6072423000005074, 1.8160671000005095, 2.0159454999993613, 2.216225799998938, 2.7239564999999857, 2.8991609000004246, 3.0995297999998, 3.874053300000014, 4.063111800000115, 4.25746959999924, 4.990889900000184, 5.449129599999651]"	40.1492205000013	40.1555793000007	41.6467234000011	41.6388739000013	NA	NA	NA	NA	NA	NA	NA	31	"01"	"2024-02-21_11h05.29.558"	"BART_exp"	"2023.2.3"	122.439484284005	"2024-02-21 11h05.49.137243 +0100"	NA
"balloon.png"	97	0	3	3	22	41.6467234000011	NA	NA	NA	NA	NA	NA	NA	NA	NA	NA	NA	NA	41.6391081000002	41.6467234000011	41.6467234000011	41.6467234000011	41.6467234000011	41.6467234000011	0.00580899999840767	0.00580899999840767	0.00580899999840767	41.6467234000011	49.3574855999996	31	1.55	FALSE	"[0.023148148148148147, 0.023148148148148147, 0.023148148148148147, 0.023148148148148147, 0.023148148148148147, 0.023148148148148147, 0.023148148148148147, 0.023148148148148147, 0.023148148148148147, 0.023148148148148147, 0.023148148148148147, 0.023148148148148147, 0.023148148148148147, 0.023148148148148147, 0.023148148148148147, 0.023148148148148147, 0.023148148148148147, 0.023148148148148147, 0.023148148148148147, 0.023148148148148147, 0.023148148148148147, 0.023148148148148147, 0.023148148148148147, 0.023148148148148147, 0.023148148148148147, 0.023148148148148147, 0.023148148148148147, 0.023148148148148147, 0.023148148148148147, 0.023148148148148147, 0.023148148148148147, 0.023148148148148147]"	"[-0.3962962962962963, -0.3962962962962963, -0.3962962962962963, -0.3962962962962963, -0.3962962962962963, -0.3962962962962963, -0.3962962962962963, -0.3962962962962963, -0.3962962962962963, -0.3962962962962963, -0.3962962962962963, -0.3962962962962963, -0.3962962962962963, -0.3962962962962963, -0.3962962962962963, -0.3962962962962963, -0.3962962962962963, -0.3962962962962963, -0.3962962962962963, -0.3962962962962963, -0.3962962962962963, -0.3962962962962963, -0.3962962962962963, -0.3962962962962963, -0.3962962962962963, -0.3962962962962963, -0.3962962962962963, -0.3962962962962963, -0.3962962962962963, -0.3962962962962963, -0.3962962962962963, -0.3962962962962963]"	"[1, 1, 1, 1, 1, 1, 1, 1, 1, 1, 1, 1, 1, 1, 1, 1, 1, 1, 1, 1, 1, 1, 1, 1, 1, 1, 1, 1, 1, 1, 1, 0]"	"[0, 0, 0, 0, 0, 0, 0, 0, 0, 0, 0, 0, 0, 0, 0, 0, 0, 0, 0, 0, 0, 0, 0, 0, 0, 0, 0, 0, 0, 0, 0, 0]"	"[0, 0, 0, 0, 0, 0, 0, 0, 0, 0, 0, 0, 0, 0, 0, 0, 0, 0, 0, 0, 0, 0, 0, 0, 0, 0, 0, 0, 0, 0, 0, 1]"	"[0.5418470999993588, 0.7503123999995296, 0.9670029000008071, 1.1919011999998474, 1.4170369999992545, 1.6251680999994278, 1.8335162999992463, 2.0335424000004423, 2.2335345999999845, 2.433585500000845, 2.650237100000595, 2.8418053000004875, 3.058606200000213, 3.2670987999990757, 3.475192399999287, 3.7008122999995976, 3.9344774000001053, 4.158876299999974, 4.375471400000606, 4.591988800000763, 4.825283099999069, 5.0419136000000435, 5.24195250000048, 5.433745300000737, 5.617175900000802, 5.833699900000283, 6.017026400000759, 6.250456199999462, 6.4836914999996225, 6.733930200000032, 6.9423477000000275, 7.717310300000463]"	32	"[0.5395661000002292, 0.7480223000002297, 0.9647206999998161, 1.1897093999996287, 1.4147564000013517, 1.622869000000719, 1.8312213999997766, 2.031256600001143, 2.2312425000000076, 2.431326400001126, 2.6479546999999, 2.8395094999996218, 3.056310800000574, 3.2648002000005363, 3.4729132000011305, 3.6985340999999607, 3.9322345000000496, 4.156593100000464, 4.37318790000063, 4.589687700001377, 4.822987499999726, 5.039617000000362, 5.239682200000971, 5.43150500000047, 5.61494169999969, 5.831444999999803, 6.014770400000998, 6.248200600000928, 6.481412600000112, 6.731638799999928, 6.940054900000177, 7.714947800001028]"	"[0.614321300001393, 0.8559771000000183, 1.0644357000001037, 1.305970100000195, 1.5144655000003695, 1.7144535000006726, 1.9144844000002195, 2.12272750000011, 2.331213999999818, 2.5394037000005483, 2.747884200000044, 2.9479470000005676, 3.1479935000006662, 3.364733000000342, 3.6061320999997406, 3.83163980000063, 4.056149100000766, 4.272875700000441, 4.489615300000878, 4.714727100001255, 4.9479635000006965, 5.156280600000173, 5.372931200001403, 5.556259599999976, 5.731295100000352, 5.9312882000012905, 6.123008700000355, 6.373027400000865, 6.58992279999984, 6.831300900001224, 7.031313000001319, 7.714952500000436]"	49.359077000001	49.3650429000009	50.8563512000001	50.8478402000001	NA	NA	NA	NA	NA	NA	NA	31	"01"	"2024-02-21_11h05.29.558"	"BART_exp"	"2023.2.3"	122.439484284005	"2024-02-21 11h05.49.137243 +0100"	NA
"balloon.png"	44	0	4	4	10	50.8563512000001	NA	NA	NA	NA	NA	NA	NA	NA	NA	NA	NA	NA	50.8480548000007	50.8563512000001	50.8563512000001	50.8563512000001	50.8563512000001	50.8563512000001	0.00488489999952435	0.00488489999952435	0.00488489999952435	50.8563512000001	58.0746476000004	25	1.25	FALSE	"[0.023148148148148147, 0.023148148148148147, 0.023148148148148147, 0.023148148148148147, 0.023148148148148147, 0.023148148148148147, 0.023148148148148147, 0.023148148148148147, 0.023148148148148147, 0.023148148148148147, 0.023148148148148147, 0.023148148148148147, 0.023148148148148147, 0.023148148148148147, 0.023148148148148147, 0.023148148148148147, 0.023148148148148147, 0.023148148148148147, 0.023148148148148147, 0.023148148148148147, 0.023148148148148147, 0.023148148148148147, 0.023148148148148147, 0.023148148148148147, 0.023148148148148147, 0.023148148148148147]"	"[-0.3962962962962963, -0.3962962962962963, -0.3962962962962963, -0.3962962962962963, -0.3962962962962963, -0.3962962962962963, -0.3962962962962963, -0.3962962962962963, -0.3962962962962963, -0.3962962962962963, -0.3962962962962963, -0.3962962962962963, -0.3962962962962963, -0.3962962962962963, -0.3962962962962963, -0.3962962962962963, -0.3962962962962963, -0.3962962962962963, -0.3962962962962963, -0.3962962962962963, -0.3962962962962963, -0.3962962962962963, -0.3962962962962963, -0.3962962962962963, -0.3962962962962963, -0.3962962962962963]"	"[1, 1, 1, 1, 1, 1, 1, 1, 1, 1, 1, 1, 1, 1, 1, 1, 1, 1, 1, 1, 1, 1, 1, 1, 1, 0]"	"[0, 0, 0, 0, 0, 0, 0, 0, 0, 0, 0, 0, 0, 0, 0, 0, 0, 0, 0, 0, 0, 0, 0, 0, 0, 0]"	"[0, 0, 0, 0, 0, 0, 0, 0, 0, 0, 0, 0, 0, 0, 0, 0, 0, 0, 0, 0, 0, 0, 0, 0, 0, 1]"	"[0.8750144999994518, 1.1001302000004216, 1.3003647999994428, 1.5085760000001756, 1.7252566000006482, 1.9419102000010753, 2.175254400000995, 2.4251977000003535, 2.6417992999995477, 2.850336100000277, 3.05849119999948, 3.291820000000371, 3.4839253000009194, 3.6957399000002624, 3.9253628000005847, 4.167562700000417, 4.391893300000447, 4.625249599999734, 4.8671821000007185, 5.092171700000108, 5.367208199999368, 6.00031780000063, 6.2337023000000045, 6.450326899999709, 6.625506000000314, 7.225465999999869]"	26	"[0.872743800000535, 1.0978635999999824, 1.298121899999387, 1.5063184000009642, 1.7229979999992793, 1.9396464000001288, 2.1729880000002595, 2.422948699999324, 2.6395286999995733, 2.8480665999995836, 3.05621980000069, 3.2819237999992765, 3.481658200000311, 3.693467099999907, 3.923090399999637, 4.1653366000009555, 4.389620800000557, 4.622980800000732, 4.8649387000004936, 5.089903199999753, 5.365049199999703, 5.998064800000066, 6.2314373000008345, 6.448077499999272, 6.6232402000005095, 7.223132499999338]"	"[0.9810947999994823, 1.1893318000002182, 1.4060991000005743, 1.6311691999999312, 1.8393730999996478, 2.056076299999404, 2.3060506000001624, 2.531236299999364, 2.7312808000006044, 2.9480841999993572, 3.1561316000006627, 3.3828439000008075, 3.587259100000665, 3.80618560000039, 4.048416999999972, 4.266267299999527, 4.522906800000783, 4.756281800000579, 5.022911600000953, 5.2395744000004925, 5.53132320000077, 6.12302869999985, 6.347948700000416, 6.547955500000171, 6.758471200000713, 7.223137299999507]"	58.0757852000006	58.0815141000003	59.5730555999999	59.5650569999998	NA	NA	NA	NA	NA	NA	NA	31	"01"	"2024-02-21_11h05.29.558"	"BART_exp"	"2023.2.3"	122.439484284005	"2024-02-21 11h05.49.137243 +0100"	NA
"balloon.png"	49	0	5	5	11	59.5730555999999	NA	NA	NA	NA	NA	NA	NA	NA	NA	NA	NA	NA	59.5652815000012	59.5730555999999	59.5730555999999	59.5730555999999	59.5730555999999	59.5730555999999	0.00543230000039329	0.00543230000039329	0.00543230000039329	59.5730555999999	65.4500638999998	12	0.6	FALSE	"[0.023148148148148147, 0.023148148148148147, 0.023148148148148147, 0.023148148148148147, 0.023148148148148147, 0.023148148148148147, 0.023148148148148147, 0.023148148148148147, 0.023148148148148147, 0.023148148148148147, 0.023148148148148147, 0.023148148148148147, 0.023148148148148147]"	"[-0.3962962962962963, -0.3962962962962963, -0.3962962962962963, -0.3962962962962963, -0.3962962962962963, -0.3962962962962963, -0.3962962962962963, -0.3962962962962963, -0.3962962962962963, -0.3962962962962963, -0.3962962962962963, -0.3962962962962963, -0.3962962962962963]"	"[1, 1, 1, 1, 1, 1, 1, 1, 1, 1, 1, 1, 0]"	"[0, 0, 0, 0, 0, 0, 0, 0, 0, 0, 0, 0, 0]"	"[0, 0, 0, 0, 0, 0, 0, 0, 0, 0, 0, 0, 1]"	"[0.46680879999985336, 0.7669707999993989, 1.000319099999615, 1.1920596999989357, 1.3921291000006022, 1.6170438999997714, 1.8503135999999358, 2.0668282999995427, 2.350201199998992, 3.1169174000006024, 4.025939499999367, 5.042541299999357, 5.883741999999984]"	13	"[0.46459929999946326, 0.7649963999992906, 0.9981197999986762, 1.1898725999999442, 1.3899407999997493, 1.6148332999982813, 1.8481102999994619, 2.064613399999871, 2.3479814999991504, 3.1147048999991966, 4.023743799998556, 5.0404749999997875, 5.881458899999416]"	"[0.5644613999993453, 0.8894837999996525, 1.0977725999982795, 1.289569799999299, 1.4977947999996104, 1.7243773999998666, 1.9563052999983483, 2.1896844999992027, 2.5062939999988885, 3.239842899998621, 4.156724299999041, 5.164729399999487, 5.88146339999912]"	65.4508951000007	65.4566128000006	66.9510264	66.9423382000004	NA	NA	NA	NA	NA	NA	NA	31	"01"	"2024-02-21_11h05.29.558"	"BART_exp"	"2023.2.3"	122.439484284005	"2024-02-21 11h05.49.137243 +0100"	NA
"balloon.png"	88	0	6	6	20	66.9510264	NA	NA	NA	NA	NA	NA	NA	NA	NA	NA	NA	NA	66.9426586000009	66.9510264	66.9510264	66.9510264	66.9510264	66.9510264	0.00020519999998214	0.00020519999998214	0.00020519999998214	66.9510264	75.9843926000012	30	1.5	FALSE	"[0.023148148148148147, 0.023148148148148147, 0.023148148148148147, 0.023148148148148147, 0.023148148148148147, 0.023148148148148147, 0.023148148148148147, 0.023148148148148147, 0.023148148148148147, 0.023148148148148147, 0.023148148148148147, 0.023148148148148147, 0.023148148148148147, 0.023148148148148147, 0.023148148148148147, 0.023148148148148147, 0.023148148148148147, 0.023148148148148147, 0.023148148148148147, 0.023148148148148147, 0.023148148148148147, 0.023148148148148147, 0.023148148148148147, 0.023148148148148147, 0.023148148148148147, 0.023148148148148147, 0.023148148148148147, 0.023148148148148147, 0.023148148148148147, 0.023148148148148147, 0.023148148148148147]"	"[-0.3962962962962963, -0.3962962962962963, -0.3962962962962963, -0.3962962962962963, -0.3962962962962963, -0.3962962962962963, -0.3962962962962963, -0.3962962962962963, -0.3962962962962963, -0.3962962962962963, -0.3962962962962963, -0.3962962962962963, -0.3962962962962963, -0.3962962962962963, -0.3962962962962963, -0.3962962962962963, -0.3962962962962963, -0.3962962962962963, -0.3962962962962963, -0.3962962962962963, -0.3962962962962963, -0.3962962962962963, -0.3962962962962963, -0.3962962962962963, -0.3962962962962963, -0.3962962962962963, -0.3962962962962963, -0.3962962962962963, -0.3962962962962963, -0.3962962962962963, -0.3962962962962963]"	"[1, 1, 1, 1, 1, 1, 1, 1, 1, 1, 1, 1, 1, 1, 1, 1, 1, 1, 1, 1, 1, 1, 1, 1, 1, 1, 1, 1, 1, 1, 0]"	"[0, 0, 0, 0, 0, 0, 0, 0, 0, 0, 0, 0, 0, 0, 0, 0, 0, 0, 0, 0, 0, 0, 0, 0, 0, 0, 0, 0, 0, 0, 0]"	"[0, 0, 0, 0, 0, 0, 0, 0, 0, 0, 0, 0, 0, 0, 0, 0, 0, 0, 0, 0, 0, 0, 0, 0, 0, 0, 0, 0, 0, 0, 1]"	"[0.37293249999856926, 0.6645032999986142, 0.8895665000000008, 1.1143529999990278, 1.322887999998784, 1.5398957999987033, 1.7729244999991352, 1.989729899998565, 2.2064315999996325, 2.414736599999742, 2.6481127999995806, 2.8731354999999894, 3.1312529999995604, 3.3733787999990454, 3.6828814999989845, 4.1900439000000915, 4.656674899999416, 4.856750099999772, 5.040170799999032, 5.207018699999026, 6.073008699999264, 6.2482694999998785, 6.423644299999069, 6.598219199999221, 7.206825399998706, 7.423631399999067, 7.631807599998865, 7.8317601999988256, 8.023535099999208, 8.231792499998846, 9.04013649999979]"	31	"[0.370214999999007, 0.6617838999991363, 0.8868347999996331, 1.1116270999991684, 1.3201650999999401, 1.5371629999990546, 1.7701890999996976, 1.9870121000003564, 2.2037201000002824, 2.4120053999995434, 2.645405799999935, 2.870412500000384, 3.1285212000002502, 3.3706772000005003, 3.680155399999421, 4.187349499999982, 4.6539438999989216, 4.854026499999236, 5.037458200000401, 5.204299999999421, 6.070280500000081, 6.245537999999215, 6.4209723999993, 6.595490199999404, 7.204234599999836, 7.421095699999569, 7.629086599999937, 7.829028699999981, 8.020851699999184, 8.229059799999959, 9.037346799999796]"	"[0.5365829999991547, 0.7615544000000227, 0.9948447000006126, 1.2200761000003695, 1.4282822000004671, 1.653335099999822, 1.8866830000006303, 2.1116579999998066, 2.320120299998962, 2.528393299999152, 2.753446900000199, 2.9783814000002167, 3.2464553999998316, 3.5285150999989128, 3.828445400000419, 4.3035485000000335, 4.778527999998914, 4.961926300000414, 5.137290000000576, 5.313710700000229, 6.161954100000003, 6.353968199999144, 6.520771800000148, 6.7039103000006435, 7.320415099999082, 7.5536902000003465, 7.745473699998911, 7.936966699999175, 8.12877429999935, 8.353582100000494, 9.037351400000261]"	75.9861013999998	75.9909650000009	77.4909367	77.4746167000012	NA	NA	NA	NA	NA	NA	NA	31	"01"	"2024-02-21_11h05.29.558"	"BART_exp"	"2023.2.3"	122.439484284005	"2024-02-21 11h05.49.137243 +0100"	NA
"balloon.png"	1	0	7	7	0	77.4909367	NA	NA	NA	NA	NA	NA	NA	NA	NA	NA	NA	NA	77.4748501000013	77.4909367	77.4909367	77.4909367	77.4909367	77.4909367	0.0049395000005461	0.0049395000005461	0.0049395000005461	77.4909367	78.3932031000004	2	0.05	TRUE	"[0.023148148148148147, 0.023148148148148147]"	"[-0.3962962962962963, -0.3962962962962963]"	"[1, 1]"	"[0, 0]"	"[0, 0]"	"[0.5416890999986208, 0.8083372000000963]"	2	"[0.5393693000005442, 0.8060255999989749]"	"[0.6559328999992431, 0.9060061000000132]"	78.3938496999999	78.3991642000001	79.8913958000012	79.8831148000008	NA	NA	NA	NA	NA	NA	NA	31	"01"	"2024-02-21_11h05.29.558"	"BART_exp"	"2023.2.3"	122.439484284005	"2024-02-21 11h05.49.137243 +0100"	NA
"balloon.png"	40	0	8	8	9	79.8913958000012	NA	NA	NA	NA	NA	NA	NA	NA	NA	NA	NA	NA	79.8833265000012	79.8913958000012	79.8913958000012	79.8913958000012	79.8913958000012	79.8913958000012	0.00542510000013862	NA	NA	79.8913958000012	86.7685526000005	22	1.1	FALSE	"[0.023148148148148147, 0.023148148148148147, 0.023148148148148147, 0.023148148148148147, 0.023148148148148147, 0.023148148148148147, 0.023148148148148147, 0.023148148148148147, 0.023148148148148147, 0.023148148148148147, 0.023148148148148147, 0.023148148148148147, 0.023148148148148147, 0.023148148148148147, 0.023148148148148147, 0.023148148148148147, 0.023148148148148147, 0.023148148148148147, 0.023148148148148147, 0.023148148148148147, 0.023148148148148147, 0.023148148148148147, 0.023148148148148147]"	"[-0.3962962962962963, -0.3962962962962963, -0.3962962962962963, -0.3962962962962963, -0.3962962962962963, -0.3962962962962963, -0.3962962962962963, -0.3962962962962963, -0.3962962962962963, -0.3962962962962963, -0.3962962962962963, -0.3962962962962963, -0.3962962962962963, -0.3962962962962963, -0.3962962962962963, -0.3962962962962963, -0.3962962962962963, -0.3962962962962963, -0.3962962962962963, -0.3962962962962963, -0.3962962962962963, -0.3962962962962963, -0.3962962962962963]"	"[1, 1, 1, 1, 1, 1, 1, 1, 1, 1, 1, 1, 1, 1, 1, 1, 1, 1, 1, 1, 1, 1, 0]"	"[0, 0, 0, 0, 0, 0, 0, 0, 0, 0, 0, 0, 0, 0, 0, 0, 0, 0, 0, 0, 0, 0, 0]"	"[0, 0, 0, 0, 0, 0, 0, 0, 0, 0, 0, 0, 0, 0, 0, 0, 0, 0, 0, 0, 0, 0, 1]"	"[1.3167908000013995, 1.5501421000008122, 1.8095711000005394, 2.017042900000888, 2.2540296000006492, 2.4753287000003183, 2.6837218000000576, 2.90017650000118, 3.1169289000008575, 3.3252982000012707, 3.533604500000365, 3.73365990000093, 3.9337463000010757, 4.117009900000994, 4.317079000000376, 4.500406100001783, 5.158671300001515, 5.450668700001188, 5.634164100001726, 5.817374100000961, 5.984090500000093, 6.183912500000588, 6.884096100000534]"	23	"[1.3144358999998076, 1.547786900000574, 1.8072689000000537, 2.0146989000004396, 2.2516745000011724, 2.473012899999958, 2.6813686000004964, 2.8978237000010267, 3.114571900001465, 3.3229802000005293, 3.5312511000011, 3.731307199999719, 3.931396100000711, 4.114659599999868, 4.314754799999719, 4.498059900000953, 5.156328099999882, 5.448319099999935, 5.631831200000306, 5.8150471999997535, 5.981759500000408, 6.181562400000985, 6.881689699999697]"	"[1.4232423000012204, 1.6066380000011122, 1.8898803000010957, 2.131094700000176, 2.3477504000002227, 2.5729227000010724, 2.789556600000651, 3.0062367000009544, 3.2228832000000693, 3.4394797000004473, 3.6479305000011664, 3.839534200000344, 4.0394481000003, 4.222827800000232, 4.414609299999938, 4.606230299999879, 5.2561869000001025, 5.5480583000007755, 5.731453300000794, 5.914755499999956, 6.1062773000012385, 6.289684299999863, 6.881694800000332]"	86.7697656	86.7747802000013	88.2671566999998	88.2587385999996	NA	NA	NA	NA	NA	NA	NA	31	"01"	"2024-02-21_11h05.29.558"	"BART_exp"	"2023.2.3"	122.439484284005	"2024-02-21 11h05.49.137243 +0100"	NA
"balloon.png"	53	0	9	9	12	88.2671566999998	NA	NA	NA	NA	NA	NA	NA	NA	NA	NA	NA	NA	88.2589758000013	88.2671566999998	88.2671566999998	88.2671566999998	88.2671566999998	88.2671566999998	0.0050998000006075	0.0050998000006075	0.0050998000006075	88.2671566999998	101.4528058	34	1.7	FALSE	"[0.023148148148148147, 0.023148148148148147, 0.023148148148148147, 0.023148148148148147, 0.023148148148148147, 0.023148148148148147, 0.023148148148148147, 0.023148148148148147, 0.023148148148148147, 0.023148148148148147, 0.023148148148148147, 0.023148148148148147, 0.023148148148148147, 0.023148148148148147, 0.023148148148148147, 0.023148148148148147, 0.023148148148148147, 0.023148148148148147, 0.023148148148148147, 0.023148148148148147, 0.023148148148148147, 0.023148148148148147, 0.023148148148148147, 0.023148148148148147, 0.023148148148148147, 0.023148148148148147, 0.023148148148148147, 0.023148148148148147, 0.023148148148148147, 0.023148148148148147, 0.023148148148148147, 0.023148148148148147, 0.023148148148148147, 0.023148148148148147, 0.023148148148148147]"	"[-0.3962962962962963, -0.3962962962962963, -0.3962962962962963, -0.3962962962962963, -0.3962962962962963, -0.3962962962962963, -0.3962962962962963, -0.3962962962962963, -0.3962962962962963, -0.3962962962962963, -0.3962962962962963, -0.3962962962962963, -0.3962962962962963, -0.3962962962962963, -0.3962962962962963, -0.3962962962962963, -0.3962962962962963, -0.3962962962962963, -0.3962962962962963, -0.3962962962962963, -0.3962962962962963, -0.3962962962962963, -0.3962962962962963, -0.3962962962962963, -0.3962962962962963, -0.3962962962962963, -0.3962962962962963, -0.3962962962962963, -0.3962962962962963, -0.3962962962962963, -0.3962962962962963, -0.3962962962962963, -0.3962962962962963, -0.3962962962962963, -0.3962962962962963]"	"[1, 1, 1, 1, 1, 1, 1, 1, 1, 1, 1, 1, 1, 1, 1, 1, 1, 1, 1, 1, 1, 1, 1, 1, 1, 1, 1, 1, 1, 1, 1, 1, 1, 1, 0]"	"[0, 0, 0, 0, 0, 0, 0, 0, 0, 0, 0, 0, 0, 0, 0, 0, 0, 0, 0, 0, 0, 0, 0, 0, 0, 0, 0, 0, 0, 0, 0, 0, 0, 0, 0]"	"[0, 0, 0, 0, 0, 0, 0, 0, 0, 0, 0, 0, 0, 0, 0, 0, 0, 0, 0, 0, 0, 0, 0, 0, 0, 0, 0, 0, 0, 0, 0, 0, 0, 0, 1]"	"[2.4503014000001713, 2.725368699999308, 2.950233900000967, 3.1921751000008953, 3.408663300000626, 3.600386600001002, 3.8171007000000827, 4.042148599999564, 4.267118100000516, 4.492070500000409, 4.716996000001018, 4.958549700000731, 5.2085838000002695, 5.433975300000384, 5.675478700000895, 5.925315099999352, 6.198516500000551, 6.5586905000000115, 6.850820100000419, 7.067386200000328, 7.2923215000009804, 7.52994899999976, 7.792251299999407, 8.027486599999975, 8.25916750000033, 8.475782800000161, 8.950685199999498, 9.350753700000496, 9.83434060000036, 10.984471600000688, 11.42595959999926, 11.751009699999486, 11.959162400000423, 12.276009299999714, 13.192724200000157]"	35	"[2.447989400001461, 2.72307550000005, 2.947922600000311, 3.189919300000838, 3.4064169000012043, 3.598080600000685, 3.8148213000004034, 4.039927100000568, 4.264826100001301, 4.489790500001618, 4.714685500000996, 4.956252800000584, 5.206275600001391, 5.4316928000007465, 5.673167800001465, 5.923003600000811, 6.196199700001671, 6.556379400000878, 6.848509400000694, 7.065081600001577, 7.290030000000115, 7.527656300000672, 7.789932900001077, 8.025182100000166, 8.256876700001158, 8.473478800000521, 8.94839100000172, 9.348441000000093, 9.832048500000383, 10.982169600001725, 11.423651300001438, 11.748724400000356, 11.956853800000317, 12.273700900001131, 13.190350000000763]"	"[2.597753100000773, 2.824219699999958, 3.0559409000015876, 3.3063340000007884, 3.514438500000324, 3.722876499999984, 3.947840200000428, 4.181243200000608, 4.3978966000013315, 4.597899200000029, 4.839421100001346, 5.064579100000628, 5.340760400000363, 5.589521500000046, 5.8146286999999575, 6.0562190000000555, 6.348100700000941, 6.68147670000144, 6.9896619000010105, 7.173018000001321, 7.40646150000066, 7.652743100001317, 7.911069600000701, 8.148203000000649, 8.373153500000626, 8.598254100001213, 9.048281900000802, 9.489856200001668, 9.973239700000704, 11.106632100001661, 11.5653766000014, 11.856695300000865, 12.081969400000162, 12.423454400000992, 13.19035470000017]"	101.454148000001	101.459069	102.9540344	102.9447678	NA	NA	NA	NA	NA	NA	NA	31	"01"	"2024-02-21_11h05.29.558"	"BART_exp"	"2023.2.3"	122.439484284005	"2024-02-21 11h05.49.137243 +0100"	NA
"balloon.png"	27	0	10	10	6	102.9540344	NA	NA	NA	NA	NA	NA	NA	NA	NA	NA	NA	NA	102.9450536	102.9540344	102.9540344	102.9540344	102.9540344	102.9540344	-4.08999985666014e-05	-4.08999985666014e-05	-4.08999985666014e-05	102.9540344	111.978298600001	15	0.75	FALSE	"[0.023148148148148147, 0.023148148148148147, 0.023148148148148147, 0.023148148148148147, 0.023148148148148147, 0.023148148148148147, 0.023148148148148147, 0.023148148148148147, 0.023148148148148147, 0.023148148148148147, 0.023148148148148147, 0.023148148148148147, 0.023148148148148147, 0.023148148148148147, 0.023148148148148147, 0.023148148148148147]"	"[-0.3962962962962963, -0.3962962962962963, -0.3962962962962963, -0.3962962962962963, -0.3962962962962963, -0.3962962962962963, -0.3962962962962963, -0.3962962962962963, -0.3962962962962963, -0.3962962962962963, -0.3962962962962963, -0.3962962962962963, -0.3962962962962963, -0.3962962962962963, -0.3962962962962963, -0.3962962962962963]"	"[1, 1, 1, 1, 1, 1, 1, 1, 1, 1, 1, 1, 1, 1, 1, 0]"	"[0, 0, 0, 0, 0, 0, 0, 0, 0, 0, 0, 0, 0, 0, 0, 0]"	"[0, 0, 0, 0, 0, 0, 0, 0, 0, 0, 0, 0, 0, 0, 0, 1]"	"[4.756979099998716, 4.983442899998408, 5.190550199999052, 5.407230199998594, 5.640403699999297, 5.890339999999924, 6.081693000000087, 6.281667899998865, 6.490810899998905, 6.7406764999996085, 6.973683099999107, 7.37365729999874, 7.7736224999989645, 8.098486599999887, 8.498943699998563, 9.03185080000003]"	16	"[4.753887700000632, 4.980326499999137, 5.187442500000543, 5.404125799999747, 5.6373000999992655, 5.887244100000316, 6.0785735999998, 6.278554099999383, 6.487750000000233, 6.737754199999472, 6.970683499999723, 7.370603100000153, 7.77055350000046, 8.095372600000701, 8.495828699999038, 9.02867359999982]"	"[4.870284500000707, 5.078374099999564, 5.303822899999432, 5.5039512000003015, 5.761761699999624, 5.995100599999205, 6.203661899999133, 6.3951364000004105, 6.620449800000642, 6.853567099999054, 7.0869359000007535, 7.4868485999995755, 7.911894499999107, 8.270356900000479, 8.870202800000698, 9.028678500000751]"	111.979408500001	111.984801300001	113.4770737	113.468785000001	NA	NA	NA	NA	NA	NA	NA	31	"01"	"2024-02-21_11h05.29.558"	"BART_exp"	"2023.2.3"	122.439484284005	"2024-02-21 11h05.49.137243 +0100"	NA
"balloon.png"	75	0	11	11	17	113.4770737	NA	NA	NA	NA	NA	NA	NA	NA	NA	NA	NA	NA	113.4690083	113.4770737	113.4770737	113.4770737	113.4770737	113.4770737	0.00553409999884024	0.00553409999884024	0.00553409999884024	113.4770737	123.6959909	42	2.1	FALSE	"[0.023148148148148147, 0.023148148148148147, 0.023148148148148147, 0.023148148148148147, 0.023148148148148147, 0.023148148148148147, 0.023148148148148147, 0.023148148148148147, 0.023148148148148147, 0.023148148148148147, 0.023148148148148147, 0.023148148148148147, 0.023148148148148147, 0.023148148148148147, 0.023148148148148147, 0.023148148148148147, 0.023148148148148147, 0.023148148148148147, 0.023148148148148147, 0.023148148148148147, 0.023148148148148147, 0.023148148148148147, 0.023148148148148147, 0.023148148148148147, 0.023148148148148147, 0.023148148148148147, 0.023148148148148147, 0.023148148148148147, 0.023148148148148147, 0.023148148148148147, 0.023148148148148147, 0.023148148148148147, 0.023148148148148147, 0.023148148148148147, 0.023148148148148147, 0.023148148148148147, 0.023148148148148147, 0.023148148148148147, 0.023148148148148147, 0.023148148148148147, 0.023148148148148147, 0.023148148148148147, 0.023148148148148147]"	"[-0.3962962962962963, -0.3962962962962963, -0.3962962962962963, -0.3962962962962963, -0.3962962962962963, -0.3962962962962963, -0.3962962962962963, -0.3962962962962963, -0.3962962962962963, -0.3962962962962963, -0.3962962962962963, -0.3962962962962963, -0.3962962962962963, -0.3962962962962963, -0.3962962962962963, -0.3962962962962963, -0.3962962962962963, -0.3962962962962963, -0.3962962962962963, -0.3962962962962963, -0.3962962962962963, -0.3962962962962963, -0.3962962962962963, -0.3962962962962963, -0.3962962962962963, -0.3962962962962963, -0.3962962962962963, -0.3962962962962963, -0.3962962962962963, -0.3962962962962963, -0.3962962962962963, -0.3962962962962963, -0.3962962962962963, -0.3962962962962963, -0.3962962962962963, -0.3962962962962963, -0.3962962962962963, -0.3962962962962963, -0.3962962962962963, -0.3962962962962963, -0.3962962962962963, -0.3962962962962963, -0.3962962962962963]"	"[1, 1, 1, 1, 1, 1, 1, 1, 1, 1, 1, 1, 1, 1, 1, 1, 1, 1, 1, 1, 1, 1, 1, 1, 1, 1, 1, 1, 1, 1, 1, 1, 1, 1, 1, 1, 1, 1, 1, 1, 1, 1, 0]"	"[0, 0, 0, 0, 0, 0, 0, 0, 0, 0, 0, 0, 0, 0, 0, 0, 0, 0, 0, 0, 0, 0, 0, 0, 0, 0, 0, 0, 0, 0, 0, 0, 0, 0, 0, 0, 0, 0, 0, 0, 0, 0, 0]"	"[0, 0, 0, 0, 0, 0, 0, 0, 0, 0, 0, 0, 0, 0, 0, 0, 0, 0, 0, 0, 0, 0, 0, 0, 0, 0, 0, 0, 0, 0, 0, 0, 0, 0, 0, 0, 0, 0, 0, 0, 0, 0, 1]"	"[0.3774185000002035, 0.7669137000011688, 0.9920460000012099, 1.192085099999531, 1.3669578999997611, 1.5836572000007436, 1.8170050000007905, 2.0503912000003766, 2.2753296999999293, 2.4919919000003574, 2.725346900000659, 2.983835099999851, 3.2256861999994726, 3.560985100000835, 3.809311400000297, 4.033797699999923, 4.242604799999754, 4.475688000000446, 4.692376299999523, 5.000605400000495, 5.292106400000193, 5.492095400000835, 5.6920092000000295, 5.883720199999516, 6.058717800000522, 6.234055400000216, 6.4338191999995615, 6.642282500000874, 6.8340597999995225, 7.034042799999952, 7.25056399999994, 7.467228400000749, 7.659028399999443, 7.851897599999575, 8.067321900000024, 8.29215959999965, 8.475523799999792, 8.692190900001151, 8.883993200000987, 9.184331500000553, 9.425853200000347, 9.625822699999844, 10.225882799999454]"	43	"[0.37522619999981544, 0.7646176999987802, 0.9897693999992043, 1.1898077999994712, 1.3646534999988944, 1.5813530999985232, 1.8147083999992901, 2.0480855999994674, 2.273019899999781, 2.489674599999489, 2.7230392999990727, 2.981557099999918, 3.223393299998861, 3.5586803999995027, 3.807029899999179, 4.031481399999393, 4.240358099999867, 4.473379600000044, 4.690137599998707, 4.998311999999714, 5.28984489999857, 5.489816199999041, 5.689731099999335, 5.881405999998606, 6.056437799999912, 6.231751699999222, 6.431531499998528, 6.639973699999246, 6.831757699999798, 7.031737499999508, 7.248255900000004, 7.464918099998613, 7.656719099999464, 7.849747799999022, 8.065020499998354, 8.289843099999416, 8.473208199999135, 8.689890399999058, 8.881680899999992, 9.182048699998631, 9.423543499999141, 9.62350989999868, 10.223510599998917]"	"[0.48937069999919913, 0.8643171999992774, 1.0894690999994054, 1.2810384999993403, 1.464362099999562, 1.6977285999982996, 1.9228405999983806, 2.147743999999875, 2.3644533999995474, 2.5896213999985775, 2.8562788999988697, 3.114462999999887, 3.3564799999985553, 3.681149000000005, 3.931170799998654, 4.147843400000056, 4.356647199998406, 4.581209899999521, 4.797882899998513, 5.156431499999599, 5.397958499999731, 5.597949299999527, 5.781338899998445, 5.984078499999669, 6.156268199998522, 6.339550099999542, 6.539672999999311, 6.748053599998457, 6.948163299999578, 7.156333699998868, 7.35636969999905, 7.556343799999013, 7.7564171999983955, 7.956409200000053, 8.181577399998787, 8.38989760000004, 8.589759499998763, 8.798334299999624, 9.039942399998836, 9.298221699998976, 9.539914499999213, 9.731648799999675, 10.223515299998326]"	123.697443500001	123.7023603	125.194360000001	125.186330500001	NA	NA	NA	NA	NA	NA	NA	31	"01"	"2024-02-21_11h05.29.558"	"BART_exp"	"2023.2.3"	122.439484284005	"2024-02-21 11h05.49.137243 +0100"	NA
"balloon.png"	79	0	12	12	18	125.194360000001	NA	NA	NA	NA	NA	NA	NA	NA	NA	NA	NA	NA	125.1865672	125.194360000001	125.194360000001	125.194360000001	125.194360000001	125.194360000001	0.00495580000097106	0.00495580000097106	0.00495580000097106	125.194360000001	131.9213937	26	1.3	FALSE	"[0.023148148148148147, 0.023148148148148147, 0.023148148148148147, 0.023148148148148147, 0.023148148148148147, 0.023148148148148147, 0.023148148148148147, 0.023148148148148147, 0.023148148148148147, 0.023148148148148147, 0.023148148148148147, 0.023148148148148147, 0.023148148148148147, 0.023148148148148147, 0.023148148148148147, 0.023148148148148147, 0.023148148148148147, 0.023148148148148147, 0.023148148148148147, 0.023148148148148147, 0.023148148148148147, 0.023148148148148147, 0.023148148148148147, 0.023148148148148147, 0.023148148148148147, 0.023148148148148147, 0.023148148148148147]"	"[-0.3962962962962963, -0.3962962962962963, -0.3962962962962963, -0.3962962962962963, -0.3962962962962963, -0.3962962962962963, -0.3962962962962963, -0.3962962962962963, -0.3962962962962963, -0.3962962962962963, -0.3962962962962963, -0.3962962962962963, -0.3962962962962963, -0.3962962962962963, -0.3962962962962963, -0.3962962962962963, -0.3962962962962963, -0.3962962962962963, -0.3962962962962963, -0.3962962962962963, -0.3962962962962963, -0.3962962962962963, -0.3962962962962963, -0.3962962962962963, -0.3962962962962963, -0.3962962962962963, -0.3962962962962963]"	"[1, 1, 1, 1, 1, 1, 1, 1, 1, 1, 1, 1, 1, 1, 1, 1, 1, 1, 1, 1, 1, 1, 1, 1, 1, 1, 0]"	"[0, 0, 0, 0, 0, 0, 0, 0, 0, 0, 0, 0, 0, 0, 0, 0, 0, 0, 0, 0, 0, 0, 0, 0, 0, 0, 0]"	"[0, 0, 0, 0, 0, 0, 0, 0, 0, 0, 0, 0, 0, 0, 0, 0, 0, 0, 0, 0, 0, 0, 0, 0, 0, 0, 1]"	"[0.6170982999992702, 0.8586723999997048, 1.1007066000001942, 1.358362799999668, 1.6171665000001667, 1.8672688999995444, 2.0838898999991216, 2.284152999998696, 2.4837883000000147, 2.7086687999999413, 2.9751239999986865, 3.191839199998867, 3.400114099998973, 3.616757300000245, 3.8253829999994196, 4.058782000000065, 4.258837299999868, 4.483688399999664, 4.7003702000001795, 4.9170586000000185, 5.133521300000211, 5.350317899999936, 5.5587242000001424, 5.766974999998638, 5.958766599998853, 6.142055399999663, 6.7337412999986554]"	27	"[0.6146862000005058, 0.8562602000001789, 1.0982898999991448, 1.3559334999990824, 1.6149375999993936, 1.8648885000002338, 2.0815228999999817, 2.281787699999768, 2.4815548000005947, 2.7062611000001198, 2.9726940999989893, 3.1894030000003113, 3.397704499999236, 3.614321499999278, 3.8229556000005687, 4.0563564999993105, 4.256410899999537, 4.4812447000003885, 4.697930099999212, 4.914618700000574, 5.131083599999329, 5.347878700000365, 5.556286700000783, 5.764536999999109, 5.956330400000297, 6.139621199999965, 6.7312404999993305]"	"[0.7057473000004393, 0.972427400000015, 1.2057638000005682, 1.4812330000004295, 1.7225252000007458, 1.9724843999993027, 2.1725466000007145, 2.364392899999075, 2.5892385999995895, 2.8143101000005117, 3.0809269000001223, 3.2893385000006674, 3.5015385000006063, 3.70614519999981, 3.9395143000001553, 4.164254400000573, 4.380962499999441, 4.589372299999013, 4.806029199999102, 5.022865900000397, 5.2394595999994635, 5.456164799999897, 5.656205699999191, 5.864332499999364, 6.056077999999616, 6.247842700000547, 6.731245499999204]"	131.922786700001	131.9283005	133.4199596	133.4118573	NA	NA	NA	NA	NA	NA	NA	31	"01"	"2024-02-21_11h05.29.558"	"BART_exp"	"2023.2.3"	122.439484284005	"2024-02-21 11h05.49.137243 +0100"	NA
"balloon.png"	84	0	13	13	19	133.4199596	NA	NA	NA	NA	NA	NA	NA	NA	NA	NA	NA	NA	133.4120709	133.4199596	133.4199596	133.4199596	133.4199596	133.4199596	0.00521240000125544	0.00521240000125544	0.00521240000125544	133.4199596	137.447390900001	13	0.65	FALSE	"[0.023148148148148147, 0.023148148148148147, 0.023148148148148147, 0.023148148148148147, 0.023148148148148147, 0.023148148148148147, 0.023148148148148147, 0.023148148148148147, 0.023148148148148147, 0.023148148148148147, 0.023148148148148147, 0.023148148148148147, 0.023148148148148147, 0.023148148148148147]"	"[-0.3962962962962963, -0.3962962962962963, -0.3962962962962963, -0.3962962962962963, -0.3962962962962963, -0.3962962962962963, -0.3962962962962963, -0.3962962962962963, -0.3962962962962963, -0.3962962962962963, -0.3962962962962963, -0.3962962962962963, -0.3962962962962963, -0.3962962962962963]"	"[1, 1, 1, 1, 1, 1, 1, 1, 1, 1, 1, 1, 1, 0]"	"[0, 0, 0, 0, 0, 0, 0, 0, 0, 0, 0, 0, 0, 0]"	"[0, 0, 0, 0, 0, 0, 0, 0, 0, 0, 0, 0, 0, 1]"	"[0.3334728999998333, 0.6834926000010455, 0.9669278000001214, 1.1917745000009745, 1.425312200000917, 1.6507608000010805, 1.8753661000009743, 2.108470400000442, 2.3251488999994763, 2.5005376000008255, 2.6753226000000723, 2.8673068000007333, 3.0509292999995523, 4.03385900000103]"	14	"[0.33094939999864437, 0.6809720999990532, 0.9644018999988475, 1.1892473999996582, 1.4227880999987974, 1.6482442999986233, 1.8728404999983468, 2.105942699998195, 2.3226384999998118, 2.498026099998242, 2.6727975999983755, 2.864872199999809, 3.048485499999515, 4.031311799999457]"	"[0.48909069999899657, 0.8309433999984321, 1.055825499999628, 1.3143932999992103, 1.5225356999999349, 1.7558998999993491, 1.9812280999994982, 2.205840499998885, 2.4224837999990996, 2.6058929999999236, 2.781046199999764, 2.9812413999989076, 3.1809677999990527, 4.03131779999967]"	137.4486249	137.453233	138.953549600001	138.937203200001	NA	NA	NA	NA	NA	NA	NA	31	"01"	"2024-02-21_11h05.29.558"	"BART_exp"	"2023.2.3"	122.439484284005	"2024-02-21 11h05.49.137243 +0100"	NA
"balloon.png"	105	0	14	14	24	138.953549600001	NA	NA	NA	NA	NA	NA	NA	NA	NA	NA	NA	NA	138.937414400001	138.953549600001	138.953549600001	138.953549600001	138.953549600001	138.953549600001	0.00504990000081306	0.00504990000081306	0.00504990000081306	138.953549600001	149.231317	35	1.75	FALSE	"[0.023148148148148147, 0.023148148148148147, 0.023148148148148147, 0.023148148148148147, 0.023148148148148147, 0.023148148148148147, 0.023148148148148147, 0.023148148148148147, 0.023148148148148147, 0.023148148148148147, 0.023148148148148147, 0.023148148148148147, 0.023148148148148147, 0.023148148148148147, 0.023148148148148147, 0.023148148148148147, 0.023148148148148147, 0.023148148148148147, 0.023148148148148147, 0.023148148148148147, 0.023148148148148147, 0.023148148148148147, 0.023148148148148147, 0.023148148148148147, 0.023148148148148147, 0.023148148148148147, 0.023148148148148147, 0.023148148148148147, 0.023148148148148147, 0.023148148148148147, 0.023148148148148147, 0.023148148148148147, 0.023148148148148147, 0.023148148148148147, 0.023148148148148147, 0.023148148148148147]"	"[-0.3962962962962963, -0.3962962962962963, -0.3962962962962963, -0.3962962962962963, -0.3962962962962963, -0.3962962962962963, -0.3962962962962963, -0.3962962962962963, -0.3962962962962963, -0.3962962962962963, -0.3962962962962963, -0.3962962962962963, -0.3962962962962963, -0.3962962962962963, -0.3962962962962963, -0.3962962962962963, -0.3962962962962963, -0.3962962962962963, -0.3962962962962963, -0.3962962962962963, -0.3962962962962963, -0.3962962962962963, -0.3962962962962963, -0.3962962962962963, -0.3962962962962963, -0.3962962962962963, -0.3962962962962963, -0.3962962962962963, -0.3962962962962963, -0.3962962962962963, -0.3962962962962963, -0.3962962962962963, -0.3962962962962963, -0.3962962962962963, -0.3962962962962963, -0.3962962962962963]"	"[1, 1, 1, 1, 1, 1, 1, 1, 1, 1, 1, 1, 1, 1, 1, 1, 1, 1, 1, 1, 1, 1, 1, 1, 1, 1, 1, 1, 1, 1, 1, 1, 1, 1, 1, 0]"	"[0, 0, 0, 0, 0, 0, 0, 0, 0, 0, 0, 0, 0, 0, 0, 0, 0, 0, 0, 0, 0, 0, 0, 0, 0, 0, 0, 0, 0, 0, 0, 0, 0, 0, 0, 0]"	"[0, 0, 0, 0, 0, 0, 0, 0, 0, 0, 0, 0, 0, 0, 0, 0, 0, 0, 0, 0, 0, 0, 0, 0, 0, 0, 0, 0, 0, 0, 0, 0, 0, 0, 0, 1]"	"[0.517071099999157, 0.7170671000003495, 0.9085381000004418, 1.1417639999999665, 1.375107099998786, 1.6048013999989053, 1.8326149999993504, 2.0504612999993697, 2.283793299999161, 2.5168596000003163, 2.76699329999974, 3.041949399999794, 3.2858593000000837, 3.567078300000503, 3.86728310000035, 4.392024299999321, 4.65893479999977, 4.892257899999095, 5.158692999999403, 5.950716100000136, 6.192103999999745, 6.410216799999034, 6.642126999999164, 6.850563500000135, 7.075799700000061, 7.300777200000084, 7.583836599998904, 7.84227859999919, 8.117447099999481, 8.433853200000158, 8.709219099999245, 8.933911599999192, 9.100847699999576, 9.267539200000101, 9.45082580000053, 10.292735499999253]"	36	"[0.5147410999998101, 0.7147449999993114, 0.906174399999145, 1.1394024999990506, 1.3727526999991824, 1.6024373000000196, 1.830262399998901, 2.0481201999991754, 2.281443899999431, 2.5145009999996546, 2.7646411000005173, 3.039593399998921, 3.283501300000353, 3.564719199999672, 3.864951800000199, 4.389661600000181, 4.656595299999026, 4.889913699998942, 5.156338599999799, 5.948378799999773, 6.18974259999959, 6.408082899999499, 6.639779799999815, 6.8482679999997345, 7.073463400000037, 7.298484199998711, 7.581510599999092, 7.839914000000135, 8.11509119999937, 8.431511200000386, 8.706885699999475, 8.931547299998783, 9.098498800000016, 9.26519720000033, 9.448483699999997, 10.290326899999855]"	"[0.6225037999993219, 0.8310682999999699, 1.0392417000002752, 1.272656699999061, 1.497807699999612, 1.7276564000003418, 1.972705299998779, 2.1811283999995794, 2.4227124999997613, 2.6560883000001922, 2.9145227999997587, 3.1727845999994315, 3.4395024000004923, 3.7647522999996, 4.047996399998738, 4.539778399999705, 4.806270299999596, 5.037457099999301, 5.289614799999981, 6.089832199999364, 6.322978500000318, 6.522988999999143, 6.764786300000196, 6.964720699999816, 7.189723299999969, 7.434796699999424, 7.689746000000014, 7.964709599998969, 8.239826400000311, 8.590253700000176, 8.823211599999922, 9.014804499998718, 9.206555099999605, 9.373262499999328, 9.590000399999553, 10.290331899999728]"	149.232704600001	149.2373966	150.7296308	150.7213787	NA	NA	NA	NA	NA	NA	NA	31	"01"	"2024-02-21_11h05.29.558"	"BART_exp"	"2023.2.3"	122.439484284005	"2024-02-21 11h05.49.137243 +0100"	NA
"balloon.png"	123	0	15	15	28	150.7296308	NA	NA	NA	NA	NA	NA	NA	NA	NA	NA	NA	NA	150.721593	150.7296308	150.7296308	150.7296308	150.7296308	150.7296308	0.00480590000006486	0.00480590000006486	0.00480590000006486	150.7296308	159.406983700001	27	1.35	FALSE	"[0.023148148148148147, 0.023148148148148147, 0.023148148148148147, 0.023148148148148147, 0.023148148148148147, 0.023148148148148147, 0.023148148148148147, 0.023148148148148147, 0.023148148148148147, 0.023148148148148147, 0.023148148148148147, 0.023148148148148147, 0.023148148148148147, 0.023148148148148147, 0.023148148148148147, 0.023148148148148147, 0.023148148148148147, 0.023148148148148147, 0.023148148148148147, 0.023148148148148147, 0.023148148148148147, 0.023148148148148147, 0.023148148148148147, 0.023148148148148147, 0.023148148148148147, 0.023148148148148147, 0.023148148148148147, 0.023148148148148147]"	"[-0.3962962962962963, -0.3962962962962963, -0.3962962962962963, -0.3962962962962963, -0.3962962962962963, -0.3962962962962963, -0.3962962962962963, -0.3962962962962963, -0.3962962962962963, -0.3962962962962963, -0.3962962962962963, -0.3962962962962963, -0.3962962962962963, -0.3962962962962963, -0.3962962962962963, -0.3962962962962963, -0.3962962962962963, -0.3962962962962963, -0.3962962962962963, -0.3962962962962963, -0.3962962962962963, -0.3962962962962963, -0.3962962962962963, -0.3962962962962963, -0.3962962962962963, -0.3962962962962963, -0.3962962962962963, -0.3962962962962963]"	"[1, 1, 1, 1, 1, 1, 1, 1, 1, 1, 1, 1, 1, 1, 1, 1, 1, 1, 1, 1, 1, 1, 1, 1, 1, 1, 1, 0]"	"[0, 0, 0, 0, 0, 0, 0, 0, 0, 0, 0, 0, 0, 0, 0, 0, 0, 0, 0, 0, 0, 0, 0, 0, 0, 0, 0, 0]"	"[0, 0, 0, 0, 0, 0, 0, 0, 0, 0, 0, 0, 0, 0, 0, 0, 0, 0, 0, 0, 0, 0, 0, 0, 0, 0, 0, 1]"	"[1.2503457000002527, 1.6421996999997646, 2.059158199999729, 2.2592545000006794, 2.4593394000003173, 2.6504492000003665, 2.859345900000335, 3.0837862999997014, 3.283801700001277, 3.508973400001196, 3.742308500000945, 3.977049099999931, 4.208705299999565, 4.433662900000854, 4.658839200001239, 4.892126200000348, 5.150382400001035, 5.367088500001046, 5.583789700000125, 5.800439500000721, 6.019138600000588, 6.225376700000197, 6.434021900000516, 6.633893199999875, 6.8172936999999365, 6.992074400001002, 7.210486400001173, 8.684253800000079]"	28	"[1.2480167000012443, 1.639862500000163, 2.056837500000256, 2.2569268999995984, 2.457005399999616, 2.648126100000809, 2.857084600000235, 3.081441000000268, 3.2814736000000266, 3.50674170000093, 3.7401298000004317, 3.9746986999998626, 4.20639090000077, 4.431308700000955, 4.656533999999738, 4.889801200000875, 5.14802840000084, 5.364733800000977, 5.581465600000229, 5.798083400000905, 6.016822600000523, 6.223018500000762, 6.431684700000915, 6.631563700000697, 6.814946200000122, 6.989720700001271, 7.208142900000894, 8.681860300001063]"	"[1.4310043000004953, 1.7728743999996368, 2.13974220000091, 2.3477261000007275, 2.5398681000006036, 2.7644154999998136, 2.9643935000003694, 3.1896854000005987, 3.3897529000005306, 3.6144796000007773, 3.8478590000013355, 4.081180200000745, 4.3145327000002, 4.547808299999815, 4.781295900000259, 5.022830600000816, 5.257892300000094, 5.489542700001039, 5.69797810000091, 5.906380200000058, 6.122965300000942, 6.331386200001361, 6.539639399999942, 6.740213900000526, 6.906314300000304, 7.089645800000653, 7.322989700000107, 8.681864800000767]"	159.408365200001	159.413085600001	160.904963000001	160.897083	NA	NA	NA	NA	NA	NA	NA	31	"01"	"2024-02-21_11h05.29.558"	"BART_exp"	"2023.2.3"	122.439484284005	"2024-02-21 11h05.49.137243 +0100"	NA
"balloon.png"	31	0	16	16	7	160.904963000001	NA	NA	NA	NA	NA	NA	NA	NA	NA	NA	NA	NA	160.8973155	160.904963000001	160.904963000001	160.904963000001	160.904963000001	160.904963000001	0.00484869999854709	0.00484869999854709	0.00484869999854709	160.904963000001	169.3077861	32	1.55	TRUE	"[0.023148148148148147, 0.023148148148148147, 0.023148148148148147, 0.023148148148148147, 0.023148148148148147, 0.023148148148148147, 0.023148148148148147, 0.023148148148148147, 0.023148148148148147, 0.023148148148148147, 0.023148148148148147, 0.023148148148148147, 0.023148148148148147, 0.023148148148148147, 0.023148148148148147, 0.023148148148148147, 0.023148148148148147, 0.023148148148148147, 0.023148148148148147, 0.023148148148148147, 0.023148148148148147, 0.023148148148148147, 0.023148148148148147, 0.023148148148148147, 0.023148148148148147, 0.023148148148148147, 0.023148148148148147, 0.023148148148148147, 0.023148148148148147, 0.023148148148148147, 0.023148148148148147, 0.023148148148148147]"	"[-0.3962962962962963, -0.3962962962962963, -0.3962962962962963, -0.3962962962962963, -0.3962962962962963, -0.3962962962962963, -0.3962962962962963, -0.3962962962962963, -0.3962962962962963, -0.3962962962962963, -0.3962962962962963, -0.3962962962962963, -0.3962962962962963, -0.3962962962962963, -0.3962962962962963, -0.3962962962962963, -0.3962962962962963, -0.3962962962962963, -0.3962962962962963, -0.3962962962962963, -0.3962962962962963, -0.3962962962962963, -0.3962962962962963, -0.3962962962962963, -0.3962962962962963, -0.3962962962962963, -0.3962962962962963, -0.3962962962962963, -0.3962962962962963, -0.3962962962962963, -0.3962962962962963, -0.3962962962962963]"	"[1, 1, 1, 1, 1, 1, 1, 1, 1, 1, 1, 1, 1, 1, 1, 1, 1, 1, 1, 1, 1, 1, 1, 1, 1, 1, 1, 1, 1, 1, 1, 1]"	"[0, 0, 0, 0, 0, 0, 0, 0, 0, 0, 0, 0, 0, 0, 0, 0, 0, 0, 0, 0, 0, 0, 0, 0, 0, 0, 0, 0, 0, 0, 0, 0]"	"[0, 0, 0, 0, 0, 0, 0, 0, 0, 0, 0, 0, 0, 0, 0, 0, 0, 0, 0, 0, 0, 0, 0, 0, 0, 0, 0, 0, 0, 0, 0, 0]"	"[0.7920504000012443, 1.0838600000006409, 1.6088346000015008, 1.8837142000011227, 2.1772661000013613, 2.51803480000126, 2.7668174999998882, 2.9668393000010838, 3.2349983000003704, 3.461336200000005, 3.6838544000002003, 3.8921236000005592, 4.092085600001155, 4.300462300001527, 4.5171922000008635, 4.742162300000928, 4.9669726000011, 5.183755000000019, 5.367072400000325, 5.592008000001442, 5.817144700000426, 6.042159500000707, 6.258993800000098, 6.475667500000782, 6.700687900000048, 6.917407100001583, 7.1420959000006405, 7.383830800001306, 7.6088343000010354, 7.834003300000404, 8.050841400001445, 8.284223900000143]"	32	"[0.7897012999983417, 1.0815862999988894, 1.6065037999997003, 1.8813864999992802, 2.1749618999983795, 2.5159448999984306, 2.7644688000000315, 2.9644866999988153, 3.232812099999137, 3.4589929999983724, 3.68152259999988, 3.889792199999647, 4.089741599998888, 4.298112899999978, 4.514846099998977, 4.7398123999992094, 4.9646171999993385, 5.181402700000035, 5.3647289000000455, 5.589652199998454, 5.814793599998666, 6.039809999998397, 6.256658999998763, 6.473341499999151, 6.698339399999895, 6.915068199999951, 7.139760999998543, 7.381474199999502, 7.606483399998979, 7.831650799998897, 8.048512800000026, 8.281892599999992]"	"[0.8976657999992312, 1.4232589999992342, 1.7729780999998184, 1.989549399999305, 2.3394651999988127, 2.6394432999986748, 2.872752399998717, 3.097784599998704, 3.3644370999991224, 3.5894554999995307, 3.806096999998772, 4.0060936999998376, 4.20609389999845, 4.414608999999473, 4.631196799999088, 4.8560436999996455, 5.072837199999412, 5.281274499999199, 5.472851299999093, 5.706211099999564, 5.931378399998721, 6.156255099998816, 6.373180299999149, 6.597973199999615, 6.82300639999994, 7.048135999999431, 7.256339699999444, 7.4815022999991925, 7.706484699998327, 7.9397595999998885, 8.164862599998742, 8.398231199998918]"	169.309179600001	169.313825000001	170.81019	170.797969000001	NA	NA	NA	NA	NA	NA	NA	31	"01"	"2024-02-21_11h05.29.558"	"BART_exp"	"2023.2.3"	122.439484284005	"2024-02-21 11h05.49.137243 +0100"	NA
"balloon.png"	62	0	17	17	14	170.81019	NA	NA	NA	NA	NA	NA	NA	NA	NA	NA	NA	NA	170.7981865	170.81019	170.81019	170.81019	170.81019	170.81019	0.00108389999877545	NA	NA	170.81019	178.924873	34	1.7	FALSE	"[0.023148148148148147, 0.023148148148148147, 0.023148148148148147, 0.023148148148148147, 0.023148148148148147, 0.023148148148148147, 0.023148148148148147, 0.023148148148148147, 0.023148148148148147, 0.023148148148148147, 0.023148148148148147, 0.023148148148148147, 0.023148148148148147, 0.023148148148148147, 0.023148148148148147, 0.023148148148148147, 0.023148148148148147, 0.023148148148148147, 0.023148148148148147, 0.023148148148148147, 0.023148148148148147, 0.023148148148148147, 0.023148148148148147, 0.023148148148148147, 0.023148148148148147, 0.023148148148148147, 0.023148148148148147, 0.023148148148148147, 0.023148148148148147, 0.023148148148148147, 0.023148148148148147, 0.023148148148148147, 0.023148148148148147, 0.023148148148148147, 0.023148148148148147]"	"[-0.39537037037037037, -0.39537037037037037, -0.39537037037037037, -0.39537037037037037, -0.39537037037037037, -0.39537037037037037, -0.39537037037037037, -0.39537037037037037, -0.39537037037037037, -0.39537037037037037, -0.39537037037037037, -0.39537037037037037, -0.39537037037037037, -0.39537037037037037, -0.39537037037037037, -0.39537037037037037, -0.39537037037037037, -0.39537037037037037, -0.39537037037037037, -0.39537037037037037, -0.39537037037037037, -0.39537037037037037, -0.39537037037037037, -0.39537037037037037, -0.39537037037037037, -0.39537037037037037, -0.39537037037037037, -0.39537037037037037, -0.39537037037037037, -0.39537037037037037, -0.39537037037037037, -0.39537037037037037, -0.39537037037037037, -0.39537037037037037, -0.39537037037037037]"	"[1, 1, 1, 1, 1, 1, 1, 1, 1, 1, 1, 1, 1, 1, 1, 1, 1, 1, 1, 1, 1, 1, 1, 1, 1, 1, 1, 1, 1, 1, 1, 1, 1, 1, 0]"	"[0, 0, 0, 0, 0, 0, 0, 0, 0, 0, 0, 0, 0, 0, 0, 0, 0, 0, 0, 0, 0, 0, 0, 0, 0, 0, 0, 0, 0, 0, 0, 0, 0, 0, 0]"	"[0, 0, 0, 0, 0, 0, 0, 0, 0, 0, 0, 0, 0, 0, 0, 0, 0, 0, 0, 0, 0, 0, 0, 0, 0, 0, 0, 0, 0, 0, 0, 0, 0, 0, 1]"	"[0.31696569999985513, 0.5750441999989562, 0.8250616999994236, 1.0170545000000857, 1.2415784999993775, 1.4749142000000575, 1.700132300000405, 1.9103357000003598, 2.124931199999992, 2.3584704999993846, 2.5752771999996185, 2.8001667999997153, 3.0168515000004845, 3.2666477000002487, 3.483294899999237, 3.700034899999082, 3.9167426000003616, 4.133414500000072, 4.350260600000183, 4.567007499999818, 4.766941199999565, 4.975433600000542, 5.200338599999668, 5.417019499998787, 5.617071900000155, 5.8003728999992745, 6.00047319999976, 6.175514299999122, 6.358896800000366, 6.558962999999494, 6.72556749999967, 6.96712209999896, 7.175639600000068, 7.483711299999413, 8.125560299999051]"	35	"[0.31450410000070406, 0.5725802000015392, 0.8225952000011603, 1.0146241000002192, 1.2391050000005635, 1.4724378999999317, 1.6978401000014856, 1.9079853000002913, 2.122457999999824, 2.35600549999981, 2.572811800000636, 2.797736700000314, 3.0143822000009095, 3.264176700000462, 3.480821900000592, 3.6975606000014523, 3.9142667000014626, 4.1309531000006245, 4.347799099999975, 4.564534099999946, 4.764470200001597, 4.972978400001011, 5.197862900000473, 5.414549799999804, 5.614612900000793, 5.79789669999991, 5.998016700001244, 6.173048300001028, 6.356444400000328, 6.556521100001191, 6.723121700000775, 6.964643400000568, 7.173187200000029, 7.481235400000514, 8.123039500000232]"	"[0.4534136000002036, 0.7055945000010979, 0.9222508000002563, 1.1309677000008378, 1.3390078000011272, 1.5808814000010898, 1.7889917000011337, 1.997670000000653, 2.2140613999999914, 2.4557161000011547, 2.6890665000009903, 2.9140789000011864, 3.130742500001361, 3.364070300000094, 3.5807886000002327, 3.7974267000008695, 4.014100800000961, 4.255872300000192, 4.472681000001103, 4.680865000000267, 4.88085510000019, 5.097476599999936, 5.306016000000454, 5.522687800001222, 5.722649400000591, 5.906080500000826, 6.089401799999905, 6.289470800000345, 6.472819300000992, 6.656154600001173, 6.864348000000973, 7.106345800000781, 7.331075600000986, 7.589624100000947, 8.123044400001163]"	178.9263522	178.931113100001	180.4314075	180.4150871	NA	NA	NA	NA	NA	NA	NA	31	"01"	"2024-02-21_11h05.29.558"	"BART_exp"	"2023.2.3"	122.439484284005	"2024-02-21 11h05.49.137243 +0100"	NA
"balloon.png"	57	0	18	18	13	180.4314075	NA	NA	NA	NA	NA	NA	NA	NA	NA	NA	NA	NA	180.4152999	180.4314075	180.4314075	180.4314075	180.4314075	180.4314075	0.00516669999888108	0.00516669999888108	0.00516669999888108	180.4314075	186.225275000001	21	1.05	FALSE	"[0.023148148148148147, 0.023148148148148147, 0.023148148148148147, 0.023148148148148147, 0.023148148148148147, 0.023148148148148147, 0.023148148148148147, 0.023148148148148147, 0.023148148148148147, 0.023148148148148147, 0.023148148148148147, 0.023148148148148147, 0.023148148148148147, 0.023148148148148147, 0.023148148148148147, 0.023148148148148147, 0.023148148148148147, 0.023148148148148147, 0.023148148148148147, 0.023148148148148147, 0.023148148148148147, 0.023148148148148147]"	"[-0.39537037037037037, -0.39537037037037037, -0.39537037037037037, -0.39537037037037037, -0.39537037037037037, -0.39537037037037037, -0.39537037037037037, -0.39537037037037037, -0.39537037037037037, -0.39537037037037037, -0.39537037037037037, -0.39537037037037037, -0.39537037037037037, -0.39537037037037037, -0.39537037037037037, -0.39537037037037037, -0.39537037037037037, -0.39537037037037037, -0.39537037037037037, -0.39537037037037037, -0.39537037037037037, -0.39537037037037037]"	"[1, 1, 1, 1, 1, 1, 1, 1, 1, 1, 1, 1, 1, 1, 1, 1, 1, 1, 1, 1, 1, 0]"	"[0, 0, 0, 0, 0, 0, 0, 0, 0, 0, 0, 0, 0, 0, 0, 0, 0, 0, 0, 0, 0, 0]"	"[0, 0, 0, 0, 0, 0, 0, 0, 0, 0, 0, 0, 0, 0, 0, 0, 0, 0, 0, 0, 0, 1]"	"[0.6751810999994632, 0.9085979999999836, 1.1503037000002223, 1.4000907999998162, 1.6584094999998342, 1.9004211999999825, 2.1419636999999057, 2.3671090999996522, 2.6251412000001437, 2.8502781000006507, 3.0836127000002307, 3.3171239999992395, 3.5420532999996794, 3.7754439000000275, 3.983953400000246, 4.18392219999987, 4.375443700000687, 4.575467799999387, 4.783904800000528, 4.94225809999989, 5.125655100000586, 5.808873699999822]"	22	"[0.6728547999991861, 0.9062670999992406, 1.1479499999986729, 1.397728999998435, 1.656091099999685, 1.898095499998817, 2.1396444999991218, 2.364778099999967, 2.622788299999229, 2.84792699999889, 3.0812576999996963, 3.3147813999985374, 3.539697399999568, 3.773096799999621, 3.9816170999984024, 4.181581899998491, 4.373082999998587, 4.573105099998429, 4.781553299999359, 4.939942499999233, 5.123319499998615, 5.80645149999873]"	"[0.7809505999994144, 1.0143473999996786, 1.2726763999999093, 1.5061145999989094, 1.7753319999992527, 2.0226168999997753, 2.2392832999994425, 2.4977951999990182, 2.7334118999988277, 2.9560520999984874, 3.1978720999995858, 3.431166200000007, 3.647842699998364, 3.864680699998644, 4.0894217999994, 4.272857299998577, 4.472831600000063, 4.67296129999886, 4.872916199999963, 5.056302599999981, 5.264724399999977, 5.806456199999957]"	186.226366700001	186.2316553	187.7236419	187.7156817	NA	NA	NA	NA	NA	NA	NA	31	"01"	"2024-02-21_11h05.29.558"	"BART_exp"	"2023.2.3"	122.439484284005	"2024-02-21 11h05.49.137243 +0100"	NA
"balloon.png"	36	0	19	19	8	187.7236419	NA	NA	NA	NA	NA	NA	NA	NA	NA	NA	NA	NA	187.715900500001	187.7236419	187.7236419	187.7236419	187.7236419	187.7236419	0.00541420000081416	0.00541420000081416	0.00541420000081416	187.7236419	196.817534900001	36	1.8	FALSE	"[0.023148148148148147, 0.022222222222222223, 0.022222222222222223, 0.022222222222222223, 0.022222222222222223, 0.022222222222222223, 0.022222222222222223, 0.022222222222222223, 0.022222222222222223, 0.022222222222222223, 0.022222222222222223, 0.022222222222222223, 0.022222222222222223, 0.022222222222222223, 0.022222222222222223, 0.022222222222222223, 0.022222222222222223, 0.022222222222222223, 0.022222222222222223, 0.022222222222222223, 0.022222222222222223, 0.022222222222222223, 0.022222222222222223, 0.022222222222222223, 0.022222222222222223, 0.022222222222222223, 0.022222222222222223, 0.022222222222222223, 0.022222222222222223, 0.022222222222222223, 0.022222222222222223, 0.022222222222222223, 0.022222222222222223, 0.022222222222222223, 0.022222222222222223, 0.022222222222222223, 0.022222222222222223]"	"[-0.39537037037037037, -0.3962962962962963, -0.3962962962962963, -0.3962962962962963, -0.3962962962962963, -0.3962962962962963, -0.3962962962962963, -0.3962962962962963, -0.3962962962962963, -0.3962962962962963, -0.3962962962962963, -0.3962962962962963, -0.3962962962962963, -0.3962962962962963, -0.3962962962962963, -0.3962962962962963, -0.3962962962962963, -0.3962962962962963, -0.3962962962962963, -0.3962962962962963, -0.3962962962962963, -0.3962962962962963, -0.3962962962962963, -0.3962962962962963, -0.3962962962962963, -0.3962962962962963, -0.3962962962962963, -0.3962962962962963, -0.3962962962962963, -0.3962962962962963, -0.3962962962962963, -0.3962962962962963, -0.3962962962962963, -0.3962962962962963, -0.3962962962962963, -0.3962962962962963, -0.3962962962962963]"	"[1, 1, 1, 1, 1, 1, 1, 1, 1, 1, 1, 1, 1, 1, 1, 1, 1, 1, 1, 1, 1, 1, 1, 1, 1, 1, 1, 1, 1, 1, 1, 1, 1, 1, 1, 1, 0]"	"[0, 0, 0, 0, 0, 0, 0, 0, 0, 0, 0, 0, 0, 0, 0, 0, 0, 0, 0, 0, 0, 0, 0, 0, 0, 0, 0, 0, 0, 0, 0, 0, 0, 0, 0, 0, 0]"	"[0, 0, 0, 0, 0, 0, 0, 0, 0, 0, 0, 0, 0, 0, 0, 0, 0, 0, 0, 0, 0, 0, 0, 0, 0, 0, 0, 0, 0, 0, 0, 0, 0, 0, 0, 0, 1]"	"[0.5836393999998108, 0.83383909999975, 1.1083508000010625, 1.4085360000008222, 1.6749877000002016, 1.9416739999996935, 2.241968399999678, 2.4837739000013244, 2.7084075000002485, 2.950293400001101, 3.2003731000004336, 3.417110300000786, 3.775193900000886, 3.95858810000027, 4.166857800000798, 4.325377099999969, 4.491899200000262, 4.667023800000607, 4.825499000000491, 5.067037700000583, 5.308770400000867, 5.4753352000007, 5.716929399999572, 5.908605800001169, 6.108788999999888, 6.292119499999899, 6.483773600000859, 6.692061300000205, 6.908735200000592, 7.3923427000008815, 7.584020300000702, 7.767174200000227, 7.958929200000057, 8.15046860000075, 8.317224800000986, 8.51713650000056, 9.100563699999839]"	37	"[0.5812986999990244, 0.8314844999986235, 1.1060060999989219, 1.406190499999866, 1.672626699999455, 1.9393158000002586, 2.2396221999988484, 2.4815533999990294, 2.706062199998996, 2.9480132999997295, 3.198105499999656, 3.4148378999998386, 3.7728381999986595, 3.9562268999998196, 4.164495899998656, 4.323015899999518, 4.489544099998966, 4.664663899999141, 4.823178699998607, 5.064677000000302, 5.306412299998556, 5.472985899999912, 5.714567699998952, 5.9062478999985615, 6.106427799999437, 6.289756599999237, 6.481424499999775, 6.689697399999204, 6.90637229999993, 7.389997399999629, 7.581672999998773, 7.764814299998761, 7.956565899999987, 8.148126000000047, 8.314872199998717, 8.51477309999973, 9.098156000000017]"	"[0.7058373999989271, 0.9725014999985433, 1.231307399999423, 1.5226062999990972, 1.7892351999998937, 2.055918299998666, 2.3439254999993864, 2.589268899999297, 2.814426699998876, 3.0726661999997305, 3.32269610000003, 3.539367100000163, 3.8811791999996785, 4.064311699999962, 4.247664599999553, 4.414325199999439, 4.597673899999791, 4.764267399999881, 4.9895829999986745, 5.264458300000115, 5.364418099999966, 5.681112199999916, 5.831184900000153, 6.031163199999355, 6.19786589999967, 6.406209699998726, 6.606251399998655, 6.814592299999276, 7.022983400000157, 7.506374099999448, 7.689713399999164, 7.864649399998598, 8.048163800000111, 8.231338699999469, 8.414678600000116, 8.623305399998571, 9.098160599998664]"	196.8190213	196.824639100001	198.316673000001	198.3085586	NA	NA	NA	NA	NA	NA	NA	31	"01"	"2024-02-21_11h05.29.558"	"BART_exp"	"2023.2.3"	122.439484284005	"2024-02-21 11h05.49.137243 +0100"	NA
"balloon.png"	127	0	20	20	29	198.316673000001	NA	NA	NA	NA	NA	NA	NA	NA	NA	NA	NA	NA	198.3088874	198.316673000001	198.316673000001	198.316673000001	198.316673000001	198.316673000001	0.00514170000133162	0.00514170000133162	0.00514170000133162	198.316673000001	206.8689691	31	1.55	FALSE	"[0.022222222222222223, 0.022222222222222223, 0.022222222222222223, 0.022222222222222223, 0.022222222222222223, 0.022222222222222223, 0.022222222222222223, 0.022222222222222223, 0.022222222222222223, 0.022222222222222223, 0.022222222222222223, 0.022222222222222223, 0.022222222222222223, 0.022222222222222223, 0.022222222222222223, 0.022222222222222223, 0.022222222222222223, 0.022222222222222223, 0.022222222222222223, 0.022222222222222223, 0.022222222222222223, 0.022222222222222223, 0.022222222222222223, 0.022222222222222223, 0.022222222222222223, 0.022222222222222223, 0.022222222222222223, 0.022222222222222223, 0.022222222222222223, 0.022222222222222223, 0.022222222222222223, 0.022222222222222223]"	"[-0.3962962962962963, -0.3962962962962963, -0.3962962962962963, -0.3962962962962963, -0.3962962962962963, -0.3962962962962963, -0.3962962962962963, -0.3962962962962963, -0.3962962962962963, -0.3962962962962963, -0.3962962962962963, -0.3962962962962963, -0.3962962962962963, -0.3962962962962963, -0.3962962962962963, -0.3962962962962963, -0.3962962962962963, -0.3962962962962963, -0.3962962962962963, -0.3962962962962963, -0.3962962962962963, -0.3962962962962963, -0.3962962962962963, -0.3962962962962963, -0.3962962962962963, -0.3962962962962963, -0.3962962962962963, -0.3962962962962963, -0.3962962962962963, -0.3962962962962963, -0.3962962962962963, -0.3962962962962963]"	"[1, 1, 1, 1, 1, 1, 1, 1, 1, 1, 1, 1, 1, 1, 1, 1, 1, 1, 1, 1, 1, 1, 1, 1, 1, 1, 1, 1, 1, 1, 1, 0]"	"[0, 0, 0, 0, 0, 0, 0, 0, 0, 0, 0, 0, 0, 0, 0, 0, 0, 0, 0, 0, 0, 0, 0, 0, 0, 0, 0, 0, 0, 0, 0, 0]"	"[0, 0, 0, 0, 0, 0, 0, 0, 0, 0, 0, 0, 0, 0, 0, 0, 0, 0, 0, 0, 0, 0, 0, 0, 0, 0, 0, 0, 0, 0, 0, 1]"	"[0.6996510999997554, 0.9499900000009802, 1.1577385000000504, 1.3913162000008015, 1.6164152000001195, 1.8246479000008549, 2.0413810000009107, 2.249671600000511, 2.4496701000007306, 2.6330125000004045, 2.8247566999998526, 3.033047400000214, 3.258153400000083, 3.491256900000735, 3.7328733000013017, 3.9662583000008453, 4.19157610000002, 4.433122899999944, 4.658308699999907, 4.899632300001031, 5.141442000000097, 5.375037900001189, 5.616593800001283, 5.841797200000656, 6.074827800001003, 6.299797800000306, 6.541605500000514, 7.20006960000137, 7.433437000001504, 7.649952600000688, 7.808602600000086, 8.55888010000126]"	32	"[0.697170699999333, 0.9474924999994982, 1.155225700000301, 1.3888303000003361, 1.6139802999987296, 1.822135200000048, 2.0388750999991316, 2.2471941000003426, 2.44717159999891, 2.6305087999990064, 2.8222554000003583, 3.0305432000004657, 3.2556547000003775, 3.4887423000000126, 3.730367299998761, 3.9637413999989803, 4.189088099999935, 4.430616399999053, 4.655810000000201, 4.897118400000181, 5.138929200000348, 5.372545299998819, 5.614083700000265, 5.839302599999428, 6.072321499999816, 6.297287600000345, 6.539104999999836, 7.1975698999995075, 7.4309346999998525, 7.647438799998781, 7.8061270999987755, 8.556321000000025]"	"[0.8051150999999663, 1.0469680999995035, 1.2635780000000523, 1.4968607999999222, 1.7135375999987446, 1.9302296999994724, 2.1219232000003103, 2.3385981999999785, 2.538597499999014, 2.713533299998744, 2.9135597000004054, 3.1386251999992965, 3.3636623000002146, 3.5969196999994892, 3.840350499998749, 4.088755900000251, 4.3302772999995796, 4.555520199999592, 4.788937600000281, 5.030372100000022, 5.255490899999131, 5.5137895999996545, 5.738886999999522, 5.972247699999571, 6.17231720000018, 6.422304300000178, 6.647216999999728, 7.305690799999866, 7.555777300000045, 7.739110499998787, 7.93066749999889, 8.556325800000195]"	206.870427600001	206.8748483	208.3749979	208.3586753	NA	NA	NA	NA	NA	NA	NA	31	"01"	"2024-02-21_11h05.29.558"	"BART_exp"	"2023.2.3"	122.439484284005	"2024-02-21 11h05.49.137243 +0100"	NA
"balloon.png"	101	0	21	21	23	208.3749979	NA	NA	NA	NA	NA	NA	NA	NA	NA	NA	NA	NA	208.358912600001	208.3749979	208.3749979	208.3749979	208.3749979	208.3749979	0.00466339999911724	0.00466339999911724	0.00466339999911724	208.3749979	214.060775600001	20	1	FALSE	"[0.022222222222222223, 0.022222222222222223, 0.022222222222222223, 0.022222222222222223, 0.022222222222222223, 0.022222222222222223, 0.022222222222222223, 0.022222222222222223, 0.022222222222222223, 0.022222222222222223, 0.022222222222222223, 0.022222222222222223, 0.022222222222222223, 0.022222222222222223, 0.022222222222222223, 0.022222222222222223, 0.022222222222222223, 0.022222222222222223, 0.022222222222222223, 0.022222222222222223, 0.022222222222222223]"	"[-0.3962962962962963, -0.3962962962962963, -0.3962962962962963, -0.3962962962962963, -0.3962962962962963, -0.3962962962962963, -0.3962962962962963, -0.3962962962962963, -0.3962962962962963, -0.3962962962962963, -0.3962962962962963, -0.3962962962962963, -0.3962962962962963, -0.3962962962962963, -0.3962962962962963, -0.3962962962962963, -0.3962962962962963, -0.3962962962962963, -0.3962962962962963, -0.3962962962962963, -0.3962962962962963]"	"[1, 1, 1, 1, 1, 1, 1, 1, 1, 1, 1, 1, 1, 1, 1, 1, 1, 1, 1, 1, 0]"	"[0, 0, 0, 0, 0, 0, 0, 0, 0, 0, 0, 0, 0, 0, 0, 0, 0, 0, 0, 0, 0]"	"[0, 0, 0, 0, 0, 0, 0, 0, 0, 0, 0, 0, 0, 0, 0, 0, 0, 0, 0, 0, 1]"	"[0.5753100000001723, 0.8250898999995115, 1.0835334000003058, 1.3003153999998176, 1.6099816000005376, 1.816797100000258, 2.0251097999989724, 2.2418158000000403, 2.491793699999107, 2.7338344999989204, 3.0005122000002302, 3.2503483000000415, 3.4670709000001807, 3.7088094999999157, 3.9505491999989317, 4.392224299999725, 4.692006699999183, 4.867114599999695, 5.0171154999989085, 5.192270499999722, 5.700726600000053]"	21	"[0.5729241999997612, 0.8226988999995228, 1.0811100999999326, 1.2978902999984712, 1.6075856999996176, 1.8143748999991658, 2.022671699998682, 2.2393808999986504, 2.4893584999990708, 2.731417599999986, 2.99810350000007, 3.2479100999989896, 3.4646382999999332, 3.7063832999992883, 3.9481378000000404, 4.389800999999352, 4.689570999998978, 4.86468479999894, 5.014684599998873, 5.189839299999221, 5.69824079999853]"	"[0.6976399999985006, 0.9641979999996693, 1.1892363999995723, 1.497636899999634, 1.7225877000000764, 1.914324299999862, 2.1393171999989136, 2.355933199998617, 2.614413199999035, 2.872667799998453, 3.1226845999990474, 3.3726880999984132, 3.6143683999998757, 3.8477485999992496, 4.0894743999997445, 4.539476299998569, 4.797980100000132, 4.956185299999561, 5.114647099999274, 5.297948899999028, 5.698245399998996]"	214.061856800001	214.0669122	215.559227400001	215.5509062	NA	NA	NA	NA	NA	NA	NA	31	"01"	"2024-02-21_11h05.29.558"	"BART_exp"	"2023.2.3"	122.439484284005	"2024-02-21 11h05.49.137243 +0100"	NA
"balloon.png"	92	0	22	22	21	215.559227400001	NA	NA	NA	NA	NA	NA	NA	NA	NA	NA	NA	NA	215.551124200001	215.559227400001	215.559227400001	215.559227400001	215.559227400001	215.559227400001	0.00517989999934798	0.00517989999934798	0.00517989999934798	215.559227400001	230.596458	43	2.15	FALSE	"[0.022222222222222223, 0.022222222222222223, 0.022222222222222223, 0.022222222222222223, 0.022222222222222223, 0.022222222222222223, 0.022222222222222223, 0.022222222222222223, 0.022222222222222223, 0.022222222222222223, 0.022222222222222223, 0.022222222222222223, 0.022222222222222223, 0.022222222222222223, 0.022222222222222223, 0.022222222222222223, 0.022222222222222223, 0.022222222222222223, 0.022222222222222223, 0.022222222222222223, 0.022222222222222223, 0.022222222222222223, 0.022222222222222223, 0.022222222222222223, 0.022222222222222223, 0.022222222222222223, 0.022222222222222223, 0.022222222222222223, 0.022222222222222223, 0.022222222222222223, 0.022222222222222223, 0.022222222222222223, 0.022222222222222223, 0.022222222222222223, 0.022222222222222223, 0.022222222222222223, 0.022222222222222223, 0.022222222222222223, 0.022222222222222223, 0.022222222222222223, 0.022222222222222223, 0.022222222222222223, 0.022222222222222223, 0.022222222222222223]"	"[-0.3962962962962963, -0.3962962962962963, -0.3962962962962963, -0.3962962962962963, -0.3962962962962963, -0.3962962962962963, -0.3962962962962963, -0.3962962962962963, -0.3962962962962963, -0.3962962962962963, -0.3962962962962963, -0.3962962962962963, -0.3962962962962963, -0.3962962962962963, -0.3962962962962963, -0.3962962962962963, -0.3962962962962963, -0.3962962962962963, -0.3962962962962963, -0.3962962962962963, -0.3962962962962963, -0.3962962962962963, -0.3962962962962963, -0.3962962962962963, -0.3962962962962963, -0.3962962962962963, -0.3962962962962963, -0.3962962962962963, -0.3962962962962963, -0.3962962962962963, -0.3962962962962963, -0.3962962962962963, -0.3962962962962963, -0.3962962962962963, -0.3962962962962963, -0.3962962962962963, -0.3962962962962963, -0.3962962962962963, -0.3962962962962963, -0.3962962962962963, -0.3962962962962963, -0.3962962962962963, -0.3962962962962963, -0.3962962962962963]"	"[1, 1, 1, 1, 1, 1, 1, 1, 1, 1, 1, 1, 1, 1, 1, 1, 1, 1, 1, 1, 1, 1, 1, 1, 1, 1, 1, 1, 1, 1, 1, 1, 1, 1, 1, 1, 1, 1, 1, 1, 1, 1, 1, 0]"	"[0, 0, 0, 0, 0, 0, 0, 0, 0, 0, 0, 0, 0, 0, 0, 0, 0, 0, 0, 0, 0, 0, 0, 0, 0, 0, 0, 0, 0, 0, 0, 0, 0, 0, 0, 0, 0, 0, 0, 0, 0, 0, 0, 0]"	"[0, 0, 0, 0, 0, 0, 0, 0, 0, 0, 0, 0, 0, 0, 0, 0, 0, 0, 0, 0, 0, 0, 0, 0, 0, 0, 0, 0, 0, 0, 0, 0, 0, 0, 0, 0, 0, 0, 0, 0, 0, 0, 0, 1]"	"[4.258562799999709, 4.50052549999964, 4.734041100000468, 4.958776299999954, 5.21712800000023, 5.47527590000027, 5.708943100000397, 5.950635199998942, 6.1840171000003465, 6.400511199999528, 6.625444699999207, 6.8588352000006125, 7.100871900000129, 7.325782500000059, 7.584091499998976, 7.800620800000615, 7.992194799999197, 8.19219829999929, 8.425608999999895, 8.667503299999225, 8.875636400000076, 9.07560150000063, 9.275641899999755, 9.484708699999828, 9.718193400000018, 9.925866600000518, 10.142607800000405, 10.359188899999936, 10.58427599999959, 10.811170299999503, 11.02574629999981, 11.209086299999399, 11.375988300000245, 11.592462099999466, 11.817440099999658, 12.025860699999612, 12.250780099999247, 12.484179600000061, 12.69272490000003, 12.93437559999984, 13.417526999999609, 13.825998899999831, 14.309476500000528, 15.043981099999655]"	44	"[4.256017300000167, 4.498001600000862, 4.73152360000131, 4.956228400000327, 5.2145848000000115, 5.472734000000855, 5.706424900001366, 5.9481019000013475, 6.181486900000891, 6.397993600001428, 6.622901000000638, 6.856298100001368, 7.098363700000846, 7.323255100000097, 7.581565800001044, 7.79807510000137, 7.989654300001348, 8.189658400000553, 8.423066600000311, 8.664971200001673, 8.873092200001338, 9.073060800001258, 9.273101300001144, 9.482199300000502, 9.715698600000906, 9.923338800001147, 10.140079900000273, 10.356648500001029, 10.581785500000478, 10.80862420000085, 11.023202900001706, 11.206544500000746, 11.373447900001338, 11.589920000000347, 11.814914000000499, 12.02332110000134, 12.248251600000003, 12.481634000001577, 12.690195400000448, 12.93184090000068, 13.414985600000364, 13.82345930000156, 14.306960400001117, 15.041532500001267]"	"[4.355930500001705, 4.59773640000094, 4.831136500000866, 5.089301600000908, 5.339319100001376, 5.58114360000036, 5.822729500001515, 6.072762500001772, 6.281171300001006, 6.50614300000052, 6.75636300000042, 6.983276200000546, 7.214617100000396, 7.456201200000578, 7.689539500001047, 7.898151000001235, 8.09307870000157, 8.306210500000816, 8.531455600001209, 8.764861200001178, 8.948344900001757, 9.156335400000899, 9.415214800001195, 9.61511470000005, 9.848312500000247, 10.04832130000068, 10.256380900000295, 10.4650115000004, 10.681581300001199, 10.906396800000948, 11.114742400000978, 11.289799100000891, 11.481462800000372, 11.723236500001804, 11.95076230000086, 12.148047000000588, 12.36481940000158, 12.589887400001317, 12.80664810000053, 13.014888300000166, 13.515006500001618, 13.931591800001115, 14.42388370000117, 15.041540400001395]"	230.597900800001	230.6021019	232.093387500001	232.085360200001	NA	NA	NA	NA	NA	NA	NA	31	"01"	"2024-02-21_11h05.29.558"	"BART_exp"	"2023.2.3"	122.439484284005	"2024-02-21 11h05.49.137243 +0100"	NA
"balloon.png"	114	0	23	23	26	232.093387500001	NA	NA	NA	NA	NA	NA	NA	NA	NA	NA	NA	NA	232.085581900001	232.093387500001	232.093387500001	232.093387500001	232.093387500001	232.093387500001	0.0035822999998345	0.0035822999998345	0.0035822999998345	232.093387500001	243.197929	41	2.05	FALSE	"[0.022222222222222223, 0.022222222222222223, 0.022222222222222223, 0.022222222222222223, 0.022222222222222223, 0.022222222222222223, 0.022222222222222223, 0.022222222222222223, 0.022222222222222223, 0.022222222222222223, 0.022222222222222223, 0.022222222222222223, 0.022222222222222223, 0.022222222222222223, 0.022222222222222223, 0.022222222222222223, 0.022222222222222223, 0.022222222222222223, 0.022222222222222223, 0.022222222222222223, 0.022222222222222223, 0.022222222222222223, 0.022222222222222223, 0.022222222222222223, 0.022222222222222223, 0.022222222222222223, 0.022222222222222223, 0.022222222222222223, 0.022222222222222223, 0.022222222222222223, 0.022222222222222223, 0.022222222222222223, 0.022222222222222223, 0.022222222222222223, 0.022222222222222223, 0.022222222222222223, 0.022222222222222223, 0.022222222222222223, 0.022222222222222223, 0.022222222222222223, 0.022222222222222223, 0.022222222222222223]"	"[-0.3962962962962963, -0.3962962962962963, -0.3962962962962963, -0.3962962962962963, -0.3962962962962963, -0.3962962962962963, -0.3962962962962963, -0.3962962962962963, -0.3962962962962963, -0.3962962962962963, -0.3962962962962963, -0.3962962962962963, -0.3962962962962963, -0.3962962962962963, -0.3962962962962963, -0.3962962962962963, -0.3962962962962963, -0.3962962962962963, -0.3962962962962963, -0.3962962962962963, -0.3962962962962963, -0.3962962962962963, -0.3962962962962963, -0.3962962962962963, -0.3962962962962963, -0.3962962962962963, -0.3962962962962963, -0.3962962962962963, -0.3962962962962963, -0.3962962962962963, -0.3962962962962963, -0.3962962962962963, -0.3962962962962963, -0.3962962962962963, -0.3962962962962963, -0.3962962962962963, -0.3962962962962963, -0.3962962962962963, -0.3962962962962963, -0.3962962962962963, -0.3962962962962963, -0.3962962962962963]"	"[1, 1, 1, 1, 1, 1, 1, 1, 1, 1, 1, 1, 1, 1, 1, 1, 1, 1, 1, 1, 1, 1, 1, 1, 1, 1, 1, 1, 1, 1, 1, 1, 1, 1, 1, 1, 1, 1, 1, 1, 1, 0]"	"[0, 0, 0, 0, 0, 0, 0, 0, 0, 0, 0, 0, 0, 0, 0, 0, 0, 0, 0, 0, 0, 0, 0, 0, 0, 0, 0, 0, 0, 0, 0, 0, 0, 0, 0, 0, 0, 0, 0, 0, 0, 0]"	"[0, 0, 0, 0, 0, 0, 0, 0, 0, 0, 0, 0, 0, 0, 0, 0, 0, 0, 0, 0, 0, 0, 0, 0, 0, 0, 0, 0, 0, 0, 0, 0, 0, 0, 0, 0, 0, 0, 0, 0, 0, 1]"	"[1.0667401000009704, 1.3253813999999693, 1.5591436000013346, 1.8421599000012066, 2.08340760000101, 2.325495900000533, 2.5670643000012205, 2.817176800001107, 3.0668307000014465, 3.3001798000004783, 3.5252337000001717, 3.7754256000007445, 3.9936115000000427, 4.242212900000595, 4.508571500000471, 4.742094200000793, 4.9766091000001325, 5.192115700001523, 5.458601500000441, 5.733727500000896, 5.9673137000008865, 6.184061200001452, 6.425593400001162, 6.675384500000291, 6.908803900001658, 7.159003100001428, 7.409007900001598, 7.642161100000521, 7.875558800000363, 8.133985000000393, 8.375738500000807, 8.634050399999978, 8.858915300001172, 9.075591600001644, 9.300741000000926, 9.535641500000565, 9.77583610000147, 9.96774809999988, 10.151140300000407, 10.334516000000804, 10.501091800000722, 11.11130250000133]"	42	"[1.0644225999985792, 1.3230687999985093, 1.5568633999992016, 1.8398626999987755, 2.081091699999888, 2.323193499998524, 2.5647680000001856, 2.8148621000000276, 3.064513299999817, 3.2978736999994, 3.5229549999985466, 3.77316509999946, 3.991539599999669, 4.239952399999311, 4.506250200000068, 4.739789399998699, 4.97461469999871, 5.189807299999302, 5.456283099998473, 5.731407799999943, 5.965004699999554, 6.181760599998597, 6.423276299999998, 6.673061299999972, 6.90649829999893, 7.156705999999758, 7.406694100000095, 7.639839599998595, 7.87324339999941, 8.123291599998993, 8.3734244999996, 8.631734299999152, 8.856595199998992, 9.073274700000184, 9.298420799999803, 9.533329799998683, 9.773535799999081, 9.965464699998847, 10.14885559999857, 10.332223199999135, 10.498772299999473, 11.108916299999692]"	"[1.1895174999990559, 1.4310238999987632, 1.6564731999987998, 1.9309858999986318, 2.189752399999634, 2.4563022999991517, 2.6896407999993244, 2.922902799999065, 3.1729421, 3.4061865999992733, 3.664536999998745, 3.8811310999990383, 4.122794400000203, 4.356110400000034, 4.622829399999318, 4.864570399999138, 5.08953560000009, 5.331235899999228, 5.606216799998947, 5.864685999998983, 6.089577899998403, 6.314653100000214, 6.539646100000027, 6.764774499999476, 7.031401599999299, 7.289726299999529, 7.514760599999136, 7.757142200000089, 7.9983256999985315, 8.256416299998818, 8.498248399999284, 8.739827899999, 8.956560799999352, 9.181639599999471, 9.406524199999694, 9.648372399999062, 9.881707799999276, 10.064757699999973, 10.265175900000031, 10.43198879999909, 10.606595399998696, 11.108921199998804]"	243.199371300001	243.204163	244.696212300001	244.6884149	NA	NA	NA	NA	NA	NA	NA	31	"01"	"2024-02-21_11h05.29.558"	"BART_exp"	"2023.2.3"	122.439484284005	"2024-02-21 11h05.49.137243 +0100"	NA
"balloon.png"	66	0	24	24	15	244.696212300001	NA	NA	NA	NA	NA	NA	NA	NA	NA	NA	NA	NA	244.688703100001	244.696212300001	244.696212300001	244.696212300001	244.696212300001	244.696212300001	0.0030005999997229	0.0030005999997229	0.0030005999997229	244.696212300001	250.554570600001	19	0.95	FALSE	"[0.022222222222222223, 0.022222222222222223, 0.022222222222222223, 0.022222222222222223, 0.022222222222222223, 0.022222222222222223, 0.022222222222222223, 0.022222222222222223, 0.022222222222222223, 0.022222222222222223, 0.022222222222222223, 0.022222222222222223, 0.022222222222222223, 0.022222222222222223, 0.022222222222222223, 0.022222222222222223, 0.022222222222222223, 0.022222222222222223, 0.022222222222222223, 0.022222222222222223]"	"[-0.3962962962962963, -0.3962962962962963, -0.3962962962962963, -0.3962962962962963, -0.3962962962962963, -0.3962962962962963, -0.3962962962962963, -0.3962962962962963, -0.3962962962962963, -0.3962962962962963, -0.3962962962962963, -0.3962962962962963, -0.3962962962962963, -0.3962962962962963, -0.3962962962962963, -0.3962962962962963, -0.3962962962962963, -0.3962962962962963, -0.3962962962962963, -0.3962962962962963]"	"[1, 1, 1, 1, 1, 1, 1, 1, 1, 1, 1, 1, 1, 1, 1, 1, 1, 1, 1, 0]"	"[0, 0, 0, 0, 0, 0, 0, 0, 0, 0, 0, 0, 0, 0, 0, 0, 0, 0, 0, 0]"	"[0, 0, 0, 0, 0, 0, 0, 0, 0, 0, 0, 0, 0, 0, 0, 0, 0, 0, 0, 1]"	"[0.9143774999993184, 1.139638599999671, 1.3812801000003674, 1.6477412000003824, 1.8978418999995483, 2.122998599999846, 2.356506799998897, 2.6064439000001585, 2.84778919999917, 3.089708999999857, 3.314556999999695, 3.573179600000003, 3.822999300000447, 4.039718399999401, 4.247952800000348, 4.4897863999995025, 4.748225999999704, 4.981687299999976, 5.214703699999518, 5.864722099999199]"	20	"[0.9121046000000206, 1.1373696999999083, 1.3790263000009872, 1.6454720000001544, 1.8955686000008427, 2.1207357000002958, 2.3542355000008683, 2.60418910000044, 2.8455085000005056, 3.087435800000094, 3.312287799999467, 3.570918499999607, 3.8207225000005565, 4.037444699999469, 4.245677999999316, 4.487511299999824, 4.745956299999307, 4.979427899999791, 5.212422599999627, 5.862394499999937]"	"[1.0370297000008577, 1.2537420000007842, 1.512002699999357, 1.7788185000008525, 2.0204991000009613, 2.237114499999734, 2.487209200000507, 2.712080999999671, 2.970684199999596, 3.195493900000656, 3.4455541000006633, 3.7121824999994715, 3.9373209999994288, 4.154012099999818, 4.3541659000002255, 4.60405290000017, 4.870762700000341, 5.104148300000816, 5.304137200000696, 5.8623991000004025]"	250.5555719	250.561092	252.0541314	252.0455846	NA	NA	NA	NA	NA	NA	NA	31	"01"	"2024-02-21_11h05.29.558"	"BART_exp"	"2023.2.3"	122.439484284005	"2024-02-21 11h05.49.137243 +0100"	NA
"balloon.png"	14	0	25	25	3	252.0541314	NA	NA	NA	NA	NA	NA	NA	NA	NA	NA	NA	NA	252.045822300001	252.0541314	252.0541314	252.0541314	252.0541314	252.0541314	0.014171200000419	0.014171200000419	0.014171200000419	252.0541314	255.7302745	15	0.7	TRUE	"[0.022222222222222223, 0.022222222222222223, 0.022222222222222223, 0.022222222222222223, 0.022222222222222223, 0.022222222222222223, 0.022222222222222223, 0.022222222222222223, 0.022222222222222223, 0.022222222222222223, 0.022222222222222223, 0.022222222222222223, 0.022222222222222223, 0.022222222222222223, 0.022222222222222223]"	"[-0.3962962962962963, -0.3962962962962963, -0.3962962962962963, -0.3962962962962963, -0.3962962962962963, -0.3962962962962963, -0.3962962962962963, -0.3962962962962963, -0.3962962962962963, -0.3962962962962963, -0.3962962962962963, -0.3962962962962963, -0.3962962962962963, -0.3962962962962963, -0.3962962962962963]"	"[1, 1, 1, 1, 1, 1, 1, 1, 1, 1, 1, 1, 1, 1, 1]"	"[0, 0, 0, 0, 0, 0, 0, 0, 0, 0, 0, 0, 0, 0, 0]"	"[0, 0, 0, 0, 0, 0, 0, 0, 0, 0, 0, 0, 0, 0, 0]"	"[0.5498606000001018, 0.7833728999994491, 1.0081073000001197, 1.2332609000004595, 1.4498512000009214, 1.6746287000005395, 1.8995434000007663, 2.118474900000365, 2.3246789000004355, 2.5413819999994303, 2.732956699999704, 2.932974400000603, 3.133010199999262, 3.3414443000001484, 3.5582895999996254]"	15	"[0.5388447999994241, 0.7809782999993331, 1.005640700001095, 1.2309464999998454, 1.4474692000003415, 1.6721570000008796, 1.8971041999993759, 2.1161902000003465, 2.3222096000008605, 2.5389092000004894, 2.7305099999994127, 2.930501799999547, 3.130541800001083, 3.3389783000002353, 3.555827300000601]"	"[0.655272199999672, 0.897211999999854, 1.1138135000001057, 1.3220447000003333, 1.5553624000003765, 1.780411699999604, 1.9970439999997325, 2.2136570000002393, 2.422136400000454, 2.6303931000002194, 2.838843800000177, 3.030424300000959, 3.230408299999908, 3.4471431000001758, 3.6721928999995725]"	255.731349200001	255.7364337	257.2285323	257.220373100001	NA	NA	NA	NA	NA	NA	NA	31	"01"	"2024-02-21_11h05.29.558"	"BART_exp"	"2023.2.3"	122.439484284005	"2024-02-21 11h05.49.137243 +0100"	NA
"balloon.png"	71	0	26	26	16	257.2285323	NA	NA	NA	NA	NA	NA	NA	NA	NA	NA	NA	NA	257.2205882	257.2285323	257.2285323	257.2285323	257.2285323	257.2285323	0.00520209999922371	NA	NA	257.2285323	263.1974137	25	1.25	FALSE	"[0.022222222222222223, 0.022222222222222223, 0.022222222222222223, 0.022222222222222223, 0.022222222222222223, 0.022222222222222223, 0.022222222222222223, 0.022222222222222223, 0.022222222222222223, 0.022222222222222223, 0.022222222222222223, 0.022222222222222223, 0.022222222222222223, 0.022222222222222223, 0.022222222222222223, 0.022222222222222223, 0.022222222222222223, 0.022222222222222223, 0.022222222222222223, 0.022222222222222223, 0.022222222222222223, 0.022222222222222223, 0.022222222222222223, 0.022222222222222223, 0.022222222222222223, 0.022222222222222223]"	"[-0.3962962962962963, -0.3962962962962963, -0.3962962962962963, -0.3962962962962963, -0.3962962962962963, -0.3962962962962963, -0.3962962962962963, -0.3962962962962963, -0.3962962962962963, -0.3962962962962963, -0.3962962962962963, -0.3962962962962963, -0.3962962962962963, -0.3962962962962963, -0.3962962962962963, -0.3962962962962963, -0.3962962962962963, -0.3962962962962963, -0.3962962962962963, -0.3962962962962963, -0.3962962962962963, -0.3962962962962963, -0.3962962962962963, -0.3962962962962963, -0.3962962962962963, -0.3962962962962963]"	"[1, 1, 1, 1, 1, 1, 1, 1, 1, 1, 1, 1, 1, 1, 1, 1, 1, 1, 1, 1, 1, 1, 1, 1, 1, 0]"	"[0, 0, 0, 0, 0, 0, 0, 0, 0, 0, 0, 0, 0, 0, 0, 0, 0, 0, 0, 0, 0, 0, 0, 0, 0, 0]"	"[0, 0, 0, 0, 0, 0, 0, 0, 0, 0, 0, 0, 0, 0, 0, 0, 0, 0, 0, 0, 0, 0, 0, 0, 0, 1]"	"[0.550199999999677, 0.8005616999998892, 0.9753692999984196, 1.1672874999985652, 1.3502451999993355, 1.5336349999997765, 1.741920399999799, 1.9503038999991986, 2.1754578999989462, 2.442145099999834, 2.7757290999998077, 3.0008262999999715, 3.250832799998534, 3.4752923999985796, 3.6840774999982386, 3.884026299998368, 4.07527299999856, 4.283945799999856, 4.483871299999009, 4.658654099999694, 4.850930299999163, 5.058688399998573, 5.226388099999895, 5.417475599999307, 5.59226149999995, 5.97567379999964]"	26	"[0.547789999998713, 0.798179399998844, 0.9729730999988533, 1.1649125999992975, 1.3478314000003593, 1.5312299999986863, 1.7395018999995955, 1.94788779999908, 2.173052199999802, 2.4397361999999703, 2.773347399999693, 2.998447899999519, 3.2484265999992203, 3.472867899999983, 3.681675099998756, 3.8816108999999415, 4.072859599998992, 4.281531399999949, 4.481482999999571, 4.65623339999911, 4.848599299999478, 5.0562634999987495, 5.224182399999336, 5.415237100000013, 5.589843899999323, 5.973202399998627]"	"[0.6809553000002779, 0.8810493999990285, 1.0810387000001356, 1.2643763999985822, 1.4576703999991878, 1.6310725999992428, 1.8477657000003092, 2.0726853999985906, 2.3060485999994853, 2.5727262000000337, 2.8727308999987144, 3.1146470999992744, 3.356103799998891, 3.572806899999705, 3.781504299999142, 3.981603999998697, 4.172789500000363, 4.372837400000208, 4.572826999999961, 4.770724699999846, 4.9561751000001095, 5.13951139999881, 5.32291400000031, 5.531267000000298, 5.71457620000001, 5.9732074000003195]"	263.19858	263.2036128	264.6961242	264.6874862	NA	NA	NA	NA	NA	NA	NA	31	"01"	"2024-02-21_11h05.29.558"	"BART_exp"	"2023.2.3"	122.439484284005	"2024-02-21 11h05.49.137243 +0100"	NA
"balloon.png"	110	0	27	27	25	264.6961242	NA	NA	NA	NA	NA	NA	NA	NA	NA	NA	NA	NA	264.6876856	264.6961242	264.6961242	264.6961242	264.6961242	264.6961242	0.00515169999926001	0.00515169999926001	0.00515169999926001	264.6961242	271.414418100001	25	1.25	FALSE	"[0.022222222222222223, 0.022222222222222223, 0.022222222222222223, 0.022222222222222223, 0.022222222222222223, 0.022222222222222223, 0.022222222222222223, 0.022222222222222223, 0.022222222222222223, 0.022222222222222223, 0.022222222222222223, 0.022222222222222223, 0.022222222222222223, 0.022222222222222223, 0.022222222222222223, 0.022222222222222223, 0.022222222222222223, 0.022222222222222223, 0.022222222222222223, 0.022222222222222223, 0.022222222222222223, 0.022222222222222223, 0.022222222222222223, 0.022222222222222223, 0.022222222222222223, 0.022222222222222223]"	"[-0.3962962962962963, -0.3962962962962963, -0.3962962962962963, -0.3962962962962963, -0.3962962962962963, -0.3962962962962963, -0.3962962962962963, -0.3962962962962963, -0.3962962962962963, -0.3962962962962963, -0.3962962962962963, -0.3962962962962963, -0.3962962962962963, -0.3962962962962963, -0.3962962962962963, -0.3962962962962963, -0.3962962962962963, -0.3962962962962963, -0.3962962962962963, -0.3962962962962963, -0.3962962962962963, -0.3962962962962963, -0.3962962962962963, -0.3962962962962963, -0.3962962962962963, -0.3962962962962963]"	"[1, 1, 1, 1, 1, 1, 1, 1, 1, 1, 1, 1, 1, 1, 1, 1, 1, 1, 1, 1, 1, 1, 1, 1, 1, 0]"	"[0, 0, 0, 0, 0, 0, 0, 0, 0, 0, 0, 0, 0, 0, 0, 0, 0, 0, 0, 0, 0, 0, 0, 0, 0, 0]"	"[0, 0, 0, 0, 0, 0, 0, 0, 0, 0, 0, 0, 0, 0, 0, 0, 0, 0, 0, 0, 0, 0, 0, 0, 0, 1]"	"[0.6501055999997334, 0.8667879999993602, 1.100385699999606, 1.3671082000000752, 1.5837916000000405, 1.8253026000002137, 2.0670057000006636, 2.3005393000003096, 2.550570899999002, 2.8088556000002427, 3.0337251000000833, 3.242213100000299, 3.483679499999198, 3.6923597999993945, 3.917332200000601, 4.15061280000009, 4.383813299999019, 4.617154300000038, 4.817194799999925, 5.017192899998918, 5.209287899999254, 5.383923699999286, 5.6171873999992386, 5.833867699999246, 6.025773699999263, 6.725660199999766]"	26	"[0.6472331999993912, 0.8639193999988493, 1.0975207999999839, 1.3642572999997356, 1.58091979999881, 1.8224307999989833, 2.064141599999857, 2.297697899999548, 2.5477037000000564, 2.805985499999224, 3.0308654999989812, 3.2393450999989, 3.473081500000262, 3.689504500000112, 3.914471099998991, 4.147755199999665, 4.380939399999988, 4.614279999999781, 4.814335299999584, 5.014329499999803, 5.206435099998998, 5.381057700000383, 5.614330299998983, 5.830995399999665, 6.022932699999728, 6.722730800000136]"	"[0.7556867000002967, 0.963852400000178, 1.2139029999998456, 1.4556445999987773, 1.6723172000001796, 1.9306483999989723, 2.1640363999995316, 2.4224985999990167, 2.6807618999991973, 2.905917500000214, 3.1307161999993696, 3.364046299999245, 3.5892024000004312, 3.8058925999994244, 4.030786999999691, 4.255968699999357, 4.480792299998939, 4.706163999999262, 4.889523399999234, 5.105736399998932, 5.306312299999263, 5.506441399998948, 5.722857799999474, 5.930903099999341, 6.147562899999684, 6.72273529999984]"	271.415605800001	271.420921700001	272.921176600001	272.904813900001	NA	NA	NA	NA	NA	NA	NA	31	"01"	"2024-02-21_11h05.29.558"	"BART_exp"	"2023.2.3"	122.439484284005	"2024-02-21 11h05.49.137243 +0100"	NA
"balloon.png"	5	0	28	28	1	272.921176600001	NA	NA	NA	NA	NA	NA	NA	NA	NA	NA	NA	NA	272.9050463	272.921176600001	272.921176600001	272.921176600001	272.921176600001	272.921176600001	0.00565730000016628	0.00565730000016628	0.00565730000016628	272.921176600001	274.5482572	6	0.25	TRUE	"[0.022222222222222223, 0.022222222222222223, 0.022222222222222223, 0.022222222222222223, 0.022222222222222223, 0.022222222222222223]"	"[-0.3962962962962963, -0.3962962962962963, -0.3962962962962963, -0.3962962962962963, -0.3962962962962963, -0.3962962962962963]"	"[1, 1, 1, 1, 1, 1]"	"[0, 0, 0, 0, 0, 0]"	"[0, 0, 0, 0, 0, 0]"	"[0.35826319999978296, 0.6167444000002433, 0.8334304999989399, 1.0503917000005458, 1.2837684999994963, 1.525293700000475]"	6	"[0.3558799000002182, 0.6143630000005942, 0.8310404000003473, 1.0480392999998003, 1.2814087999995536, 1.522911899999599]"	"[0.48932910000075935, 0.7142531000008603, 0.9559494999994058, 1.164422600000762, 1.3979302999996435, 1.631148000000394]"	274.548997	274.554456900001	276.0464471	276.038381100001	NA	NA	NA	NA	NA	NA	NA	31	"01"	"2024-02-21_11h05.29.558"	"BART_exp"	"2023.2.3"	122.439484284005	"2024-02-21 11h05.49.137243 +0100"	NA
"balloon.png"	18	0	29	29	4	276.0464471	NA	NA	NA	NA	NA	NA	NA	NA	NA	NA	NA	NA	276.0385933	276.0464471	276.0464471	276.0464471	276.0464471	276.0464471	0.00552069999866944	NA	NA	276.0464471	280.765808100001	19	0.9	TRUE	"[0.022222222222222223, 0.022222222222222223, 0.022222222222222223, 0.022222222222222223, 0.022222222222222223, 0.022222222222222223, 0.022222222222222223, 0.022222222222222223, 0.022222222222222223, 0.022222222222222223, 0.022222222222222223, 0.022222222222222223, 0.022222222222222223, 0.022222222222222223, 0.022222222222222223, 0.022222222222222223, 0.022222222222222223, 0.022222222222222223, 0.022222222222222223]"	"[-0.3962962962962963, -0.3962962962962963, -0.3962962962962963, -0.3962962962962963, -0.3962962962962963, -0.3962962962962963, -0.3962962962962963, -0.3962962962962963, -0.3962962962962963, -0.3962962962962963, -0.3962962962962963, -0.3962962962962963, -0.3962962962962963, -0.3962962962962963, -0.3962962962962963, -0.3962962962962963, -0.3962962962962963, -0.3962962962962963, -0.3962962962962963]"	"[1, 1, 1, 1, 1, 1, 1, 1, 1, 1, 1, 1, 1, 1, 1, 1, 1, 1, 1]"	"[0, 0, 0, 0, 0, 0, 0, 0, 0, 0, 0, 0, 0, 0, 0, 0, 0, 0, 0]"	"[0, 0, 0, 0, 0, 0, 0, 0, 0, 0, 0, 0, 0, 0, 0, 0, 0, 0, 0]"	"[0.5001642000006541, 0.7002126000006683, 0.8934210000006715, 1.1084546000001865, 1.3002240999994683, 1.508508900000379, 1.7338411000000633, 1.9671926999999414, 2.204746100000193, 2.429847100000188, 2.663097000000562, 2.9006798999998864, 3.20081829999981, 3.425228399999469, 3.625309200000629, 3.841957700000421, 4.091946700000335, 4.342177900000024, 4.608720000000176]"	19	"[0.49772459999985585, 0.6977953999994497, 0.8909777999997459, 1.1060381999996025, 1.2977894999985438, 1.5060843999999634, 1.7314323999999033, 1.9647938999987673, 2.20233189999999, 2.4274119999990944, 2.6606542999998055, 2.898250599999301, 3.1984266999988904, 3.4227952000001096, 3.622866599998815, 3.8395160000000033, 4.089521500000046, 4.339765099999568, 4.606277599999885]"	"[0.5976824999997916, 0.7893078999986756, 0.9977407999995194, 1.1976705999986734, 1.3976733999988937, 1.6143823000002158, 1.8479645999996137, 2.081187499999942, 2.310514199998579, 2.5437208999992436, 2.764821499999016, 2.990307299998676, 3.2982195999993564, 3.522735399999874, 3.731233099999372, 3.9479753999985405, 4.189501299999392, 4.447804699999324, 4.714473099998941]"	280.7667974	280.771529900001	282.263498600001	282.257291900001	NA	NA	NA	NA	NA	NA	NA	31	"01"	"2024-02-21_11h05.29.558"	"BART_exp"	"2023.2.3"	122.439484284005	"2024-02-21 11h05.49.137243 +0100"	NA
NA	NA	NA	NA	NA	NA	NA	NA	NA	NA	NA	NA	NA	NA	NA	NA	NA	NA	NA	NA	NA	NA	NA	NA	NA	NA	NA	NA	NA	NA	NA	NA	NA	NA	NA	NA	NA	NA	NA	NA	NA	NA	NA	NA	NA	NA	282.257348200001	282.263498600001	282.263498600001	296.2149482	"space"	13.9481939999987	"None"	31	"01"	"2024-02-21_11h05.29.558"	"BART_exp"	"2023.2.3"	122.439484284005	"2024-02-21 11h05.49.137243 +0100"	NA
