"image"	"max_pumps"	"pump_loop.thisRepN"	"pump_loop.thisTrialN"	"pump_loop.thisN"	"pump_loop.thisIndex"	"thisRow.t"	"notes"	"Start.started"	"text_start.started"	"continue_start.started"	"mouse_start.started"	"Start.stopped"	"mouse_start.x"	"mouse_start.y"	"mouse_start.leftButton"	"mouse_start.midButton"	"mouse_start.rightButton"	"mouse_start.time"	"trials.started"	"stim_balloon.started"	"stim_balloon_burst.started"	"stim_balloon_burst.stopped"	"text_ballon_value.started"	"text_bank.started"	"mouse.started"	"sound_bang.started"	"sound_bang.stopped"	"button_balloon.started"	"trials.stopped"	"n_pumps"	"earnings"	"popped"	"mouse.x"	"mouse.y"	"mouse.leftButton"	"mouse.midButton"	"mouse.rightButton"	"mouse.time"	"button_balloon.numClicks"	"button_balloon.timesOn"	"button_balloon.timesOff"	"Feedback.started"	"text_feedback.started"	"Feedback.stopped"	"text_feedback.stopped"	"End.started"	"text_end.started"	"key_end.started"	"End.stopped"	"key_end.keys"	"key_end.rt"	"key_end.duration"	"participant"	"session"	"date"	"expName"	"psychopyVersion"	"frameRate"	"expStart"	"...61"
NA	NA	NA	NA	NA	NA	NA	NA	0.00160140000116371	0.00678690000131609	0.00678690000131609	0.00189490000047953	51.1946214	"[0.7277777777777777]"	"[-0.4]"	"[1]"	"[0]"	"[0]"	"[51.19204510000054]"	NA	NA	NA	NA	NA	NA	NA	NA	NA	NA	NA	NA	NA	NA	NA	NA	NA	NA	NA	NA	NA	NA	NA	NA	NA	NA	NA	NA	NA	NA	NA	NA	NA	NA	31	"02"	"2024-02-21_11h15.07.901"	"BART_exp"	"2023.2.3"	119.998464019315	"2024-02-21 11h15.16.806271 +0100"	NA
"balloon.png"	62	0	0	0	14	51.2642794000003	NA	NA	NA	NA	NA	NA	NA	NA	NA	NA	NA	NA	51.203316000001	51.2642794000003	51.2642794000003	51.2642794000003	51.2642794000003	51.2642794000003	0.0103961000004347	0.0103961000004347	0.0103961000004347	51.2642794000003	59.3546729999998	28	1.4	FALSE	"[0.05462962962962963, 0.05462962962962963, 0.05462962962962963, 0.05462962962962963, 0.05462962962962963, 0.05462962962962963, 0.05462962962962963, 0.05462962962962963, 0.05462962962962963, 0.05462962962962963, 0.05462962962962963, 0.05462962962962963, 0.05462962962962963, 0.05462962962962963, 0.05462962962962963, 0.05462962962962963, 0.05462962962962963, 0.05462962962962963, 0.05462962962962963, 0.05462962962962963, 0.05462962962962963, 0.05462962962962963, 0.05462962962962963, 0.05462962962962963, 0.05462962962962963, 0.05462962962962963, 0.05462962962962963, 0.05462962962962963, 0.05462962962962963]"	"[-0.37962962962962965, -0.37962962962962965, -0.37962962962962965, -0.37962962962962965, -0.37962962962962965, -0.37962962962962965, -0.37962962962962965, -0.37962962962962965, -0.37962962962962965, -0.37962962962962965, -0.37962962962962965, -0.37962962962962965, -0.37962962962962965, -0.37962962962962965, -0.37962962962962965, -0.37962962962962965, -0.37962962962962965, -0.37962962962962965, -0.37962962962962965, -0.37962962962962965, -0.37962962962962965, -0.37962962962962965, -0.37962962962962965, -0.37962962962962965, -0.37962962962962965, -0.37962962962962965, -0.37962962962962965, -0.37962962962962965, -0.37962962962962965]"	"[1, 1, 1, 1, 1, 1, 1, 1, 1, 1, 1, 1, 1, 1, 1, 1, 1, 1, 1, 1, 1, 1, 1, 1, 1, 1, 1, 1, 0]"	"[0, 0, 0, 0, 0, 0, 0, 0, 0, 0, 0, 0, 0, 0, 0, 0, 0, 0, 0, 0, 0, 0, 0, 0, 0, 0, 0, 0, 0]"	"[0, 0, 0, 0, 0, 0, 0, 0, 0, 0, 0, 0, 0, 0, 0, 0, 0, 0, 0, 0, 0, 0, 0, 0, 0, 0, 0, 0, 1]"	"[1.691335600000457, 1.9829980000013165, 2.2412283000012394, 2.457829599999968, 2.6932395000003453, 2.949800399999731, 3.1246870000013587, 3.3497631999998703, 3.558092100000067, 3.774888699999792, 4.049644500000795, 4.268463000000338, 4.482988200001273, 4.691258400000152, 4.901452100000824, 5.116747199999736, 5.349957800000993, 5.541576999999961, 5.733378200000516, 5.933259200000975, 6.158285900000919, 6.391664000000674, 6.6498826000006375, 6.90014599999995, 7.108345200000258, 7.3001361000006, 7.499930400001176, 7.700156200000492, 8.150207100001353]"	29	"[1.6368554000000586, 1.928430699999808, 2.1867079000003287, 2.4033713999997417, 2.638847000000169, 2.895242299999154, 3.070159099999728, 3.295200399999885, 3.5035238999989815, 3.7203263999999763, 3.9950723000001744, 4.213900799999465, 4.428412699999171, 4.636697300000378, 4.846887599998809, 5.062219899999036, 5.295390499999485, 5.487014199999976, 5.678822599998966, 5.8786915999990015, 6.10372069999903, 6.33711669999866, 6.5953259999987495, 6.8456222000004345, 7.053784699999596, 7.245582399998966, 7.445374299999457, 7.645617999998649, 8.095582699999795]"	"[1.7447926999993797, 1.9865353999994113, 2.2948392999987846, 2.5115468000003602, 2.7699274999995396, 2.9781913999995595, 3.1863999999986845, 3.411624899999879, 3.619836599998962, 3.8698774999993475, 4.103214499999012, 4.3214005999998335, 4.536633699999584, 4.745076600000175, 4.961725199998909, 5.1866790000003675, 5.395285700000386, 5.578428699998767, 5.761741599999368, 5.995074899999963, 6.228444700000182, 6.4618546000001515, 6.72854229999939, 6.97014979999949, 7.161952200000087, 7.36189639999975, 7.553491999999096, 7.761966199999733, 8.095587099998738]"	59.3563254000001	59.3664489000003	60.8611738	NA	NA	NA	NA	NA	NA	NA	NA	31	"02"	"2024-02-21_11h15.07.901"	"BART_exp"	"2023.2.3"	119.998464019315	"2024-02-21 11h15.16.806271 +0100"	NA
"balloon.png"	84	0	1	1	19	60.8779396000009	NA	NA	NA	NA	NA	NA	NA	NA	NA	NA	NA	NA	60.8613999999998	60.8779396000009	60.8779396000009	60.8779396000009	60.8779396000009	60.8779396000009	0.00657759999921836	0.00657759999921836	0.00657759999921836	60.8779396000009	70.4383521	39	1.95	FALSE	"[-0.007407407407407408, -0.007407407407407408, -0.007407407407407408, -0.007407407407407408, -0.007407407407407408, -0.007407407407407408, -0.007407407407407408, -0.007407407407407408, -0.007407407407407408, -0.007407407407407408, -0.007407407407407408, -0.007407407407407408, -0.007407407407407408, -0.007407407407407408, -0.007407407407407408, -0.007407407407407408, -0.007407407407407408, -0.007407407407407408, -0.007407407407407408, -0.007407407407407408, -0.007407407407407408, -0.007407407407407408, -0.007407407407407408, -0.007407407407407408, -0.007407407407407408, -0.007407407407407408, -0.007407407407407408, -0.007407407407407408, -0.007407407407407408, -0.007407407407407408, -0.007407407407407408, -0.007407407407407408, -0.007407407407407408, -0.007407407407407408, -0.007407407407407408, -0.007407407407407408, -0.007407407407407408, -0.007407407407407408, -0.007407407407407408, -0.007407407407407408]"	"[-0.387037037037037, -0.387037037037037, -0.387037037037037, -0.387037037037037, -0.387037037037037, -0.387037037037037, -0.387037037037037, -0.387037037037037, -0.387037037037037, -0.387037037037037, -0.387037037037037, -0.38796296296296295, -0.38796296296296295, -0.38796296296296295, -0.38796296296296295, -0.38796296296296295, -0.38796296296296295, -0.38796296296296295, -0.38796296296296295, -0.38796296296296295, -0.38796296296296295, -0.38796296296296295, -0.38796296296296295, -0.38796296296296295, -0.38796296296296295, -0.38796296296296295, -0.38796296296296295, -0.38796296296296295, -0.38796296296296295, -0.38796296296296295, -0.38796296296296295, -0.38796296296296295, -0.38796296296296295, -0.38796296296296295, -0.38796296296296295, -0.38796296296296295, -0.38796296296296295, -0.38796296296296295, -0.38796296296296295, -0.38796296296296295]"	"[1, 1, 1, 1, 1, 1, 1, 1, 1, 1, 1, 1, 1, 1, 1, 1, 1, 1, 1, 1, 1, 1, 1, 1, 1, 1, 1, 1, 1, 1, 1, 1, 1, 1, 1, 1, 1, 1, 1, 0]"	"[0, 0, 0, 0, 0, 0, 0, 0, 0, 0, 0, 0, 0, 0, 0, 0, 0, 0, 0, 0, 0, 0, 0, 0, 0, 0, 0, 0, 0, 0, 0, 0, 0, 0, 0, 0, 0, 0, 0, 0]"	"[0, 0, 0, 0, 0, 0, 0, 0, 0, 0, 0, 0, 0, 0, 0, 0, 0, 0, 0, 0, 0, 0, 0, 0, 0, 0, 0, 0, 0, 0, 0, 0, 0, 0, 0, 0, 0, 0, 0, 1]"	"[0.4427129999985482, 0.6419745000002877, 0.833544899998742, 1.0424683000001096, 1.2586522000001423, 1.5169131999991805, 1.758639099998618, 1.9586647999985871, 2.2005166999988433, 2.433986299998651, 2.675539199999548, 2.9337168999991263, 3.14223149999998, 3.383806199999526, 3.608675299999959, 3.808723399999508, 4.017377399999532, 4.234096599999248, 4.475714500000322, 4.668567799999437, 4.884052199999132, 5.1255148999989615, 5.367249599999923, 5.577386899998601, 5.825787499999933, 6.05096869999943, 6.250923499999772, 6.4676186999986385, 6.667615000000296, 6.8758586999992986, 7.108983599999192, 7.3176191999991715, 7.517479399999502, 7.717471299998579, 7.934270499999911, 8.150921599999492, 8.375749999999243, 8.592431600000054, 8.97576779999872, 9.575824599998668]"	40	"[0.4364774000005127, 0.6356737000005523, 0.8272386999997252, 1.0362387999994098, 1.2523392000002787, 1.5106028000009246, 1.7523670000009588, 1.9523879000007582, 2.1942400000007183, 2.427680099999634, 2.669239999999263, 2.9274561000001995, 3.135948000001008, 3.377488899999662, 3.602356299999883, 3.8024058999999397, 4.011082999999417, 4.227810000000318, 4.469409400000586, 4.662255700000969, 4.877743600000031, 5.119197699999859, 5.360938499999975, 5.571064699999624, 5.819481700000324, 6.044671499999822, 6.24463680000008, 6.461329600000681, 6.661350200000015, 6.869544600000154, 7.102668300000005, 7.311315099999774, 7.511168900000484, 7.711171900000409, 7.927968800000599, 8.144610700001067, 8.369436400000268, 8.586131699999896, 8.969456400000126, 9.569446499999685]"	"[0.5104551000003994, 0.7024486999998771, 0.910496399999829, 1.1356586000001698, 1.3856154999994033, 1.619192699999985, 1.8522176000005857, 2.060565800000404, 2.30220670000017, 2.543995600000926, 2.8023040000007313, 3.0355653000005987, 3.252243000000817, 3.4939813000000868, 3.7022341000010783, 3.919017000000167, 4.144058399999267, 4.360805899999832, 4.5941794000009395, 4.8023783000007825, 5.027572599999985, 5.252549099999669, 5.477506799999901, 5.7024684000007255, 5.945545599999605, 6.152521699999852, 6.360998300000574, 6.56083899999976, 6.752516300000934, 6.985847300000387, 7.219269900000654, 7.4193116999995254, 7.611044400000537, 7.827741099999912, 8.027768199999628, 8.2359847000007, 8.463010499999655, 8.678029300001072, 9.102724300000773, 9.569450900000447]"	70.4397504000008	70.4448635000008	71.9371181000006	71.9531729000009	NA	NA	NA	NA	NA	NA	NA	31	"02"	"2024-02-21_11h15.07.901"	"BART_exp"	"2023.2.3"	119.998464019315	"2024-02-21 11h15.16.806271 +0100"	NA
"balloon.png"	1	0	2	2	0	71.9531729000009	NA	NA	NA	NA	NA	NA	NA	NA	NA	NA	NA	NA	71.9373353999999	71.9531729000009	71.9531729000009	71.9531729000009	71.9531729000009	71.9531729000009	-0.00089829999888024	-0.00089829999888024	-0.00089829999888024	71.9531729000009	72.705775800001	2	0.05	TRUE	"[-0.008333333333333333, -0.008333333333333333]"	"[-0.38796296296296295, -0.38796296296296295]"	"[1, 1]"	"[0, 0]"	"[0, 0]"	"[0.43351849999999104, 0.6667844000003242]"	2	"[0.4230210999994597, 0.656279299999369]"	"[0.5310853000009956, 0.7478336000003765]"	72.7064177000011	72.7128411000012	74.2039177000006	74.2131454000009	NA	NA	NA	NA	NA	NA	NA	31	"02"	"2024-02-21_11h15.07.901"	"BART_exp"	"2023.2.3"	119.998464019315	"2024-02-21 11h15.16.806271 +0100"	NA
"balloon.png"	110	0	3	3	25	74.2131454000009	NA	NA	NA	NA	NA	NA	NA	NA	NA	NA	NA	NA	74.2041320000008	74.2131454000009	74.2131454000009	74.2131454000009	74.2131454000009	74.2131454000009	-0.00078399999983957	-0.00078399999983957	-0.00078399999983957	74.2131454000009	81.8251207000012	30	1.5	FALSE	"[-0.008333333333333333, -0.008333333333333333, -0.008333333333333333, -0.008333333333333333, -0.008333333333333333, -0.008333333333333333, -0.008333333333333333, -0.008333333333333333, -0.008333333333333333, -0.008333333333333333, -0.008333333333333333, -0.008333333333333333, -0.008333333333333333, -0.008333333333333333, -0.008333333333333333, -0.008333333333333333, -0.008333333333333333, -0.008333333333333333, -0.008333333333333333, -0.008333333333333333, -0.008333333333333333, -0.008333333333333333, -0.008333333333333333, -0.008333333333333333, -0.008333333333333333, -0.008333333333333333, -0.008333333333333333, -0.008333333333333333, -0.008333333333333333, -0.008333333333333333, -0.008333333333333333]"	"[-0.38796296296296295, -0.38796296296296295, -0.38796296296296295, -0.38796296296296295, -0.38796296296296295, -0.38796296296296295, -0.38796296296296295, -0.38796296296296295, -0.38796296296296295, -0.38796296296296295, -0.38796296296296295, -0.38796296296296295, -0.38796296296296295, -0.38796296296296295, -0.38796296296296295, -0.38796296296296295, -0.38796296296296295, -0.38796296296296295, -0.38796296296296295, -0.38796296296296295, -0.38796296296296295, -0.38796296296296295, -0.38796296296296295, -0.38796296296296295, -0.38796296296296295, -0.38796296296296295, -0.38796296296296295, -0.38796296296296295, -0.38796296296296295, -0.38796296296296295, -0.38796296296296295]"	"[1, 1, 1, 1, 1, 1, 1, 1, 1, 1, 1, 1, 1, 1, 1, 1, 1, 1, 1, 1, 1, 1, 1, 1, 1, 1, 1, 1, 1, 1, 0]"	"[0, 0, 0, 0, 0, 0, 0, 0, 0, 0, 0, 0, 0, 0, 0, 0, 0, 0, 0, 0, 0, 0, 0, 0, 0, 0, 0, 0, 0, 0, 0]"	"[0, 0, 0, 0, 0, 0, 0, 0, 0, 0, 0, 0, 0, 0, 0, 0, 0, 0, 0, 0, 0, 0, 0, 0, 0, 0, 0, 0, 0, 0, 1]"	"[0.5834549999999581, 1.0251320999996096, 1.2354822999986936, 1.466950199999701, 1.6754243999985192, 1.9171687999987626, 2.1587779999990744, 2.391972399998849, 2.6003504999989673, 2.8252905999997893, 3.0507227999987663, 3.3173000999995566, 3.567253899998832, 3.7752329999984795, 4.008691399998497, 4.242138799998429, 4.484547899999598, 4.718208499998582, 4.950792199999341, 5.184003499998653, 5.384100899998884, 5.583916599998702, 5.7676216999989265, 5.975418899999568, 6.1922416999987036, 6.408887899999172, 6.658930199999304, 6.825568399999611, 7.025584399998479, 7.242348799998581, 7.619402699998318]"	31	"[0.5796141000009811, 1.0212635999996564, 1.231612600000517, 1.4630830000005517, 1.6715757000001759, 1.9133216999998695, 2.1549113000000943, 2.3881084000004194, 2.596487900000284, 2.8214226000000053, 3.046887100001186, 3.3134516999998596, 3.56340900000032, 3.771366599999965, 4.004828099999941, 4.238280000001396, 4.4806908999999, 4.714390200000707, 4.946943500000998, 5.180138200001238, 5.3802630999998655, 5.580071100001078, 5.763954400001239, 5.971554499999911, 6.188376400001289, 6.405028000001039, 6.655066600000282, 6.821704100000716, 7.021718800000599, 7.238482200000362, 7.615821600000345]"	"[0.7294899000007717, 1.1211729000006017, 1.329590700001063, 1.5462636000011116, 1.7878818999997748, 2.029669499999727, 2.2630170000011276, 2.4963734000011755, 2.7046803000012005, 2.963259400001334, 3.196489500000098, 3.4380653999996866, 3.671366399999897, 3.8798772000009194, 4.113310700000511, 4.36347620000015, 4.604734000000462, 4.838094000000638, 5.054786800001239, 5.265174500000285, 5.471441900001082, 5.680095499999879, 5.896672099999705, 6.104736299999786, 6.296575200000007, 6.529842400001144, 6.7715770000013435, 6.979823900001065, 7.179834200000187, 7.288373200000933, 7.615829700000177]"	81.8263605000011	81.8299588000009	83.3212069000001	83.329292800001	NA	NA	NA	NA	NA	NA	NA	31	"02"	"2024-02-21_11h15.07.901"	"BART_exp"	"2023.2.3"	119.998464019315	"2024-02-21 11h15.16.806271 +0100"	NA
"balloon.png"	18	0	4	4	4	83.329292800001	NA	NA	NA	NA	NA	NA	NA	NA	NA	NA	NA	NA	83.3214177999998	83.329292800001	83.329292800001	83.329292800001	83.329292800001	83.329292800001	0.00300349999997706	0.00300349999997706	0.00300349999997706	83.329292800001	88.4990974000011	19	0.9	TRUE	"[-0.008333333333333333, -0.008333333333333333, -0.008333333333333333, -0.008333333333333333, -0.008333333333333333, -0.008333333333333333, -0.008333333333333333, -0.008333333333333333, -0.008333333333333333, -0.008333333333333333, -0.008333333333333333, -0.008333333333333333, -0.008333333333333333, -0.008333333333333333, -0.008333333333333333, -0.008333333333333333, -0.008333333333333333, -0.008333333333333333, -0.008333333333333333]"	"[-0.38796296296296295, -0.38796296296296295, -0.38796296296296295, -0.38796296296296295, -0.38796296296296295, -0.38796296296296295, -0.38796296296296295, -0.38796296296296295, -0.38796296296296295, -0.38796296296296295, -0.38796296296296295, -0.38796296296296295, -0.38796296296296295, -0.38796296296296295, -0.38796296296296295, -0.38796296296296295, -0.38796296296296295, -0.38796296296296295, -0.38796296296296295]"	"[1, 1, 1, 1, 1, 1, 1, 1, 1, 1, 1, 1, 1, 1, 1, 1, 1, 1, 1]"	"[0, 0, 0, 0, 0, 0, 0, 0, 0, 0, 0, 0, 0, 0, 0, 0, 0, 0, 0]"	"[0, 0, 0, 0, 0, 0, 0, 0, 0, 0, 0, 0, 0, 0, 0, 0, 0, 0, 0]"	"[0.7836728999991465, 1.0419996000000538, 1.2918730999990657, 1.5085791000001336, 1.7421818000002531, 1.975499399999535, 2.2168524999997317, 2.442020999998931, 2.6420738999986497, 2.8836076999996294, 3.092117000000144, 3.316976899999645, 3.5169596999985515, 3.733847399998922, 3.9505085999990115, 4.167208799999571, 4.37604680000004, 4.592762899999798, 5.050389699999869]"	19	"[0.7813167999993311, 1.0398652000003494, 1.2895220999998855, 1.5062214999998105, 1.7398434999995516, 1.9731547999999748, 2.2145031000000017, 2.4396655000000464, 2.639712599999257, 2.8812464000002365, 3.0897535999993124, 3.3146140000008018, 3.5145998999996664, 3.731487000000925, 3.9481489999998303, 4.164867699999377, 4.373706399999719, 4.590437200000451, 5.048024300000179]"	"[0.9143535000002885, 1.1393783999992593, 1.3894636999993963, 1.6227870999991865, 1.8561317999992752, 2.1144120000008115, 2.331116600000314, 2.5395267000003514, 2.7811507000005804, 2.9895508000008704, 3.189646900000298, 3.3811430000005203, 3.62300630000027, 3.841104600000108, 4.081218999999692, 4.281233899999279, 4.473429800000304, 4.690166399999725, 5.164564700000483]"	88.5001004000005	88.5044178000007	89.9966660999999	90.0133145	NA	NA	NA	NA	NA	NA	NA	31	"02"	"2024-02-21_11h15.07.901"	"BART_exp"	"2023.2.3"	119.998464019315	"2024-02-21 11h15.16.806271 +0100"	NA
"balloon.png"	53	0	5	5	12	90.0133145	NA	NA	NA	NA	NA	NA	NA	NA	NA	NA	NA	NA	89.9968898000006	90.0133145	90.0133145	90.0133145	90.0133145	90.0133145	-0.00042980000034731	-0.00042980000034731	-0.00042980000034731	90.0133145	96.1650368999999	23	1.15	FALSE	"[-0.008333333333333333, -0.008333333333333333, -0.008333333333333333, -0.008333333333333333, -0.008333333333333333, -0.008333333333333333, -0.008333333333333333, -0.008333333333333333, -0.008333333333333333, -0.008333333333333333, -0.008333333333333333, -0.008333333333333333, -0.008333333333333333, -0.008333333333333333, -0.008333333333333333, -0.008333333333333333, -0.008333333333333333, -0.008333333333333333, -0.008333333333333333, -0.008333333333333333, -0.008333333333333333, -0.008333333333333333, -0.008333333333333333, -0.008333333333333333]"	"[-0.38796296296296295, -0.38796296296296295, -0.38796296296296295, -0.38796296296296295, -0.38796296296296295, -0.38796296296296295, -0.38796296296296295, -0.38796296296296295, -0.38796296296296295, -0.38796296296296295, -0.38796296296296295, -0.38796296296296295, -0.38796296296296295, -0.38796296296296295, -0.38796296296296295, -0.38796296296296295, -0.38796296296296295, -0.38796296296296295, -0.38796296296296295, -0.38796296296296295, -0.38796296296296295, -0.38796296296296295, -0.38796296296296295, -0.38796296296296295]"	"[1, 1, 1, 1, 1, 1, 1, 1, 1, 1, 1, 1, 1, 1, 1, 1, 1, 1, 1, 1, 1, 1, 1, 0]"	"[0, 0, 0, 0, 0, 0, 0, 0, 0, 0, 0, 0, 0, 0, 0, 0, 0, 0, 0, 0, 0, 0, 0, 0]"	"[0, 0, 0, 0, 0, 0, 0, 0, 0, 0, 0, 0, 0, 0, 0, 0, 0, 0, 0, 0, 0, 0, 0, 1]"	"[0.49181210000097053, 0.7498867000012979, 0.9750106000010419, 1.2333023999999568, 1.4585532000000967, 1.7454866999996739, 2.0129135999995924, 2.2919794999997976, 2.549976100001004, 2.7666719000008015, 2.975090199999613, 3.2085581999999704, 3.4501067000001058, 3.6252060000006168, 3.8353543000011996, 4.083649300000616, 4.316989500001, 4.508851500000674, 4.700376700000561, 5.008715899999515, 5.225497499999619, 5.425349500001175, 5.642310600000201, 6.166920600000594]"	24	"[0.4808367999994516, 0.7389015999997355, 0.9640462000006664, 1.2223150999998325, 1.4475805000001856, 1.734521100001075, 2.0019243999995524, 2.2810076999994635, 2.5389931999998225, 2.7556855000002543, 2.964104500000758, 3.1975743000002694, 3.4391178999994736, 3.61423029999969, 3.824372000000949, 4.072664200000872, 4.30600670000058, 4.49790369999937, 4.68941199999972, 4.997728199999983, 5.214532500000132, 5.414374699999826, 5.631350100000418, 6.155867999999828]"	"[0.622091499999442, 0.8388032000002568, 1.0972385000004579, 1.3305314000008366, 1.5555112000001827, 1.868489899999986, 2.1105133000000933, 2.413951200000156, 2.630762599999798, 2.855605099999593, 3.0640034999996715, 3.305669900000794, 3.51413169999978, 3.714115299999321, 3.9474936000005982, 4.197557100000267, 4.389083300000493, 4.589272600000186, 4.805782499999623, 5.105813000000126, 5.330937599999743, 5.547608999999284, 5.755772900000011, 6.155872700001055]"	96.1661291	96.1717255000003	97.6639184000014	97.6731439000014	NA	NA	NA	NA	NA	NA	NA	31	"02"	"2024-02-21_11h15.07.901"	"BART_exp"	"2023.2.3"	119.998464019315	"2024-02-21 11h15.16.806271 +0100"	NA
"balloon.png"	40	0	6	6	9	97.6731439000014	NA	NA	NA	NA	NA	NA	NA	NA	NA	NA	NA	NA	97.6641417999999	97.6731439000014	97.6731439000014	97.6731439000014	97.6731439000014	97.6731439000014	-0.00054760000057285	-0.00054760000057285	-0.00054760000057285	97.6731439000014	103.4160032	21	1.05	FALSE	"[-0.010185185185185186, -0.010185185185185186, -0.010185185185185186, -0.010185185185185186, -0.010185185185185186, -0.010185185185185186, -0.010185185185185186, -0.010185185185185186, -0.010185185185185186, -0.010185185185185186, -0.010185185185185186, -0.010185185185185186, -0.010185185185185186, -0.010185185185185186, -0.010185185185185186, -0.010185185185185186, -0.010185185185185186, -0.010185185185185186, -0.010185185185185186, -0.010185185185185186, -0.010185185185185186, -0.010185185185185186]"	"[-0.38796296296296295, -0.38796296296296295, -0.38796296296296295, -0.38796296296296295, -0.38796296296296295, -0.38796296296296295, -0.38796296296296295, -0.38796296296296295, -0.38796296296296295, -0.38796296296296295, -0.38796296296296295, -0.38796296296296295, -0.38796296296296295, -0.38796296296296295, -0.38796296296296295, -0.38796296296296295, -0.38796296296296295, -0.38796296296296295, -0.38796296296296295, -0.38796296296296295, -0.38796296296296295, -0.38796296296296295]"	"[1, 1, 1, 1, 1, 1, 1, 1, 1, 1, 1, 1, 1, 1, 1, 1, 1, 1, 1, 1, 1, 0]"	"[0, 0, 0, 0, 0, 0, 0, 0, 0, 0, 0, 0, 0, 0, 0, 0, 0, 0, 0, 0, 0, 0]"	"[0, 0, 0, 0, 0, 0, 0, 0, 0, 0, 0, 0, 0, 0, 0, 0, 0, 0, 0, 0, 0, 1]"	"[0.4420019000008324, 0.6752608000006148, 0.9167281999998522, 1.141670700000759, 1.4086356999996497, 1.6917081999999937, 1.941874000000098, 2.2917639999996027, 2.6835408000006282, 2.908435000001191, 3.1002988000000187, 3.2918072000011307, 3.483708800000386, 3.9085420000010345, 4.108751200001279, 4.2919698000005155, 4.508716300000742, 4.700471100000868, 4.917062500000611, 5.10044470000139, 5.300452999999834, 5.750752100000682]"	22	"[0.43849649999901885, 0.6716658000004827, 0.9130781999992905, 1.1380535999996937, 1.4051290999996127, 1.688080699999773, 1.9382236000001285, 2.2881082000003516, 2.679891800000405, 2.904786900000545, 3.0966506999993726, 3.288151499999003, 3.480055699999866, 3.9048903999992035, 4.105106299999534, 4.288319199999023, 4.505065899998954, 4.696825099999842, 4.913433699999587, 5.096798200000194, 5.296800099999018, 5.747045300000536]"	"[0.5463230999994266, 0.762937100000272, 0.9879359999995359, 1.2545661999993172, 1.5130380999999034, 1.8046114999997371, 2.054657999999108, 2.3964426000002277, 2.788082099999883, 3.00465609999992, 3.18571829999928, 3.363445099999808, 3.5880699999997887, 3.996744000000035, 4.2132001999998465, 4.371601599999849, 4.6132579000004625, 4.804911100000027, 4.996419099999912, 5.204922099999749, 5.54673030000049, 5.74705030000041]"	103.417208000001	103.4220783	104.9145162	104.9229474	NA	NA	NA	NA	NA	NA	NA	31	"02"	"2024-02-21_11h15.07.901"	"BART_exp"	"2023.2.3"	119.998464019315	"2024-02-21 11h15.16.806271 +0100"	NA
"balloon.png"	88	0	7	7	20	104.9229474	NA	NA	NA	NA	NA	NA	NA	NA	NA	NA	NA	NA	104.9147414	104.9229474	104.9229474	104.9229474	104.9229474	104.9229474	-0.00098169999910169	-0.00098169999910169	-0.00098169999910169	104.9229474	114.0998361	32	1.6	FALSE	"[-0.010185185185185186, -0.010185185185185186, -0.010185185185185186, -0.010185185185185186, -0.010185185185185186, -0.010185185185185186, -0.010185185185185186, -0.010185185185185186, -0.010185185185185186, -0.010185185185185186, -0.010185185185185186, -0.010185185185185186, -0.010185185185185186, -0.010185185185185186, -0.010185185185185186, -0.010185185185185186, -0.010185185185185186, -0.010185185185185186, -0.010185185185185186, -0.010185185185185186, -0.010185185185185186, -0.010185185185185186, -0.010185185185185186, -0.010185185185185186, -0.010185185185185186, -0.010185185185185186, -0.010185185185185186, -0.010185185185185186, -0.010185185185185186, -0.010185185185185186, -0.010185185185185186, -0.010185185185185186, -0.010185185185185186]"	"[-0.38796296296296295, -0.38796296296296295, -0.38796296296296295, -0.38796296296296295, -0.38796296296296295, -0.38796296296296295, -0.38796296296296295, -0.38796296296296295, -0.38796296296296295, -0.38796296296296295, -0.38796296296296295, -0.38796296296296295, -0.38796296296296295, -0.38796296296296295, -0.38796296296296295, -0.38796296296296295, -0.38796296296296295, -0.38796296296296295, -0.38796296296296295, -0.38796296296296295, -0.38796296296296295, -0.38796296296296295, -0.38796296296296295, -0.38796296296296295, -0.38796296296296295, -0.38796296296296295, -0.38796296296296295, -0.38796296296296295, -0.38796296296296295, -0.38796296296296295, -0.38796296296296295, -0.38796296296296295, -0.38796296296296295]"	"[1, 1, 1, 1, 1, 1, 1, 1, 1, 1, 1, 1, 1, 1, 1, 1, 1, 1, 1, 1, 1, 1, 1, 1, 1, 1, 1, 1, 1, 1, 1, 1, 0]"	"[0, 0, 0, 0, 0, 0, 0, 0, 0, 0, 0, 0, 0, 0, 0, 0, 0, 0, 0, 0, 0, 0, 0, 0, 0, 0, 0, 0, 0, 0, 0, 0, 0]"	"[0, 0, 0, 0, 0, 0, 0, 0, 0, 0, 0, 0, 0, 0, 0, 0, 0, 0, 0, 0, 0, 0, 0, 0, 0, 0, 0, 0, 0, 0, 0, 0, 1]"	"[0.48390160000053584, 0.7174393999994209, 1.0171078000003035, 1.2416290000001027, 1.4835646000010456, 1.7002675000003364, 1.925191199999972, 2.2001493999996455, 2.466743900000438, 2.708582100000058, 2.950338099999499, 3.1918046999999206, 3.4667604000005667, 3.7253794000007474, 4.0085111999997025, 4.241861399999834, 4.466796599999725, 4.700168100000155, 4.9423294000007445, 5.233644199999617, 5.583743200000754, 6.050291100000322, 6.300484600000345, 6.5005182000004424, 6.700581900000543, 6.89214709999942, 7.100565500000812, 7.525743800000782, 7.725817900000038, 7.88391589999992, 8.075586400000248, 8.233764300000985, 9.184008300000642]"	33	"[0.4810672000003251, 0.7146072000014101, 1.0142697999999655, 1.2387648000003537, 1.4807199000006221, 1.6974354000012681, 1.9223332000001392, 2.197342200001003, 2.4639340000012453, 2.7057230999998865, 2.947537200001534, 3.188938600000256, 3.4638889000016206, 3.7225187000003643, 4.005651900000885, 4.238992800001142, 4.463929300000018, 4.697295500000109, 4.939480500001082, 5.230775800000629, 5.580869299999904, 6.047416700001122, 6.2976217000014, 6.49764900000082, 6.697721000000456, 6.889278200000263, 7.097701100001359, 7.5228944000009506, 7.722963700000037, 7.881064900000638, 8.072720100000879, 8.230894500000431, 9.181075700000292]"	"[0.5973917999999685, 0.8308292000001529, 1.0974574000010762, 1.3144053000014537, 1.5719992000013008, 1.797288000001572, 2.0388339000000997, 2.3139535000009346, 2.572111900000891, 2.8054409000014857, 3.047099100000196, 3.297113900000113, 3.5804575000001932, 3.8388580000009824, 4.113760199999888, 4.338913800000228, 4.547222300001522, 4.805618800000957, 5.080544700000246, 5.347199800000453, 5.689064600001075, 6.180682300000626, 6.380653000000166, 6.589081200001601, 6.755824300000313, 6.972490400001334, 7.1973687000008795, 7.622576700001446, 7.814088700000866, 7.997403100000156, 8.147476100000858, 8.339279100000567, 9.181080100001054]"	114.101224900001	114.1068555	115.598469100001	115.614811500001	NA	NA	NA	NA	NA	NA	NA	31	"02"	"2024-02-21_11h15.07.901"	"BART_exp"	"2023.2.3"	119.998464019315	"2024-02-21 11h15.16.806271 +0100"	NA
"balloon.png"	118	0	8	8	27	115.614811500001	NA	NA	NA	NA	NA	NA	NA	NA	NA	NA	NA	NA	115.598686000001	115.614811500001	115.614811500001	115.614811500001	115.614811500001	115.614811500001	0.0136788999989221	0.0136788999989221	0.0136788999989221	115.614811500001	121.725248300001	21	1.05	FALSE	"[-0.010185185185185186, -0.010185185185185186, -0.010185185185185186, -0.010185185185185186, -0.010185185185185186, -0.010185185185185186, -0.010185185185185186, -0.010185185185185186, -0.010185185185185186, -0.010185185185185186, -0.010185185185185186, -0.010185185185185186, -0.010185185185185186, -0.010185185185185186, -0.010185185185185186, -0.010185185185185186, -0.010185185185185186, -0.010185185185185186, -0.010185185185185186, -0.010185185185185186, -0.010185185185185186, -0.010185185185185186]"	"[-0.38796296296296295, -0.38796296296296295, -0.38796296296296295, -0.38796296296296295, -0.38796296296296295, -0.38796296296296295, -0.38796296296296295, -0.38796296296296295, -0.38796296296296295, -0.38796296296296295, -0.38796296296296295, -0.38796296296296295, -0.38796296296296295, -0.38796296296296295, -0.38796296296296295, -0.38796296296296295, -0.38796296296296295, -0.38796296296296295, -0.38796296296296295, -0.38796296296296295, -0.38796296296296295, -0.38796296296296295]"	"[1, 1, 1, 1, 1, 1, 1, 1, 1, 1, 1, 1, 1, 1, 1, 1, 1, 1, 1, 1, 1, 0]"	"[0, 0, 0, 0, 0, 0, 0, 0, 0, 0, 0, 0, 0, 0, 0, 0, 0, 0, 0, 0, 0, 0]"	"[0, 0, 0, 0, 0, 0, 0, 0, 0, 0, 0, 0, 0, 0, 0, 0, 0, 0, 0, 0, 0, 1]"	"[0.7917606999999407, 1.1084499999997206, 1.3750987000003079, 1.6585694999994303, 1.8835192999995343, 2.0917982999999367, 2.33350369999971, 2.5750905999993847, 2.8004213999993226, 3.02543230000083, 3.267185500000778, 3.516972600000372, 3.7836279000002833, 4.067284200000358, 4.317019199999777, 4.533797399999457, 4.750323899999785, 4.975430500000584, 5.210038400000485, 5.425548299999718, 5.608923199999481, 6.125456800000393]"	22	"[0.7894733000011911, 1.1061508000002505, 1.3728061000001617, 1.6562396000008448, 1.8811953000003996, 2.0894748999999138, 2.33118530000138, 2.572762400001011, 2.798106700000062, 3.023115100000723, 3.26487200000156, 3.514647400001195, 3.7813068000014027, 4.064980400000422, 4.314699700000347, 4.531469500001549, 4.747996000000057, 4.9731124000009, 5.207908500000485, 5.423220700000456, 5.606616100001702, 6.123065700001462]"	"[0.8809602000001178, 1.222691400000258, 1.4810508000009577, 1.7559560000008787, 1.9644068000015977, 2.1810498000013467, 2.439399400000184, 2.689326000001529, 2.91447110000081, 3.139357000000018, 3.389385400001629, 3.6312610000004497, 3.922801900000195, 4.181162900000345, 4.422872800001642, 4.639621400001488, 4.847948300001008, 5.081317600001057, 5.298170400001254, 5.481397900000957, 5.722947600001135, 6.123070200001166]"	121.726311800001	121.7317332	123.224005800001	123.233396900001	NA	NA	NA	NA	NA	NA	NA	31	"02"	"2024-02-21_11h15.07.901"	"BART_exp"	"2023.2.3"	119.998464019315	"2024-02-21 11h15.16.806271 +0100"	NA
"balloon.png"	23	0	9	9	5	123.233396900001	NA	NA	NA	NA	NA	NA	NA	NA	NA	NA	NA	NA	123.2242425	123.233396900001	123.233396900001	123.233396900001	123.233396900001	123.233396900001	-0.00055439999960071	-0.00055439999960071	-0.00055439999960071	123.233396900001	129.634675500001	24	1.15	TRUE	"[-0.010185185185185186, -0.010185185185185186, -0.010185185185185186, -0.010185185185185186, -0.010185185185185186, -0.010185185185185186, -0.010185185185185186, -0.010185185185185186, -0.010185185185185186, -0.010185185185185186, -0.010185185185185186, -0.010185185185185186, -0.010185185185185186, -0.010185185185185186, -0.010185185185185186, -0.010185185185185186, -0.010185185185185186, -0.010185185185185186, -0.010185185185185186, -0.010185185185185186, -0.010185185185185186, -0.010185185185185186, -0.010185185185185186, -0.010185185185185186]"	"[-0.38796296296296295, -0.38796296296296295, -0.38796296296296295, -0.38796296296296295, -0.38796296296296295, -0.38796296296296295, -0.38796296296296295, -0.38796296296296295, -0.38796296296296295, -0.38796296296296295, -0.38796296296296295, -0.38796296296296295, -0.38796296296296295, -0.38796296296296295, -0.38796296296296295, -0.38796296296296295, -0.38796296296296295, -0.38796296296296295, -0.38796296296296295, -0.38796296296296295, -0.38796296296296295, -0.38796296296296295, -0.38796296296296295, -0.38796296296296295]"	"[1, 1, 1, 1, 1, 1, 1, 1, 1, 1, 1, 1, 1, 1, 1, 1, 1, 1, 1, 1, 1, 1, 1, 1]"	"[0, 0, 0, 0, 0, 0, 0, 0, 0, 0, 0, 0, 0, 0, 0, 0, 0, 0, 0, 0, 0, 0, 0, 0]"	"[0, 0, 0, 0, 0, 0, 0, 0, 0, 0, 0, 0, 0, 0, 0, 0, 0, 0, 0, 0, 0, 0, 0, 0]"	"[1.0500137000017276, 1.275226300000213, 1.5167200000014418, 1.725273300000481, 1.9504137000003539, 2.192092400000547, 2.4502093000010063, 2.6835277000009228, 2.9168766000002506, 3.15842000000157, 3.391988900000797, 3.62545240000145, 3.841818600001716, 4.050259300000107, 4.300299400001677, 4.517150800000309, 4.741927000000942, 4.950396300000648, 5.1506019000007655, 5.358946900001683, 5.575561800000287, 5.808852400001342, 6.067132200001652, 6.292060200001288]"	24	"[1.046381799998926, 1.271609499999613, 1.5130850999994436, 1.7217189999992115, 1.9467899999999645, 2.188578699999198, 2.446605399998589, 2.6799092999990535, 2.9132418999997753, 3.1547933999991074, 3.3883649999988847, 3.6218235999986064, 3.8381801999985328, 4.046616899999208, 4.296667699998579, 4.513508000000002, 4.738286399999197, 4.938291199998275, 5.146989899998516, 5.3553041999985, 5.571940199999517, 5.805208899999343, 6.063494499998342, 6.28844079999908]"	"[1.146262599999318, 1.3796561999988626, 1.6129532999984804, 1.83178499999849, 2.06303619999926, 2.321379299999535, 2.5464127999985067, 2.779791299999488, 3.0213396999988618, 3.263133699998434, 3.4881459999996878, 3.721376399998917, 3.938126299999567, 4.163211399998545, 4.379916299998513, 4.613282499998604, 4.84663399999954, 5.038171700000021, 5.238177999999607, 5.4548980999989, 5.679997699999149, 5.938350399999763, 6.163479899998492, 6.39679089999845]"	129.635727000001	129.640575900001	131.1328517	131.141122300001	NA	NA	NA	NA	NA	NA	NA	31	"02"	"2024-02-21_11h15.07.901"	"BART_exp"	"2023.2.3"	119.998464019315	"2024-02-21 11h15.16.806271 +0100"	NA
"balloon.png"	127	0	10	10	29	131.141122300001	NA	NA	NA	NA	NA	NA	NA	NA	NA	NA	NA	NA	131.133065600001	131.141122300001	131.141122300001	131.141122300001	131.141122300001	131.141122300001	0.00548890000027313	NA	NA	131.141122300001	138.5181285	27	1.35	FALSE	"[-0.010185185185185186, -0.010185185185185186, -0.010185185185185186, -0.010185185185185186, -0.010185185185185186, -0.010185185185185186, -0.010185185185185186, -0.010185185185185186, -0.010185185185185186, -0.010185185185185186, -0.010185185185185186, -0.010185185185185186, -0.010185185185185186, -0.010185185185185186, -0.010185185185185186, -0.010185185185185186, -0.010185185185185186, -0.010185185185185186, -0.010185185185185186, -0.010185185185185186, -0.010185185185185186, -0.010185185185185186, -0.010185185185185186, -0.010185185185185186, -0.010185185185185186, -0.010185185185185186, -0.010185185185185186, -0.010185185185185186]"	"[-0.38796296296296295, -0.38796296296296295, -0.38796296296296295, -0.38796296296296295, -0.38796296296296295, -0.38796296296296295, -0.38796296296296295, -0.38796296296296295, -0.38796296296296295, -0.38796296296296295, -0.38796296296296295, -0.38796296296296295, -0.38796296296296295, -0.38796296296296295, -0.38796296296296295, -0.38796296296296295, -0.38796296296296295, -0.38796296296296295, -0.38796296296296295, -0.38796296296296295, -0.38796296296296295, -0.38796296296296295, -0.38796296296296295, -0.38796296296296295, -0.38796296296296295, -0.38796296296296295, -0.38796296296296295, -0.38796296296296295]"	"[1, 1, 1, 1, 1, 1, 1, 1, 1, 1, 1, 1, 1, 1, 1, 1, 1, 1, 1, 1, 1, 1, 1, 1, 1, 1, 1, 0]"	"[0, 0, 0, 0, 0, 0, 0, 0, 0, 0, 0, 0, 0, 0, 0, 0, 0, 0, 0, 0, 0, 0, 0, 0, 0, 0, 0, 0]"	"[0, 0, 0, 0, 0, 0, 0, 0, 0, 0, 0, 0, 0, 0, 0, 0, 0, 0, 0, 0, 0, 0, 0, 0, 0, 0, 0, 1]"	"[0.475430000000415, 0.9422188999997161, 1.2424554999997781, 1.516733700000259, 1.783443600001192, 2.042518600001131, 2.300329800000327, 2.575384600000689, 2.8420167000003858, 3.0670645000009245, 3.308851499999946, 3.550323400000707, 3.8169697000012093, 4.133658599999762, 4.400316900000689, 4.5919284999999945, 4.808641700001317, 5.025331200000437, 5.300614699999642, 5.551942699999927, 5.758672100000695, 5.942042000000583, 6.175405600000886, 6.425767200000337, 6.6175995000012335, 6.789166800001112, 6.95815390000098, 7.383923900000809]"	27	"[0.4730820999993739, 0.9398980000005395, 1.240104299999075, 1.514348799999425, 1.7810527000001457, 2.040197199999966, 2.2979427999998734, 2.57306939999944, 3.0647005999999237, 3.306582100000014, 3.5479457000001275, 3.814593099999911, 4.131278900000325, 4.397932699999728, 4.589548800000557, 4.806257500000356, 5.0229497000000265, 5.298243699999148, 5.549717599998985, 5.7562895999999455, 5.9396546999996644, 6.173017699999036, 6.423391899999842, 6.615211899999849, 6.7869738999997935, 6.955770999999004, 7.381494699999166]"	"[0.6227581999992253, 1.0562879999997676, 1.3643078999994032, 1.6309538000004977, 1.9063597000003938, 2.156270899999072, 2.4064589999998134, 2.9312666000005265, 3.164372100000037, 3.4061259999998583, 3.65621850000025, 3.922762700000021, 4.272780699999203, 4.489420300000347, 4.691184699999212, 4.906123700000535, 5.139495499999612, 5.422858500000075, 5.6312928999996075, 5.83954520000043, 6.072929599999043, 6.3149120999987645, 6.514981799999077, 6.68978099999913, 6.852419599999848, 7.069071599999006, 7.381499099999928]"	138.519278200001	138.5244931	140.016818900001	140.0325101	NA	NA	NA	NA	NA	NA	NA	31	"02"	"2024-02-21_11h15.07.901"	"BART_exp"	"2023.2.3"	119.998464019315	"2024-02-21 11h15.16.806271 +0100"	NA
"balloon.png"	101	0	11	11	23	140.0325101	NA	NA	NA	NA	NA	NA	NA	NA	NA	NA	NA	NA	140.017032600001	140.0325101	140.0325101	140.0325101	140.0325101	140.0325101	-0.00074610000046959	-0.00074610000046959	-0.00074610000046959	140.0325101	148.160729000001	29	1.45	FALSE	"[-0.011111111111111112, -0.011111111111111112, -0.011111111111111112, -0.011111111111111112, -0.011111111111111112, -0.011111111111111112, -0.011111111111111112, -0.011111111111111112, -0.011111111111111112, -0.011111111111111112, -0.011111111111111112, -0.011111111111111112, -0.011111111111111112, -0.011111111111111112, -0.011111111111111112, -0.011111111111111112, -0.011111111111111112, -0.011111111111111112, -0.011111111111111112, -0.011111111111111112, -0.011111111111111112, -0.011111111111111112, -0.011111111111111112, -0.011111111111111112, -0.011111111111111112, -0.011111111111111112, -0.011111111111111112, -0.011111111111111112, -0.011111111111111112, -0.011111111111111112]"	"[-0.3851851851851852, -0.3851851851851852, -0.3851851851851852, -0.3851851851851852, -0.3851851851851852, -0.3851851851851852, -0.3851851851851852, -0.3851851851851852, -0.3851851851851852, -0.3851851851851852, -0.3851851851851852, -0.3851851851851852, -0.3851851851851852, -0.3851851851851852, -0.3851851851851852, -0.3851851851851852, -0.3851851851851852, -0.3851851851851852, -0.3851851851851852, -0.3851851851851852, -0.3851851851851852, -0.3851851851851852, -0.3851851851851852, -0.3851851851851852, -0.3851851851851852, -0.3851851851851852, -0.3851851851851852, -0.3851851851851852, -0.3851851851851852, -0.3851851851851852]"	"[1, 1, 1, 1, 1, 1, 1, 1, 1, 1, 1, 1, 1, 1, 1, 1, 1, 1, 1, 1, 1, 1, 1, 1, 1, 1, 1, 1, 1, 0]"	"[0, 0, 0, 0, 0, 0, 0, 0, 0, 0, 0, 0, 0, 0, 0, 0, 0, 0, 0, 0, 0, 0, 0, 0, 0, 0, 0, 0, 0, 0]"	"[0, 0, 0, 0, 0, 0, 0, 0, 0, 0, 0, 0, 0, 0, 0, 0, 0, 0, 0, 0, 0, 0, 0, 0, 0, 0, 0, 0, 0, 1]"	"[1.0417704999999842, 1.3251142999997683, 1.5588096999999834, 1.7841490999999223, 2.0417767999988428, 2.302579799999876, 2.550868199999968, 2.800747599998431, 3.0006180000000313, 3.2418957999998383, 3.4586383999994723, 3.700261899999532, 3.916902199998731, 4.117069999998421, 4.3087120999989565, 4.50870439999926, 4.708717299999989, 4.950640099999873, 5.192307399998754, 5.408724999999322, 5.650524399999995, 5.892442599999413, 6.117060999999012, 6.350607999998829, 6.542332399998486, 6.7423768999997264, 6.975808499999403, 7.200788499998453, 7.56742949999898, 8.1425550999993]"	30	"[1.0315004999993107, 1.314839499998925, 1.548565699999017, 1.7739263999992545, 2.0315111999989313, 2.2923044999988633, 2.540655999999217, 2.790646299999935, 2.990494599998783, 3.231620099999418, 3.448366700000406, 3.6900281999987783, 3.9066438999998354, 4.106805899999017, 4.2984410999997635, 4.498434199998883, 4.698461899999529, 4.940386500000386, 5.182042999998885, 5.398458399999072, 5.640254899999491, 5.882348199998887, 6.106787499998973, 6.340349399999468, 6.532075600000098, 6.732124599999224, 6.965547300000253, 7.190541899999516, 7.55716559999928, 8.132229400000142]"	"[1.156802899999093, 1.3917463999987376, 1.6736349999991944, 1.8901248999991367, 2.131449900000007, 2.398172799999884, 2.648163599998952, 2.8648474000001443, 3.098290599999018, 3.3148897999999463, 3.548241299999063, 3.789883600000394, 3.9982978999996703, 4.189910099999906, 4.38992750000034, 4.5816500000000815, 4.8066581999992195, 5.05670420000024, 5.289930099999765, 5.515127999999095, 5.74196800000027, 5.999852499999179, 6.240177499999845, 6.448543200000131, 6.615177399999084, 6.873429600000236, 7.0901147999993555, 7.27348179999899, 7.673490499999389, 8.132233899999846]"	148.1619238	148.166823400001	149.659264600001	149.672896400001	NA	NA	NA	NA	NA	NA	NA	31	"02"	"2024-02-21_11h15.07.901"	"BART_exp"	"2023.2.3"	119.998464019315	"2024-02-21 11h15.16.806271 +0100"	NA
"balloon.png"	66	0	12	12	15	149.672896400001	NA	NA	NA	NA	NA	NA	NA	NA	NA	NA	NA	NA	149.659491	149.672896400001	149.672896400001	149.672896400001	149.672896400001	149.672896400001	-0.00089959999968414	-0.00089959999968414	-0.00089959999968414	149.672896400001	155.411047400001	19	0.95	FALSE	"[0.004629629629629629, 0.004629629629629629, 0.004629629629629629, 0.004629629629629629, 0.004629629629629629, 0.004629629629629629, 0.004629629629629629, 0.004629629629629629, 0.004629629629629629, 0.004629629629629629, 0.004629629629629629, 0.004629629629629629, 0.004629629629629629, 0.004629629629629629, 0.004629629629629629, 0.004629629629629629, 0.004629629629629629, 0.004629629629629629, 0.004629629629629629, 0.004629629629629629]"	"[-0.39351851851851855, -0.39351851851851855, -0.39351851851851855, -0.39351851851851855, -0.39351851851851855, -0.39351851851851855, -0.39351851851851855, -0.39351851851851855, -0.39351851851851855, -0.39351851851851855, -0.39351851851851855, -0.39351851851851855, -0.39351851851851855, -0.39351851851851855, -0.39351851851851855, -0.39351851851851855, -0.39351851851851855, -0.39351851851851855, -0.39351851851851855, -0.39351851851851855]"	"[1, 1, 1, 1, 1, 1, 1, 1, 1, 1, 1, 1, 1, 1, 1, 1, 1, 1, 1, 0]"	"[0, 0, 0, 0, 0, 0, 0, 0, 0, 0, 0, 0, 0, 0, 0, 0, 0, 0, 0, 0]"	"[0, 0, 0, 0, 0, 0, 0, 0, 0, 0, 0, 0, 0, 0, 0, 0, 0, 0, 0, 1]"	"[1.1584911000009015, 1.5086231000004773, 1.725190900000598, 1.9916291000008641, 2.250237300000663, 2.441720200000418, 2.658383699999831, 2.85838110000077, 3.0584288999998535, 3.2439224000008835, 3.4752069999995, 3.7087028000005375, 3.966758000000482, 4.2001288999999815, 4.408535500000653, 4.633464299999105, 4.866787099999783, 5.058832299999267, 5.258684700000231, 5.750392199999624]"	20	"[1.1504087000012078, 1.5005929000017204, 1.717112400001497, 1.9835372000015923, 2.242152500000884, 2.433629600000131, 2.6502874000016163, 2.8502893000004406, 3.0503376000015123, 3.2358375000003434, 3.46711790000154, 3.700623500000802, 3.9586675000009564, 4.192034300000159, 4.40044510000007, 4.625370600000679, 4.85870850000174, 5.050768500001141, 5.250633100000414, 5.742250100000092]"	"[1.2758587000007537, 1.5667533000014373, 1.8252918000016507, 2.083540000001449, 2.3001020000010612, 2.51701310000135, 2.7335027000008267, 2.933552200000122, 3.1337263000004896, 3.358486200000698, 3.575167400000282, 3.8335950000000594, 4.066999700000451, 4.2670256000001245, 4.466971800000465, 4.7336979000010615, 4.9419334000012896, 5.1504503000014665, 5.441962200000489, 5.742254700000558]"	155.412105500001	155.4174399	156.909638200001	156.922715500001	NA	NA	NA	NA	NA	NA	NA	31	"02"	"2024-02-21_11h15.07.901"	"BART_exp"	"2023.2.3"	119.998464019315	"2024-02-21 11h15.16.806271 +0100"	NA
"balloon.png"	123	0	13	13	28	156.922715500001	NA	NA	NA	NA	NA	NA	NA	NA	NA	NA	NA	NA	156.909857100001	156.922715500001	156.922715500001	156.922715500001	156.922715500001	156.922715500001	-0.0006811999992351	-0.0006811999992351	-0.0006811999992351	156.922715500001	166.7035079	38	1.9	FALSE	"[0.004629629629629629, 0.004629629629629629, 0.004629629629629629, 0.004629629629629629, 0.004629629629629629, 0.004629629629629629, 0.004629629629629629, 0.004629629629629629, 0.004629629629629629, 0.004629629629629629, 0.004629629629629629, 0.004629629629629629, 0.004629629629629629, 0.004629629629629629, 0.004629629629629629, 0.004629629629629629, 0.004629629629629629, 0.004629629629629629, 0.004629629629629629, 0.004629629629629629, 0.004629629629629629, 0.004629629629629629, 0.004629629629629629, 0.004629629629629629, 0.004629629629629629, 0.004629629629629629, 0.004629629629629629, 0.004629629629629629, 0.004629629629629629, 0.004629629629629629, 0.004629629629629629, 0.004629629629629629, 0.004629629629629629, 0.004629629629629629, 0.004629629629629629, 0.004629629629629629, 0.004629629629629629, 0.004629629629629629, 0.004629629629629629]"	"[-0.39351851851851855, -0.39351851851851855, -0.39351851851851855, -0.39351851851851855, -0.39351851851851855, -0.39351851851851855, -0.39351851851851855, -0.39351851851851855, -0.39351851851851855, -0.39351851851851855, -0.39351851851851855, -0.39351851851851855, -0.39351851851851855, -0.39351851851851855, -0.39351851851851855, -0.39351851851851855, -0.39351851851851855, -0.39351851851851855, -0.39351851851851855, -0.39351851851851855, -0.39351851851851855, -0.39351851851851855, -0.39351851851851855, -0.39351851851851855, -0.39351851851851855, -0.39351851851851855, -0.39351851851851855, -0.39351851851851855, -0.39351851851851855, -0.39351851851851855, -0.39351851851851855, -0.39351851851851855, -0.39351851851851855, -0.39351851851851855, -0.39351851851851855, -0.39351851851851855, -0.39351851851851855, -0.39351851851851855, -0.39351851851851855]"	"[1, 1, 1, 1, 1, 1, 1, 1, 1, 1, 1, 1, 1, 1, 1, 1, 1, 1, 1, 1, 1, 1, 1, 1, 1, 1, 1, 1, 1, 1, 1, 1, 1, 1, 1, 1, 1, 1, 0]"	"[0, 0, 0, 0, 0, 0, 0, 0, 0, 0, 0, 0, 0, 0, 0, 0, 0, 0, 0, 0, 0, 0, 0, 0, 0, 0, 0, 0, 0, 0, 0, 0, 0, 0, 0, 0, 0, 0, 0]"	"[0, 0, 0, 0, 0, 0, 0, 0, 0, 0, 0, 0, 0, 0, 0, 0, 0, 0, 0, 0, 0, 0, 0, 0, 0, 0, 0, 0, 0, 0, 0, 0, 0, 0, 0, 0, 0, 0, 1]"	"[0.43372090000048047, 0.7087214999992284, 0.9585176000000502, 1.2587614999993093, 1.51685709999947, 1.7835013999992952, 2.0168205999998463, 2.2670539999999164, 2.5092657000004692, 2.733509100000447, 2.9668626000002405, 3.226069099999222, 3.4923675999998522, 3.7502598999999464, 3.994353800000681, 4.217133599999215, 4.450488700000278, 4.692361199999141, 4.942016999999396, 5.18379719999939, 5.425493700000516, 5.642174799999339, 5.867287600000054, 6.100621800000226, 6.325388999999632, 6.583832199999961, 6.783855699999549, 7.025609099999201, 7.24245879999944, 7.517183100000693, 7.7505763999997725, 7.983888499999011, 8.192240700000184, 8.408908299999894, 8.634207699999024, 8.875799600000391, 9.094332399999985, 9.27584079999906, 9.792504499999268]"	39	"[0.4261882999999216, 0.7012207000007038, 0.9509703000003356, 1.2512184000006528, 1.5093058000002202, 1.775948000000426, 2.0092619999995804, 2.259507400000075, 2.50175020000097, 2.7259553000003507, 2.9593095000000176, 3.218578300000445, 3.484877900000356, 3.742703199999596, 3.9869605000003503, 4.2095931000003475, 4.442932699999801, 4.684922800001004, 4.934487100001206, 5.176244399999632, 5.417949700000463, 5.634638999999879, 5.859747599999537, 6.093088999999964, 6.317835100000593, 6.576274500001091, 6.776306699999623, 7.018059699999867, 7.234930000000531, 7.509640199999922, 7.743023000000903, 7.976328400000057, 8.184689499999877, 8.401358999999502, 8.626664800000071, 8.868254999999408, 9.086922800001048, 9.268296100000953, 9.784884799999418]"	"[0.5423812000008184, 0.8005909000003157, 1.0508504000008543, 1.3842328999999154, 1.6424996999994619, 1.9010166000007303, 2.134510699999737, 2.392489400001068, 2.5924859999995533, 2.834606399999757, 3.0845336000002135, 3.3511075000005803, 3.617795500000284, 3.8677891999996064, 4.092999800001053, 4.325973900000463, 4.575978500000929, 4.800976000000446, 5.0425919000008435, 5.292704100000265, 5.534300000001167, 5.742841499999486, 5.976239699999496, 6.192763999999443, 6.44280819999949, 6.68438530000094, 6.901090999999724, 7.127728700001171, 7.35112029999982, 7.617796300000919, 7.834553400000004, 8.067902300001151, 8.284803500000635, 8.52635569999984, 8.751313000000664, 8.976379699999598, 9.167993500001103, 9.384645699999965, 9.78488920000018]"	166.705081800001	166.709830900001	168.2020969	168.2103737	NA	NA	NA	NA	NA	NA	NA	31	"02"	"2024-02-21_11h15.07.901"	"BART_exp"	"2023.2.3"	119.998464019315	"2024-02-21 11h15.16.806271 +0100"	NA
"balloon.png"	75	0	14	14	17	168.2103737	NA	NA	NA	NA	NA	NA	NA	NA	NA	NA	NA	NA	168.2023185	168.2103737	168.2103737	168.2103737	168.2103737	168.2103737	0.00545419999980367	0.00545419999980367	0.00545419999980367	168.2103737	175.887476600001	26	1.3	FALSE	"[0.004629629629629629, 0.004629629629629629, 0.004629629629629629, 0.004629629629629629, 0.004629629629629629, 0.004629629629629629, 0.004629629629629629, 0.004629629629629629, 0.004629629629629629, 0.004629629629629629, 0.004629629629629629, 0.004629629629629629, 0.004629629629629629, 0.004629629629629629, 0.004629629629629629, 0.004629629629629629, 0.004629629629629629, 0.004629629629629629, 0.004629629629629629, 0.004629629629629629, 0.004629629629629629, 0.004629629629629629, 0.004629629629629629, 0.004629629629629629, 0.004629629629629629, 0.004629629629629629, 0.004629629629629629]"	"[-0.39351851851851855, -0.39351851851851855, -0.39351851851851855, -0.39351851851851855, -0.39351851851851855, -0.39351851851851855, -0.39351851851851855, -0.39351851851851855, -0.39351851851851855, -0.39351851851851855, -0.39351851851851855, -0.39351851851851855, -0.39351851851851855, -0.39351851851851855, -0.39351851851851855, -0.39351851851851855, -0.39351851851851855, -0.39351851851851855, -0.39351851851851855, -0.39351851851851855, -0.39351851851851855, -0.39351851851851855, -0.39351851851851855, -0.39351851851851855, -0.39351851851851855, -0.39351851851851855, -0.39351851851851855]"	"[1, 1, 1, 1, 1, 1, 1, 1, 1, 1, 1, 1, 1, 1, 1, 1, 1, 1, 1, 1, 1, 1, 1, 1, 1, 1, 0]"	"[0, 0, 0, 0, 0, 0, 0, 0, 0, 0, 0, 0, 0, 0, 0, 0, 0, 0, 0, 0, 0, 0, 0, 0, 0, 0, 0]"	"[0, 0, 0, 0, 0, 0, 0, 0, 0, 0, 0, 0, 0, 0, 0, 0, 0, 0, 0, 0, 0, 0, 0, 0, 0, 0, 1]"	"[0.8500375999992684, 1.1002795999993396, 1.3756438000000344, 1.6167941000003339, 1.858527000000322, 2.0751450000007026, 2.286066500000743, 2.508680299999469, 2.7587762999992265, 3.008693600000697, 3.2584936000002926, 3.5003111000005447, 3.7420385999994323, 4.125477800000226, 4.333882499999163, 4.525423299999602, 4.700483900000108, 4.858702900000935, 5.458774299999277, 6.042121000000407, 6.250543300000572, 6.433883499999865, 6.6172231000000465, 6.800762999999279, 6.9757157000003644, 7.159107800000129, 7.684041500000603]"	27	"[0.8476270000010118, 1.0978821000007883, 1.3733306000012817, 1.6143843999998353, 1.8561503000000812, 2.0727624999999534, 2.283643500000835, 2.506312400000752, 2.7563901000012265, 3.0062728000011703, 3.2560716999996657, 3.497897200000807, 3.739614800000709, 4.123061199999938, 4.331468500000483, 4.523023400000966, 4.698062700001174, 4.8562751999998, 5.456355100001019, 6.0397179999999935, 6.248144299999694, 6.431469099999958, 6.61480180000035, 6.798349500000768, 6.973308399999951, 7.156701600000815, 7.681559900000138]"	"[0.9476773000005778, 1.2063292000002548, 1.4809058999999252, 1.730905200000052, 1.964301300000443, 2.1559795000011945, 2.383003599999938, 2.6392290000003413, 2.8726033000002644, 3.122617099999843, 3.3644194999997126, 3.616592700000183, 3.864428400000179, 4.231243300000642, 4.422803800000111, 4.597909100000834, 4.7727560000002995, 4.956086300000607, 5.581177199999729, 6.139636100000644, 6.331363799999963, 6.514681200000268, 6.69803630000024, 6.889663699999801, 7.064725300000646, 7.273087800000212, 7.681564500000604]"	175.888636200001	175.8937695	177.386428	177.4028578	NA	NA	NA	NA	NA	NA	NA	31	"02"	"2024-02-21_11h15.07.901"	"BART_exp"	"2023.2.3"	119.998464019315	"2024-02-21 11h15.16.806271 +0100"	NA
"balloon.png"	14	0	15	15	3	177.4028578	NA	NA	NA	NA	NA	NA	NA	NA	NA	NA	NA	NA	177.386667300001	177.4028578	177.4028578	177.4028578	177.4028578	177.4028578	-0.00036440000076254	-0.00036440000076254	-0.00036440000076254	177.4028578	181.7134537	15	0.7	TRUE	"[0.004629629629629629, 0.004629629629629629, 0.004629629629629629, 0.004629629629629629, 0.004629629629629629, 0.004629629629629629, 0.004629629629629629, 0.004629629629629629, 0.004629629629629629, 0.004629629629629629, 0.004629629629629629, 0.004629629629629629, 0.004629629629629629, 0.004629629629629629, 0.004629629629629629]"	"[-0.39351851851851855, -0.39351851851851855, -0.39351851851851855, -0.39351851851851855, -0.39351851851851855, -0.39351851851851855, -0.39351851851851855, -0.39351851851851855, -0.39351851851851855, -0.39351851851851855, -0.39351851851851855, -0.39351851851851855, -0.39351851851851855, -0.39351851851851855, -0.39351851851851855]"	"[1, 1, 1, 1, 1, 1, 1, 1, 1, 1, 1, 1, 1, 1, 1]"	"[0, 0, 0, 0, 0, 0, 0, 0, 0, 0, 0, 0, 0, 0, 0]"	"[0, 0, 0, 0, 0, 0, 0, 0, 0, 0, 0, 0, 0, 0, 0]"	"[0.64132360000076, 0.8746577999991132, 1.1084319000001415, 1.4330926999991789, 1.6664024000001518, 1.9749979999996867, 2.2164298000006966, 2.4664735999995173, 2.6832302999991953, 2.8915500000002794, 3.150028599999132, 3.4165095999996993, 3.6664897999999084, 3.916729500000656, 4.17525569999998]"	15	"[0.6304431999997178, 0.8637674000001425, 1.0975940999996965, 1.4222866000000067, 1.6555518999994092, 1.964101399998981, 2.2055866999999125, 2.4556011999993643, 2.672346199999083, 2.8806612999997014, 3.139170299999023, 3.4056146000002627, 3.6556005000002187, 3.90585049999936, 4.164386399999785]"	"[0.7305028999999195, 0.9636921000001166, 1.2391014000004361, 1.5387606999993295, 1.7638298999991093, 2.0804466999998112, 2.322057400000631, 2.572118899999623, 2.780508399999235, 3.022125199999209, 3.288895499999853, 3.539041800000632, 3.797252700000172, 4.0640076999989105, 4.305551299999934]"	181.714410800001	181.719141700001	183.211466000001	183.2195371	NA	NA	NA	NA	NA	NA	NA	31	"02"	"2024-02-21_11h15.07.901"	"BART_exp"	"2023.2.3"	119.998464019315	"2024-02-21 11h15.16.806271 +0100"	NA
"balloon.png"	105	0	16	16	24	183.2195371	NA	NA	NA	NA	NA	NA	NA	NA	NA	NA	NA	NA	183.2116781	183.2195371	183.2195371	183.2195371	183.2195371	183.2195371	0.00520139999935054	NA	NA	183.2195371	190.988414400001	31	1.55	FALSE	"[0.004629629629629629, 0.004629629629629629, 0.004629629629629629, 0.004629629629629629, 0.004629629629629629, 0.004629629629629629, 0.004629629629629629, 0.004629629629629629, 0.004629629629629629, 0.004629629629629629, 0.004629629629629629, 0.004629629629629629, 0.004629629629629629, 0.004629629629629629, 0.004629629629629629, 0.004629629629629629, 0.004629629629629629, 0.004629629629629629, 0.004629629629629629, 0.004629629629629629, 0.004629629629629629, 0.004629629629629629, 0.004629629629629629, 0.004629629629629629, 0.004629629629629629, 0.004629629629629629, 0.004629629629629629, 0.004629629629629629, 0.004629629629629629, 0.004629629629629629, 0.004629629629629629, 0.004629629629629629]"	"[-0.39351851851851855, -0.39351851851851855, -0.39351851851851855, -0.39351851851851855, -0.39351851851851855, -0.39351851851851855, -0.39351851851851855, -0.39351851851851855, -0.39351851851851855, -0.39351851851851855, -0.39351851851851855, -0.39351851851851855, -0.39351851851851855, -0.39351851851851855, -0.39351851851851855, -0.39351851851851855, -0.39351851851851855, -0.39351851851851855, -0.39351851851851855, -0.39351851851851855, -0.39351851851851855, -0.39351851851851855, -0.39351851851851855, -0.39351851851851855, -0.39351851851851855, -0.39351851851851855, -0.39351851851851855, -0.39351851851851855, -0.39351851851851855, -0.39351851851851855, -0.39351851851851855, -0.39351851851851855]"	"[1, 1, 1, 1, 1, 1, 1, 1, 1, 1, 1, 1, 1, 1, 1, 1, 1, 1, 1, 1, 1, 1, 1, 1, 1, 1, 1, 1, 1, 1, 1, 0]"	"[0, 0, 0, 0, 0, 0, 0, 0, 0, 0, 0, 0, 0, 0, 0, 0, 0, 0, 0, 0, 0, 0, 0, 0, 0, 0, 0, 0, 0, 0, 0, 0]"	"[0, 0, 0, 0, 0, 0, 0, 0, 0, 0, 0, 0, 0, 0, 0, 0, 0, 0, 0, 0, 0, 0, 0, 0, 0, 0, 0, 0, 0, 0, 0, 1]"	"[0.9629167000002781, 1.1835398000002897, 1.400214799999958, 1.6253139999989799, 1.8418029000004026, 2.0336217999993096, 2.2839265999991767, 2.525456999999733, 2.758492599999954, 2.991835099999662, 3.234058099998947, 3.467689600000085, 3.7009314999995695, 3.900756299999557, 4.1009102999996685, 4.317552599999544, 4.534240900000441, 4.758615299999292, 5.0086637000003975, 5.217007799999919, 5.433711499999845, 5.633722599999601, 5.8503273999995145, 6.058773999999175, 6.242159299999912, 6.425511600000391, 6.600375099998928, 6.808819699999731, 6.99230770000031, 7.167108999999982, 7.367147599999953, 7.775611199998821]"	32	"[0.960545899999488, 1.1811519999992015, 1.3978217999992921, 1.6229268000006414, 1.839416099999653, 2.0312426000000414, 2.2815639000000374, 2.5230785999992804, 2.756114699999671, 2.9894408000000112, 3.231678899999679, 3.465349399999468, 3.6985989999993762, 3.89840600000025, 4.098607300000367, 4.315238299999692, 4.531990400000723, 4.756218700000318, 5.006268299999647, 5.214668900000106, 5.431351999999606, 5.6313479999989795, 5.847936300000583, 6.056377499999144, 6.239767499999289, 6.423137800000404, 6.597983699999531, 6.8064278999991075, 6.989917900000364, 7.164723500000036, 7.364761099999669, 7.773155900000347]"	"[1.052095900000495, 1.2810989999998128, 1.5059440000004543, 1.7310909000007086, 1.9226108999991993, 2.1559732999994594, 2.397872699999425, 2.6393523999995523, 2.872678100000485, 3.1226980999999796, 3.364993699999104, 3.622834800000419, 3.8227860999995755, 4.01470800000061, 4.22276409999904, 4.447906100000182, 4.681223800000225, 4.906201199999487, 5.1396127000007255, 5.3228856999994605, 5.547801200000322, 5.756256399999984, 5.9562896999996156, 6.164526099999421, 6.347885799999858, 6.522994299999482, 6.706358899999032, 6.897961299999224, 7.081260900000416, 7.264646899999207, 7.4479559999999765, 7.773160499998994]"	190.9896479	190.994787200001	192.487128000001	192.5030167	NA	NA	NA	NA	NA	NA	NA	31	"02"	"2024-02-21_11h15.07.901"	"BART_exp"	"2023.2.3"	119.998464019315	"2024-02-21 11h15.16.806271 +0100"	NA
"balloon.png"	5	0	17	17	1	192.5030167	NA	NA	NA	NA	NA	NA	NA	NA	NA	NA	NA	NA	192.4873451	192.5030167	192.5030167	192.5030167	192.5030167	192.5030167	-0.00080090000119525	-0.00080090000119525	-0.00080090000119525	192.5030167	194.363944000001	6	0.25	TRUE	"[0.004629629629629629, 0.004629629629629629, 0.004629629629629629, 0.004629629629629629, 0.004629629629629629, 0.004629629629629629]"	"[-0.39351851851851855, -0.39351851851851855, -0.39351851851851855, -0.39351851851851855, -0.39351851851851855, -0.39351851851851855]"	"[1, 1, 1, 1, 1, 1]"	"[0, 0, 0, 0, 0, 0]"	"[0, 0, 0, 0, 0, 0]"	"[0.5417710999990959, 0.7752455999998347, 1.0085909999997966, 1.2585722999992868, 1.508437699998467, 1.750327499999912]"	6	"[0.5314331000008679, 0.7649268999994092, 0.9982701999997516, 1.248233700000128, 1.4981081999994785, 1.7400047999999515]"	"[0.6397233000006963, 0.8730551000007836, 1.1230524000002333, 1.3646198000005825, 1.614606900000581, 1.856484800000544]"	194.364669000001	194.370163000001	195.8623477	195.872883800001	NA	NA	NA	NA	NA	NA	NA	31	"02"	"2024-02-21_11h15.07.901"	"BART_exp"	"2023.2.3"	119.998464019315	"2024-02-21 11h15.16.806271 +0100"	NA
"balloon.png"	57	0	18	18	13	195.872883800001	NA	NA	NA	NA	NA	NA	NA	NA	NA	NA	NA	NA	195.862578800001	195.872883800001	195.872883800001	195.872883800001	195.872883800001	195.872883800001	-0.00046669999937876	-0.00046669999937876	-0.00046669999937876	195.872883800001	201.130948900001	22	1.1	FALSE	"[0.004629629629629629, 0.004629629629629629, 0.004629629629629629, 0.004629629629629629, 0.004629629629629629, 0.004629629629629629, 0.004629629629629629, 0.004629629629629629, 0.004629629629629629, 0.004629629629629629, 0.004629629629629629, 0.004629629629629629, 0.004629629629629629, 0.004629629629629629, 0.004629629629629629, 0.004629629629629629, 0.004629629629629629, 0.004629629629629629, 0.004629629629629629, 0.004629629629629629, 0.004629629629629629, 0.004629629629629629, 0.004629629629629629]"	"[-0.39351851851851855, -0.39351851851851855, -0.39351851851851855, -0.39351851851851855, -0.39351851851851855, -0.39351851851851855, -0.39351851851851855, -0.39351851851851855, -0.39351851851851855, -0.39351851851851855, -0.39351851851851855, -0.39351851851851855, -0.39351851851851855, -0.39351851851851855, -0.39351851851851855, -0.39351851851851855, -0.39351851851851855, -0.39351851851851855, -0.39351851851851855, -0.39351851851851855, -0.39351851851851855, -0.39351851851851855, -0.39351851851851855]"	"[1, 1, 1, 1, 1, 1, 1, 1, 1, 1, 1, 1, 1, 1, 1, 1, 1, 1, 1, 1, 1, 1, 0]"	"[0, 0, 0, 0, 0, 0, 0, 0, 0, 0, 0, 0, 0, 0, 0, 0, 0, 0, 0, 0, 0, 0, 0]"	"[0, 0, 0, 0, 0, 0, 0, 0, 0, 0, 0, 0, 0, 0, 0, 0, 0, 0, 0, 0, 0, 0, 1]"	"[0.5333768000000418, 0.7751802000002499, 1.0169289000004937, 1.242067200000747, 1.4419666000012512, 1.6421493000016198, 1.8503634000007878, 2.058986100000766, 2.2669443000013416, 2.5251120000011724, 2.7750895000008313, 2.9837592000003497, 3.2086437000016304, 3.4253343000000314, 3.6421153000010236, 3.8338967000017874, 4.026724700001068, 4.208733500001472, 4.392057000000932, 4.575311900000088, 4.750342000001183, 4.933770300000106, 5.26726090000011]"	23	"[0.5286960000012186, 0.7705342999997811, 1.0122542999997677, 1.2375389999997424, 1.4373429999996006, 1.6375461000006908, 1.8456791999997222, 2.0543722000002163, 2.2622778000004473, 2.5204255000007834, 2.7704030000004423, 2.97910100000081, 3.203963100000692, 3.420652099999643, 3.6374378000000434, 3.829251299999669, 4.022043700000722, 4.204065199999604, 4.387378800000079, 4.570632700000715, 4.745681100001093, 4.929089400000521, 5.262517700000899]"	"[0.6370388000013918, 0.8889132000003883, 1.1286053000003449, 1.353595900000073, 1.5536109000004217, 1.7536330000002636, 1.9536760999999387, 2.1538190000010218, 2.386944699999731, 2.6370502000008855, 2.8787859000003664, 3.1121584000011353, 3.345483000000968, 3.545543899999757, 3.7455308999997214, 3.9370576000001165, 4.13707500000055, 4.320408300000054, 4.495687100001305, 4.6705339000000095, 4.854024600001139, 5.024635600000693, 5.262521900000138]"	201.1320251	201.137148100001	202.6294471	202.6426457	NA	NA	NA	NA	NA	NA	NA	31	"02"	"2024-02-21_11h15.07.901"	"BART_exp"	"2023.2.3"	119.998464019315	"2024-02-21 11h15.16.806271 +0100"	NA
"balloon.png"	36	0	19	19	8	202.6426457	NA	NA	NA	NA	NA	NA	NA	NA	NA	NA	NA	NA	202.629663900001	202.6426457	202.6426457	202.6426457	202.6426457	202.6426457	-0.00082279999878664	-0.00082279999878664	-0.00082279999878664	202.6426457	209.356446200001	22	1.1	FALSE	"[0.004629629629629629, 0.004629629629629629, 0.004629629629629629, 0.004629629629629629, 0.004629629629629629, 0.004629629629629629, 0.004629629629629629, 0.004629629629629629, 0.004629629629629629, 0.004629629629629629, 0.004629629629629629, 0.004629629629629629, 0.004629629629629629, 0.004629629629629629, 0.004629629629629629, 0.004629629629629629, 0.004629629629629629, 0.004629629629629629, 0.004629629629629629, 0.004629629629629629, 0.004629629629629629, 0.004629629629629629, 0.004629629629629629]"	"[-0.39351851851851855, -0.39351851851851855, -0.39351851851851855, -0.39351851851851855, -0.39351851851851855, -0.39351851851851855, -0.39351851851851855, -0.39351851851851855, -0.39351851851851855, -0.39351851851851855, -0.39351851851851855, -0.39351851851851855, -0.39351851851851855, -0.39351851851851855, -0.39351851851851855, -0.39351851851851855, -0.39351851851851855, -0.39351851851851855, -0.39351851851851855, -0.39351851851851855, -0.39351851851851855, -0.39351851851851855, -0.39351851851851855]"	"[1, 1, 1, 1, 1, 1, 1, 1, 1, 1, 1, 1, 1, 1, 1, 1, 1, 1, 1, 1, 1, 1, 0]"	"[0, 0, 0, 0, 0, 0, 0, 0, 0, 0, 0, 0, 0, 0, 0, 0, 0, 0, 0, 0, 0, 0, 0]"	"[0, 0, 0, 0, 0, 0, 0, 0, 0, 0, 0, 0, 0, 0, 0, 0, 0, 0, 0, 0, 0, 0, 1]"	"[0.4001802000002499, 0.6837307999994664, 0.991757100000541, 1.2673345999992307, 1.575100800000655, 1.8085859999991953, 2.0673669000007067, 2.33371679999982, 2.5837322999996104, 2.8440437000008387, 3.0920418000005157, 3.3586162999999942, 3.6087497000007716, 4.250524900000528, 4.5586829999992915, 4.869256800000585, 5.117008200000782, 5.342050299999755, 5.533687999999529, 5.733658600000126, 6.025840399999652, 6.2924144999997225, 6.725640299999213]"	23	"[0.39252639999904204, 0.6760990000002494, 0.9840997999999672, 1.2596780000003491, 1.5674435999990237, 1.8009321999998065, 2.059757699998954, 2.3260835999990377, 2.5761031999991246, 2.8363864999992074, 3.08438120000028, 3.3509562999988702, 3.6011008999994374, 4.242919000000256, 4.5510315999999875, 4.8618692999989435, 5.109348699999828, 5.334397599999647, 5.5260289999987435, 5.726012499999342, 6.018214399999124, 6.284776700000293, 6.7179204000003665]"	"[0.4927062999995542, 0.8006562999999005, 1.0925802000001568, 1.3840261999994254, 1.676118299999871, 1.9173405999990791, 2.184065699999337, 2.4340591999989556, 2.7092744000001403, 2.967421800000011, 3.24256349999996, 3.4591755000001285, 3.7508476999992126, 4.384251199999198, 4.700921100000414, 4.992564799998945, 5.225917399999162, 5.44253260000005, 5.634381099998791, 5.844104199999492, 6.17592650000006, 6.401288799999747, 6.717928199999733]"	209.357535300001	209.3627698	210.8551157	210.8728479	NA	NA	NA	NA	NA	NA	NA	31	"02"	"2024-02-21_11h15.07.901"	"BART_exp"	"2023.2.3"	119.998464019315	"2024-02-21 11h15.16.806271 +0100"	NA
"balloon.png"	92	0	20	20	21	210.8728479	NA	NA	NA	NA	NA	NA	NA	NA	NA	NA	NA	NA	210.8553364	210.8728479	210.8728479	210.8728479	210.8728479	210.8728479	-0.00069509999957517	-0.00069509999957517	-0.00069509999957517	210.8728479	214.5649546	12	0.6	FALSE	"[0.004629629629629629, 0.004629629629629629, 0.004629629629629629, 0.004629629629629629, 0.004629629629629629, 0.004629629629629629, 0.004629629629629629, 0.004629629629629629, 0.004629629629629629, 0.004629629629629629, 0.004629629629629629, 0.004629629629629629, 0.004629629629629629]"	"[-0.39351851851851855, -0.39351851851851855, -0.39351851851851855, -0.39351851851851855, -0.39351851851851855, -0.39351851851851855, -0.39351851851851855, -0.39351851851851855, -0.39351851851851855, -0.39351851851851855, -0.39351851851851855, -0.39351851851851855, -0.39351851851851855]"	"[1, 1, 1, 1, 1, 1, 1, 1, 1, 1, 1, 1, 0]"	"[0, 0, 0, 0, 0, 0, 0, 0, 0, 0, 0, 0, 0]"	"[0, 0, 0, 0, 0, 0, 0, 0, 0, 0, 0, 0, 1]"	"[0.32502840000051947, 0.5667294000013499, 0.8003026000005775, 1.000342700001056, 1.1919339000014588, 1.3919268000008742, 1.6171563000007154, 1.8583918000003905, 2.1170981000013853, 2.358428700001241, 2.6008448000011413, 2.867380800000319, 3.7085554000004777]"	13	"[0.3128328999991936, 0.5545303999988391, 0.7881198999984917, 0.98815839999952, 1.1797356999995827, 1.3797429999995074, 1.604984699999477, 1.846178099998724, 2.1048921999990853, 2.3462155999986862, 2.5886501999993925, 2.8552000999989104, 3.696277299999565]"	"[0.42915419999917503, 0.6793147999997018, 0.8793740999990405, 1.079359299999851, 1.2961159999995289, 1.4960894999985612, 1.7380178999992495, 1.971390299999257, 2.2381637999988016, 2.4883350000000064, 2.729462399998738, 2.989336299999195, 3.696281699998508]"	214.565835700001	214.5714422	216.063743100001	216.073006000001	NA	NA	NA	NA	NA	NA	NA	31	"02"	"2024-02-21_11h15.07.901"	"BART_exp"	"2023.2.3"	119.998464019315	"2024-02-21 11h15.16.806271 +0100"	NA
"balloon.png"	71	0	21	21	16	216.073006000001	NA	NA	NA	NA	NA	NA	NA	NA	NA	NA	NA	NA	216.063957	216.073006000001	216.073006000001	216.073006000001	216.073006000001	216.073006000001	-0.00033989999974437	-0.00033989999974437	-0.00033989999974437	216.073006000001	225.540777800001	30	1.5	FALSE	"[0.004629629629629629, 0.004629629629629629, 0.004629629629629629, 0.004629629629629629, 0.004629629629629629, 0.004629629629629629, 0.004629629629629629, 0.004629629629629629, 0.004629629629629629, 0.004629629629629629, 0.004629629629629629, 0.004629629629629629, 0.004629629629629629, 0.004629629629629629, 0.004629629629629629, 0.004629629629629629, 0.004629629629629629, 0.004629629629629629, 0.004629629629629629, 0.004629629629629629, 0.004629629629629629, 0.004629629629629629, 0.004629629629629629, 0.004629629629629629, 0.004629629629629629, 0.004629629629629629, 0.004629629629629629, 0.004629629629629629, 0.004629629629629629, 0.004629629629629629, 0.004629629629629629]"	"[-0.39351851851851855, -0.39351851851851855, -0.39351851851851855, -0.39351851851851855, -0.39351851851851855, -0.39351851851851855, -0.39351851851851855, -0.39351851851851855, -0.39351851851851855, -0.39351851851851855, -0.39351851851851855, -0.39351851851851855, -0.39351851851851855, -0.39351851851851855, -0.39351851851851855, -0.39351851851851855, -0.39351851851851855, -0.39351851851851855, -0.39351851851851855, -0.39351851851851855, -0.39351851851851855, -0.39351851851851855, -0.39351851851851855, -0.39351851851851855, -0.39351851851851855, -0.39351851851851855, -0.39351851851851855, -0.39351851851851855, -0.39351851851851855, -0.39351851851851855, -0.39351851851851855]"	"[1, 1, 1, 1, 1, 1, 1, 1, 1, 1, 1, 1, 1, 1, 1, 1, 1, 1, 1, 1, 1, 1, 1, 1, 1, 1, 1, 1, 1, 1, 0]"	"[0, 0, 0, 0, 0, 0, 0, 0, 0, 0, 0, 0, 0, 0, 0, 0, 0, 0, 0, 0, 0, 0, 0, 0, 0, 0, 0, 0, 0, 0, 0]"	"[0, 0, 0, 0, 0, 0, 0, 0, 0, 0, 0, 0, 0, 0, 0, 0, 0, 0, 0, 0, 0, 0, 0, 0, 0, 0, 0, 0, 0, 0, 1]"	"[0.31675559999894176, 0.5582825999990746, 0.7669344999994792, 0.9764678999999887, 1.2251997999992454, 1.450175299998591, 1.683522899998934, 1.933601999999155, 2.1670915999984572, 2.392046199998731, 2.633728199998586, 2.8751937999986694, 3.108585799998764, 3.3504758999988553, 3.6087848999995913, 3.8338702999990346, 4.085351099998661, 4.375552999999854, 4.71714509999947, 5.2173535999991145, 5.517239199998585, 5.734017899998435, 5.934126099999048, 6.117499799998768, 6.308798899999601, 7.059014799999204, 7.292305599999963, 7.484148699999423, 8.742341199998918, 8.9758157999986, 9.475714700000026]"	31	"[0.31293040000127803, 0.5544521000010718, 0.7631340000007185, 0.9729612999999517, 1.2213639000001422, 1.4463548000003357, 1.6796935000002122, 1.9297724000007292, 2.1632743000009214, 2.3882188999996288, 2.629897599999822, 2.871360999999524, 3.1047567000005074, 3.346669500000644, 3.6049588000005315, 3.830050599999595, 4.0815256999994745, 4.371745000000374, 4.7133181000008335, 5.21355930000027, 5.513408099999651, 5.73018890000094, 5.930297200000496, 6.113671000000977, 6.304971400000795, 7.055177300000651, 7.288472399999591, 7.480328900001041, 8.738512899999478, 8.971988499999497, 9.471833300000071]"	"[0.4209656000002724, 0.6710542000000714, 0.8876194000004034, 1.1210745999997016, 1.3462278000006336, 1.5628911000003427, 1.8128360000009707, 2.0629860000008193, 2.3045658000010008, 2.5379286000006687, 2.7629713999995147, 3.0212744000000384, 3.2464230000005045, 3.488015599999926, 3.7213317999994615, 3.963138799999797, 4.196458600001279, 4.538069399999586, 4.863158100000874, 5.371496400000979, 5.630009599999539, 5.8214537000003475, 5.996841800000766, 6.20485010000084, 6.413592799999606, 7.131338900000628, 7.380132600001161, 7.554897800000617, 8.846653399999923, 9.07169580000118, 9.471837799999776]"	225.5421277	225.547184000001	227.039447700001	227.0526868	NA	NA	NA	NA	NA	NA	NA	31	"02"	"2024-02-21_11h15.07.901"	"BART_exp"	"2023.2.3"	119.998464019315	"2024-02-21 11h15.16.806271 +0100"	NA
"balloon.png"	79	0	22	22	18	227.0526868	NA	NA	NA	NA	NA	NA	NA	NA	NA	NA	NA	NA	227.039666800001	227.0526868	227.0526868	227.0526868	227.0526868	227.0526868	-0.00092570000015257	-0.00092570000015257	-0.00092570000015257	227.0526868	236.866828400001	36	1.8	FALSE	"[0.004629629629629629, 0.004629629629629629, 0.004629629629629629, 0.004629629629629629, 0.004629629629629629, 0.004629629629629629, 0.004629629629629629, 0.004629629629629629, 0.004629629629629629, 0.004629629629629629, 0.004629629629629629, 0.004629629629629629, 0.004629629629629629, 0.004629629629629629, 0.004629629629629629, 0.004629629629629629, 0.004629629629629629, 0.004629629629629629, 0.004629629629629629, 0.004629629629629629, 0.004629629629629629, 0.004629629629629629, 0.004629629629629629, 0.004629629629629629, 0.004629629629629629, 0.004629629629629629, 0.004629629629629629, 0.004629629629629629, 0.004629629629629629, 0.004629629629629629, 0.004629629629629629, 0.004629629629629629, 0.004629629629629629, 0.004629629629629629, 0.004629629629629629, 0.004629629629629629, 0.004629629629629629]"	"[-0.39351851851851855, -0.39351851851851855, -0.39351851851851855, -0.39351851851851855, -0.39351851851851855, -0.39351851851851855, -0.39351851851851855, -0.39351851851851855, -0.39351851851851855, -0.39351851851851855, -0.39351851851851855, -0.39351851851851855, -0.39351851851851855, -0.39351851851851855, -0.39351851851851855, -0.39351851851851855, -0.39351851851851855, -0.39351851851851855, -0.39351851851851855, -0.39351851851851855, -0.39351851851851855, -0.39351851851851855, -0.39351851851851855, -0.39351851851851855, -0.39351851851851855, -0.39351851851851855, -0.39351851851851855, -0.39351851851851855, -0.39351851851851855, -0.39351851851851855, -0.39351851851851855, -0.39351851851851855, -0.39351851851851855, -0.39351851851851855, -0.39351851851851855, -0.39351851851851855, -0.39351851851851855]"	"[1, 1, 1, 1, 1, 1, 1, 1, 1, 1, 1, 1, 1, 1, 1, 1, 1, 1, 1, 1, 1, 1, 1, 1, 1, 1, 1, 1, 1, 1, 1, 1, 1, 1, 1, 1, 0]"	"[0, 0, 0, 0, 0, 0, 0, 0, 0, 0, 0, 0, 0, 0, 0, 0, 0, 0, 0, 0, 0, 0, 0, 0, 0, 0, 0, 0, 0, 0, 0, 0, 0, 0, 0, 0, 0]"	"[0, 0, 0, 0, 0, 0, 0, 0, 0, 0, 0, 0, 0, 0, 0, 0, 0, 0, 0, 0, 0, 0, 0, 0, 0, 0, 0, 0, 0, 0, 0, 0, 0, 0, 0, 0, 1]"	"[1.0585455000000366, 1.3335673000001407, 1.5753946999993786, 1.8338226999985636, 2.0835394999994605, 2.3336461999988387, 2.5754157999999734, 2.825651699999071, 3.063065899999856, 3.2919234999990294, 3.5339135999984137, 3.767522599999211, 4.000962199999776, 4.2434053999986645, 4.467621899999358, 4.7087386999992304, 4.958703199999945, 5.184333299999707, 5.4357174999986455, 5.683871100000033, 5.933819799998673, 6.159007999998721, 6.4088046999986545, 6.625751899999159, 6.850663899998835, 7.092281399998683, 7.310959299999013, 7.525605199998608, 7.759131899998465, 8.017409799998859, 8.259096099998715, 8.500639199999569, 8.73408019999988, 8.959113799999614, 9.167664599999625, 9.359109299999545, 9.826002099998732]"	37	"[1.0508472000001348, 1.3258788000002824, 1.5677095999999437, 1.8261452000006102, 2.075844799999686, 2.325953199999276, 2.567729899999904, 2.817953800000396, 3.0553717000002507, 3.2842252000009466, 3.5262182999995275, 3.759849899999608, 3.9932810999998765, 4.235857899999246, 4.459982599999421, 4.7010568999994575, 4.951006600000255, 5.176692299999559, 5.428136200000154, 5.676224599999841, 5.926164099999369, 6.1513231999997515, 6.401110200000403, 6.618059899999935, 6.842968700000711, 7.084584800000812, 7.303258100000676, 7.5179093000006105, 7.751457599999412, 8.009712499999296, 8.251400600000125, 8.492939300000216, 8.726385500000106, 8.951419499999247, 9.160004299999855, 9.351418899999771, 9.818248999999923]"	"[1.192451799999617, 1.4257677999994485, 1.6840642999995907, 1.9258090999992419, 2.1840785999993386, 2.442531799999415, 2.68407119999938, 2.9259779999993043, 3.1592316000005667, 3.400791300000492, 3.6423247000002448, 3.867503499999657, 4.1098259999998845, 4.3432362000003195, 4.567570400000477, 4.826318999999785, 5.076128000000608, 5.300978600000235, 5.559640199999194, 5.809382499999629, 6.04344090000086, 6.301044399999228, 6.526044399999591, 6.742697499999849, 6.975901399999202, 7.184452499999679, 7.417819599999348, 7.626060799999323, 7.876024799999868, 8.14274690000093, 8.359402100000807, 8.592773000000307, 8.851312400000097, 9.042786899999555, 9.259536899999148, 9.4429283999998, 9.818253199999162]"	236.868195000001	236.874189100001	238.365316900001	238.373322700001	NA	NA	NA	NA	NA	NA	NA	31	"02"	"2024-02-21_11h15.07.901"	"BART_exp"	"2023.2.3"	119.998464019315	"2024-02-21 11h15.16.806271 +0100"	NA
"balloon.png"	10	0	23	23	2	238.373322700001	NA	NA	NA	NA	NA	NA	NA	NA	NA	NA	NA	NA	238.3655328	238.373322700001	238.373322700001	238.373322700001	238.373322700001	238.373322700001	0.00519970000095781	0.00519970000095781	0.00519970000095781	238.373322700001	241.659026200001	11	0.5	TRUE	"[0.004629629629629629, 0.004629629629629629, 0.004629629629629629, 0.004629629629629629, 0.004629629629629629, 0.004629629629629629, 0.004629629629629629, 0.004629629629629629, 0.004629629629629629, 0.004629629629629629, 0.004629629629629629]"	"[-0.39351851851851855, -0.39351851851851855, -0.39351851851851855, -0.39351851851851855, -0.39351851851851855, -0.39351851851851855, -0.39351851851851855, -0.39351851851851855, -0.39351851851851855, -0.39351851851851855, -0.39351851851851855]"	"[1, 1, 1, 1, 1, 1, 1, 1, 1, 1, 1]"	"[0, 0, 0, 0, 0, 0, 0, 0, 0, 0, 0]"	"[0, 0, 0, 0, 0, 0, 0, 0, 0, 0, 0]"	"[0.8001614000004338, 1.050443300000552, 1.27546650000113, 1.517411599999832, 1.758469200000036, 1.9918179000014788, 2.2177399000011064, 2.458713900001385, 2.7171080999996775, 2.9584172000013496, 3.183671400000094]"	11	"[0.797782499999812, 1.0480791999998473, 1.2731011000014405, 1.5150348000006488, 1.756075500001316, 1.9894225999996706, 2.21540559999994, 2.456337600000552, 2.7148183999997855, 2.9560304000006, 3.1813411000002816]"	"[0.9310424000013882, 1.131178200001159, 1.3892250000008062, 1.631354700000884, 1.8559067000005598, 2.0892813000009482, 2.3314375999998447, 2.5892615000011574, 2.822616500001459, 3.0559769999999844, 3.2813122000006842]"	241.6598992	241.6649844	243.1572368	243.173197300001	NA	NA	NA	NA	NA	NA	NA	31	"02"	"2024-02-21_11h15.07.901"	"BART_exp"	"2023.2.3"	119.998464019315	"2024-02-21 11h15.16.806271 +0100"	NA
"balloon.png"	44	0	24	24	10	243.173197300001	NA	NA	NA	NA	NA	NA	NA	NA	NA	NA	NA	NA	243.1574521	243.173197300001	243.173197300001	243.173197300001	243.173197300001	243.173197300001	-0.00086040000132925	-0.00086040000132925	-0.00086040000132925	243.173197300001	252.0177855	38	1.9	FALSE	"[0.004629629629629629, 0.004629629629629629, 0.004629629629629629, 0.004629629629629629, 0.004629629629629629, 0.004629629629629629, 0.004629629629629629, 0.004629629629629629, 0.004629629629629629, 0.004629629629629629, 0.004629629629629629, 0.004629629629629629, 0.004629629629629629, 0.004629629629629629, 0.004629629629629629, 0.004629629629629629, 0.004629629629629629, 0.004629629629629629, 0.004629629629629629, 0.004629629629629629, 0.004629629629629629, 0.004629629629629629, 0.004629629629629629, 0.004629629629629629, 0.004629629629629629, 0.004629629629629629, 0.004629629629629629, 0.004629629629629629, 0.004629629629629629, 0.004629629629629629, 0.004629629629629629, 0.004629629629629629, 0.004629629629629629, 0.004629629629629629, 0.004629629629629629, 0.004629629629629629, 0.004629629629629629, 0.004629629629629629, 0.004629629629629629]"	"[-0.39351851851851855, -0.39351851851851855, -0.39351851851851855, -0.39351851851851855, -0.39351851851851855, -0.39351851851851855, -0.39351851851851855, -0.39351851851851855, -0.39351851851851855, -0.39351851851851855, -0.39351851851851855, -0.39351851851851855, -0.39351851851851855, -0.39351851851851855, -0.39351851851851855, -0.39351851851851855, -0.39351851851851855, -0.39351851851851855, -0.39351851851851855, -0.39351851851851855, -0.39351851851851855, -0.39351851851851855, -0.39351851851851855, -0.39351851851851855, -0.39351851851851855, -0.39351851851851855, -0.39351851851851855, -0.39351851851851855, -0.39351851851851855, -0.39351851851851855, -0.39351851851851855, -0.39351851851851855, -0.39351851851851855, -0.39351851851851855, -0.39351851851851855, -0.39351851851851855, -0.39351851851851855, -0.39351851851851855, -0.39351851851851855]"	"[1, 1, 1, 1, 1, 1, 1, 1, 1, 1, 1, 1, 1, 1, 1, 1, 1, 1, 1, 1, 1, 1, 1, 1, 1, 1, 1, 1, 1, 1, 1, 1, 1, 1, 1, 1, 1, 1, 0]"	"[0, 0, 0, 0, 0, 0, 0, 0, 0, 0, 0, 0, 0, 0, 0, 0, 0, 0, 0, 0, 0, 0, 0, 0, 0, 0, 0, 0, 0, 0, 0, 0, 0, 0, 0, 0, 0, 0, 0]"	"[0, 0, 0, 0, 0, 0, 0, 0, 0, 0, 0, 0, 0, 0, 0, 0, 0, 0, 0, 0, 0, 0, 0, 0, 0, 0, 0, 0, 0, 0, 0, 0, 0, 0, 0, 0, 0, 0, 1]"	"[0.6347790999989229, 0.8504647999998269, 1.0503914000000805, 1.24190389999967, 1.4587107999996078, 1.683764199999132, 1.8752889999996114, 2.1004044999990583, 2.2920979999998963, 2.483833799999047, 2.6505403999999544, 2.842161999999007, 3.0505861999990884, 3.2588357999993605, 3.47545910000008, 3.700574200000119, 3.917213200000333, 4.133778699999311, 4.342059999999037, 4.5587067999986175, 4.785709799998585, 5.000537500000064, 5.217205099999774, 5.400830599999608, 5.617422899998928, 5.800806299999749, 6.000887199999852, 6.208838700000342, 6.4016433999986475, 6.592143199999555, 6.800750099999277, 7.008851099999447, 7.267740600000252, 7.48427189999893, 7.717283099998895, 7.917280699999537, 8.150675400000182, 8.342329999999492, 8.85920729999998]"	39	"[0.6249207000000752, 0.8406484000006458, 1.0405577000001358, 1.2320596000008663, 1.448882800001229, 1.6739213000000746, 1.8654335000010178, 2.0905595000003814, 2.282266600001094, 2.473981900000581, 2.640710900001068, 2.8323171000010916, 3.040759200001048, 3.2490043000016158, 3.465610500001276, 3.6907346000007237, 3.9073676000007254, 4.123922400000083, 4.332210400001713, 4.548849100001462, 4.775848400000541, 4.9906895000003715, 5.207354699999996, 5.391000000001441, 5.607573500001308, 5.790954699999929, 5.991046800001641, 6.198987100000522, 6.39183900000171, 6.5822880000014266, 6.790918900000179, 6.999004600000262, 7.257996100001037, 7.474556700000903, 7.7074667000015324, 7.907474500001626, 8.140823900001124, 8.33249380000052, 8.849293000001126]"	"[0.7317123000011634, 0.9402260000006208, 1.140260300000591, 1.3419510000003356, 1.5484477000009065, 1.7402777000006608, 1.965277799999967, 2.198618800000986, 2.3735824000013963, 2.5485934000007546, 2.7319063000013557, 2.948632400000861, 3.1486750000003667, 3.348674300001221, 3.5690012000013667, 3.7904556000012235, 4.0071819000004325, 4.223819000000731, 4.432124200000544, 4.648800300001312, 4.865505100000519, 5.099741400001221, 5.315450500000225, 5.4988233000003675, 5.7075791000006575, 5.89883060000102, 6.0910665999999765, 6.290983600001709, 6.490974600001209, 6.707488100000774, 6.898920100000396, 7.1911396000014065, 7.398906400001579, 7.591045700000905, 7.798941800001558, 8.015643300001102, 8.232366000000184, 8.440667300001223, 8.849297300001126]"	252.019274400001	252.024028900001	253.517888	253.533081900001	NA	NA	NA	NA	NA	NA	NA	31	"02"	"2024-02-21_11h15.07.901"	"BART_exp"	"2023.2.3"	119.998464019315	"2024-02-21 11h15.16.806271 +0100"	NA
"balloon.png"	27	0	25	25	6	253.533081900001	NA	NA	NA	NA	NA	NA	NA	NA	NA	NA	NA	NA	253.5181562	253.533081900001	253.533081900001	253.533081900001	253.533081900001	253.533081900001	0.00037240000165184	0.00037240000165184	0.00037240000165184	253.533081900001	260.4681213	23	1.15	FALSE	"[0.004629629629629629, 0.004629629629629629, 0.004629629629629629, 0.004629629629629629, 0.004629629629629629, 0.004629629629629629, 0.004629629629629629, 0.004629629629629629, 0.004629629629629629, 0.004629629629629629, 0.004629629629629629, 0.004629629629629629, 0.004629629629629629, 0.004629629629629629, 0.004629629629629629, 0.004629629629629629, 0.004629629629629629, 0.004629629629629629, 0.004629629629629629, 0.004629629629629629, 0.004629629629629629, 0.004629629629629629, 0.004629629629629629, 0.004629629629629629]"	"[-0.39351851851851855, -0.39351851851851855, -0.39351851851851855, -0.39351851851851855, -0.39351851851851855, -0.39351851851851855, -0.39351851851851855, -0.39351851851851855, -0.39351851851851855, -0.39351851851851855, -0.39351851851851855, -0.39351851851851855, -0.39351851851851855, -0.39351851851851855, -0.39351851851851855, -0.39351851851851855, -0.39351851851851855, -0.39351851851851855, -0.39351851851851855, -0.39351851851851855, -0.39351851851851855, -0.39351851851851855, -0.39351851851851855, -0.39351851851851855]"	"[1, 1, 1, 1, 1, 1, 1, 1, 1, 1, 1, 1, 1, 1, 1, 1, 1, 1, 1, 1, 1, 1, 1, 0]"	"[0, 0, 0, 0, 0, 0, 0, 0, 0, 0, 0, 0, 0, 0, 0, 0, 0, 0, 0, 0, 0, 0, 0, 0]"	"[0, 0, 0, 0, 0, 0, 0, 0, 0, 0, 0, 0, 0, 0, 0, 0, 0, 0, 0, 0, 0, 0, 0, 1]"	"[0.7483611999996356, 0.9900517999994918, 1.2233827999989444, 1.4654255999994348, 1.7071611999999732, 1.9236125000006723, 2.1320837999992364, 2.3236390000001848, 2.5319660999994085, 2.748692099999971, 2.977512299999944, 3.200261899999532, 3.406886900000245, 3.6320245999995677, 3.8402559000005567, 4.0404987999991135, 4.240641000000323, 4.4512159999994765, 4.657140699999218, 5.5655480999994325, 5.765506899999309, 5.957132899999124, 6.440564099999392, 6.948707399998966]"	24	"[0.7392717000002449, 0.9809550999998464, 1.2142856999998912, 1.45634710000013, 1.6982626000008167, 1.9145160999996733, 2.1230009000009886, 2.3145394000002852, 2.5228788000003988, 2.7395918000001984, 2.968416400000933, 3.1911577000009856, 3.397803300000305, 3.6229246000002604, 3.831160400000954, 4.03141610000057, 4.2316021000006, 4.442291299999852, 4.648050900001181, 5.556480900000679, 5.756430700001147, 5.9480349000004935, 6.431459000001269, 6.939555500001006]"	"[0.8558676000011474, 1.0890725999997812, 1.322720300000583, 1.5726792000004934, 1.8142330999999103, 2.0060509000013553, 2.2309500000010303, 2.4227771000005305, 2.6309770999996545, 2.8476745000007213, 3.0727851999999984, 3.289453200000935, 3.506122000000687, 3.714442600001348, 3.939575000000332, 4.139742100000149, 4.323217000001023, 4.531092799999897, 4.7311312000001635, 5.664559400000144, 5.856425600000875, 6.039623399999982, 6.547887000000628, 6.9395604000001185]"	260.469661500001	260.4746099	261.966764500001	261.975594200001	NA	NA	NA	NA	NA	NA	NA	31	"02"	"2024-02-21_11h15.07.901"	"BART_exp"	"2023.2.3"	119.998464019315	"2024-02-21 11h15.16.806271 +0100"	NA
"balloon.png"	49	0	26	26	11	261.975594200001	NA	NA	NA	NA	NA	NA	NA	NA	NA	NA	NA	NA	261.966975400001	261.975594200001	261.975594200001	261.975594200001	261.975594200001	261.975594200001	0.0060049000003346	0.0060049000003346	0.0060049000003346	261.975594200001	271.418973	35	1.75	FALSE	"[0.004629629629629629, 0.004629629629629629, 0.004629629629629629, 0.004629629629629629, 0.004629629629629629, 0.004629629629629629, 0.004629629629629629, 0.004629629629629629, 0.004629629629629629, 0.004629629629629629, 0.004629629629629629, 0.004629629629629629, 0.004629629629629629, 0.004629629629629629, 0.004629629629629629, 0.004629629629629629, 0.004629629629629629, 0.004629629629629629, 0.004629629629629629, 0.004629629629629629, 0.004629629629629629, 0.004629629629629629, 0.004629629629629629, 0.004629629629629629, 0.004629629629629629, 0.004629629629629629, 0.004629629629629629, 0.004629629629629629, 0.004629629629629629, 0.004629629629629629, 0.004629629629629629, 0.004629629629629629, 0.004629629629629629, 0.004629629629629629, 0.004629629629629629, 0.004629629629629629]"	"[-0.39351851851851855, -0.39351851851851855, -0.39351851851851855, -0.39351851851851855, -0.39351851851851855, -0.39351851851851855, -0.39351851851851855, -0.39351851851851855, -0.39351851851851855, -0.39351851851851855, -0.39351851851851855, -0.39351851851851855, -0.39351851851851855, -0.39351851851851855, -0.39351851851851855, -0.39351851851851855, -0.39351851851851855, -0.39351851851851855, -0.39351851851851855, -0.39351851851851855, -0.39351851851851855, -0.39351851851851855, -0.39351851851851855, -0.39351851851851855, -0.39351851851851855, -0.39351851851851855, -0.39351851851851855, -0.39351851851851855, -0.39351851851851855, -0.39351851851851855, -0.39351851851851855, -0.39351851851851855, -0.39351851851851855, -0.39351851851851855, -0.39351851851851855, -0.39351851851851855]"	"[1, 1, 1, 1, 1, 1, 1, 1, 1, 1, 1, 1, 1, 1, 1, 1, 1, 1, 1, 1, 1, 1, 1, 1, 1, 1, 1, 1, 1, 1, 1, 1, 1, 1, 1, 0]"	"[0, 0, 0, 0, 0, 0, 0, 0, 0, 0, 0, 0, 0, 0, 0, 0, 0, 0, 0, 0, 0, 0, 0, 0, 0, 0, 0, 0, 0, 0, 0, 0, 0, 0, 0, 0]"	"[0, 0, 0, 0, 0, 0, 0, 0, 0, 0, 0, 0, 0, 0, 0, 0, 0, 0, 0, 0, 0, 0, 0, 0, 0, 0, 0, 0, 0, 0, 0, 0, 0, 0, 0, 1]"	"[0.5252994000002218, 0.7434824000010849, 0.9753416000003199, 1.1836596000011923, 1.3837550000007468, 1.6005216000012297, 1.8171340999997483, 2.05049930000132, 2.292095100001461, 2.5003014000012627, 2.725445600000967, 2.958796599999914, 3.183698500000901, 3.409175000000687, 3.6257038000003377, 3.850387700000283, 4.117081500000495, 4.359015300000465, 4.609302700000626, 4.850739800000156, 5.109216700000616, 5.359187199999724, 5.584037900000112, 5.842689700000847, 6.12572100000034, 6.542557700000543, 6.900604899999962, 7.092278400001305, 7.283995700001469, 7.475567700001193, 7.642492900000434, 8.042496900001424, 8.267484300000433, 8.44252250000136, 8.625857099999848, 9.450904000001174]"	36	"[0.5226901000005455, 0.741005400001086, 0.9727240000011079, 1.181050099999993, 1.3811585000003106, 1.5979311000010057, 1.81452150000041, 2.0478827000006277, 2.2894845999999234, 2.497685800000909, 2.722832400000698, 2.9561866000003647, 3.1810817000005045, 3.4066005000004225, 3.6230950000008306, 3.8477837999998883, 4.1144596000012825, 4.35640290000083, 4.606699400001162, 4.848134300000311, 5.106619399999545, 5.356568700000935, 5.5814250000003085, 5.840112699999736, 6.1231320000006235, 6.540009300000747, 6.897987800000919, 7.089693699999771, 7.281375100001242, 7.472946600000796, 7.639903100000083, 8.039874400001281, 8.264867199999571, 8.43990440000016, 8.623237699999663, 9.448222600000008]"	"[0.6307056000005105, 0.8407705000008718, 1.0730025000011665, 1.2807776999998168, 1.4809079999995447, 1.7142564000005223, 1.930932200000825, 2.1642544999995152, 2.3976075000009587, 2.614270600000964, 2.839441899999656, 3.064294699999664, 3.2808607000006305, 3.5061733000002278, 3.7394609000002674, 3.9896275000010064, 4.239595799999734, 4.489758600000641, 4.739700199999788, 4.973149200000989, 5.223420800000895, 5.464524500001062, 5.714590999999928, 5.947854400001233, 6.247825700000249, 6.664523900000859, 6.989643300001262, 7.172952700000678, 7.356276800001069, 7.54796720000013, 7.748089500000788, 8.164684999999736, 8.356306600000607, 8.548064300000988, 8.739677700001266, 9.448227200000474]"	271.420260500001	271.425376700001	272.917644000001	272.932307300001	NA	NA	NA	NA	NA	NA	NA	31	"02"	"2024-02-21_11h15.07.901"	"BART_exp"	"2023.2.3"	119.998464019315	"2024-02-21 11h15.16.806271 +0100"	NA
"balloon.png"	31	0	27	27	7	272.932307300001	NA	NA	NA	NA	NA	NA	NA	NA	NA	NA	NA	NA	272.917868300001	272.932307300001	272.932307300001	272.932307300001	272.932307300001	272.932307300001	-0.00080680000064603	-0.00080680000064603	-0.00080680000064603	272.932307300001	281.027974300001	30	1.5	FALSE	"[0.006481481481481481, 0.006481481481481481, 0.006481481481481481, 0.006481481481481481, 0.006481481481481481, 0.006481481481481481, 0.006481481481481481, 0.006481481481481481, 0.006481481481481481, 0.006481481481481481, 0.006481481481481481, 0.006481481481481481, 0.006481481481481481, 0.006481481481481481, 0.006481481481481481, 0.006481481481481481, 0.006481481481481481, 0.006481481481481481, 0.006481481481481481, 0.006481481481481481, 0.006481481481481481, 0.006481481481481481, 0.006481481481481481, 0.006481481481481481, 0.006481481481481481, 0.006481481481481481, 0.006481481481481481, 0.006481481481481481, 0.006481481481481481, 0.006481481481481481, 0.006481481481481481]"	"[-0.39351851851851855, -0.39351851851851855, -0.39351851851851855, -0.39351851851851855, -0.39351851851851855, -0.39351851851851855, -0.39351851851851855, -0.39351851851851855, -0.39351851851851855, -0.39351851851851855, -0.39351851851851855, -0.39351851851851855, -0.39351851851851855, -0.39351851851851855, -0.39351851851851855, -0.39351851851851855, -0.39351851851851855, -0.39351851851851855, -0.39351851851851855, -0.39351851851851855, -0.39351851851851855, -0.39351851851851855, -0.39351851851851855, -0.39351851851851855, -0.39351851851851855, -0.39351851851851855, -0.39351851851851855, -0.39351851851851855, -0.39351851851851855, -0.39351851851851855, -0.39351851851851855]"	"[1, 1, 1, 1, 1, 1, 1, 1, 1, 1, 1, 1, 1, 1, 1, 1, 1, 1, 1, 1, 1, 1, 1, 1, 1, 1, 1, 1, 1, 1, 0]"	"[0, 0, 0, 0, 0, 0, 0, 0, 0, 0, 0, 0, 0, 0, 0, 0, 0, 0, 0, 0, 0, 0, 0, 0, 0, 0, 0, 0, 0, 0, 0]"	"[0, 0, 0, 0, 0, 0, 0, 0, 0, 0, 0, 0, 0, 0, 0, 0, 0, 0, 0, 0, 0, 0, 0, 0, 0, 0, 0, 0, 0, 0, 1]"	"[0.600120600000082, 0.858568000001469, 1.1168678000012733, 1.3682121000001644, 1.575118200000361, 1.7917866000007052, 1.9773998000000574, 2.1918032000012317, 2.4253317000002426, 2.675362400001177, 2.912408400001368, 3.1420849000005546, 3.367315999999846, 3.6296271000010165, 3.8920954000004713, 4.150385599999936, 4.385686000001442, 4.625481700000819, 4.883881400000973, 5.133624600000985, 5.366977800000313, 5.583627300000444, 5.7921289000005345, 5.992272999999841, 6.208950900001582, 6.425662600000578, 6.650581500000044, 6.892140100000688, 7.125551600000108, 7.550454800000807, 8.108963600001516]"	31	"[0.591008100000181, 0.8494537000005948, 1.1077679000009084, 1.3592396000003646, 1.5659978999992745, 1.7826764000001276, 1.9682831999998598, 2.182686800000738, 2.4162152000008064, 2.6662567000003037, 2.903305399999226, 3.1329788000002736, 3.358201499999268, 3.6205104000000574, 3.8829975000007835, 4.141311699999278, 4.376565700000356, 4.616371699999945, 4.874864200000957, 5.124545599999692, 5.357898500000374, 5.574526500000502, 5.783021200000803, 5.983172700000068, 6.199845400000413, 6.416553000000931, 6.641465599999719, 6.883024799999475, 7.1164401000005455, 7.5413456999995105, 8.099787700000888]"	"[0.7242650000007416, 0.9742956000009144, 1.2243051000004925, 1.4492006000000401, 1.6658599000002141, 1.8658438000002207, 2.0576801000006526, 2.29106259999935, 2.5325799000002007, 2.782613699999274, 2.9995263000000705, 3.2328562999991846, 3.4684517000005144, 3.758076300000539, 4.007917999999336, 4.257876100000431, 4.491238700000395, 4.741104500000802, 4.991110599999956, 5.2411697000006825, 5.468258200000491, 5.6828815000008035, 5.882880099999966, 6.099672099999225, 6.341111199999432, 6.54958760000045, 6.757817499999874, 6.999585300000035, 7.232963799999197, 7.66637670000091, 8.099792299999535]"	281.029178700001	281.034364000001	282.526653000001	282.5429812	NA	NA	NA	NA	NA	NA	NA	31	"02"	"2024-02-21_11h15.07.901"	"BART_exp"	"2023.2.3"	119.998464019315	"2024-02-21 11h15.16.806271 +0100"	NA
"balloon.png"	97	0	28	28	22	282.5429812	NA	NA	NA	NA	NA	NA	NA	NA	NA	NA	NA	NA	282.526875400001	282.5429812	282.5429812	282.5429812	282.5429812	282.5429812	-0.00075629999992088	-0.00075629999992088	-0.00075629999992088	282.5429812	291.6618922	37	1.85	FALSE	"[0.006481481481481481, 0.006481481481481481, 0.006481481481481481, 0.006481481481481481, 0.006481481481481481, 0.006481481481481481, 0.006481481481481481, 0.006481481481481481, 0.006481481481481481, 0.006481481481481481, 0.006481481481481481, 0.006481481481481481, 0.006481481481481481, 0.006481481481481481, 0.006481481481481481, 0.006481481481481481, 0.006481481481481481, 0.006481481481481481, 0.006481481481481481, 0.006481481481481481, 0.006481481481481481, 0.006481481481481481, 0.006481481481481481, 0.006481481481481481, 0.006481481481481481, 0.006481481481481481, 0.006481481481481481, 0.006481481481481481, 0.006481481481481481, 0.006481481481481481, 0.006481481481481481, 0.006481481481481481, 0.006481481481481481, 0.006481481481481481, 0.006481481481481481, 0.006481481481481481, 0.006481481481481481, 0.006481481481481481]"	"[-0.39351851851851855, -0.39351851851851855, -0.39351851851851855, -0.39351851851851855, -0.39351851851851855, -0.39351851851851855, -0.39351851851851855, -0.39351851851851855, -0.39351851851851855, -0.39351851851851855, -0.39351851851851855, -0.39351851851851855, -0.39351851851851855, -0.39351851851851855, -0.39351851851851855, -0.39351851851851855, -0.39351851851851855, -0.39351851851851855, -0.39351851851851855, -0.39351851851851855, -0.39351851851851855, -0.39351851851851855, -0.39351851851851855, -0.39351851851851855, -0.39351851851851855, -0.39351851851851855, -0.39351851851851855, -0.39351851851851855, -0.39351851851851855, -0.39351851851851855, -0.39351851851851855, -0.39351851851851855, -0.39351851851851855, -0.39351851851851855, -0.39351851851851855, -0.39351851851851855, -0.39351851851851855, -0.39351851851851855]"	"[1, 1, 1, 1, 1, 1, 1, 1, 1, 1, 1, 1, 1, 1, 1, 1, 1, 1, 1, 1, 1, 1, 1, 1, 1, 1, 1, 1, 1, 1, 1, 1, 1, 1, 1, 1, 1, 0]"	"[0, 0, 0, 0, 0, 0, 0, 0, 0, 0, 0, 0, 0, 0, 0, 0, 0, 0, 0, 0, 0, 0, 0, 0, 0, 0, 0, 0, 0, 0, 0, 0, 0, 0, 0, 0, 0, 0]"	"[0, 0, 0, 0, 0, 0, 0, 0, 0, 0, 0, 0, 0, 0, 0, 0, 0, 0, 0, 0, 0, 0, 0, 0, 0, 0, 0, 0, 0, 0, 0, 0, 0, 0, 0, 0, 0, 1]"	"[0.7168587999985903, 0.9335725000000821, 1.150223399999959, 1.3750669000000926, 1.5752496999994037, 1.8086415999987366, 2.0506016999988788, 2.2838101999986975, 2.508491900000081, 2.7671730000001844, 3.000974099999439, 3.258758599999055, 3.508509100000083, 3.741915999999037, 3.958568899999591, 4.183802899999137, 4.417170599999736, 4.658840699999928, 4.900240699998903, 5.133578799999668, 5.366946899999675, 5.56696809999994, 5.76713430000018, 5.983850900000107, 6.183850800000073, 6.383912299999793, 6.5924044999992475, 6.800655099999858, 7.009122800000114, 7.21728819999953, 7.4090266000002885, 7.609126499999547, 7.792387299999973, 7.967460099998789, 8.13392709999971, 8.292259300000296, 8.533897799999977, 9.13392599999861]"	38	"[0.706154699999388, 0.9228609000001597, 1.1395140000004176, 1.3643573000008473, 1.564544200000455, 1.7979379999997036, 2.0399145999999746, 2.273104300000341, 2.497778799999651, 2.7564653999997972, 2.990390099999786, 3.2480668000007427, 3.4978647000007186, 3.731211300000723, 3.947864699999627, 4.173107700000401, 4.406517999999778, 4.6481323999996675, 4.889544900001056, 5.12286640000093, 5.356253600000855, 5.55625929999951, 5.756420899999284, 5.973152900000059, 6.173142499999813, 6.373209499999575, 6.581712900000639, 6.789951299999302, 6.998453500000323, 7.206578200000877, 7.398334800000157, 7.598425500000303, 7.781691199999841, 7.9567733999992925, 8.123217500000464, 8.281549499999528, 8.523190300000351, 9.123146300000371]"	"[0.8142692000001261, 1.0308970999994926, 1.2498992000000726, 1.4476212999998097, 1.6809391999995569, 1.9228669999993144, 2.1563528000006045, 2.389766000000236, 2.6231253999994806, 2.8810570999994525, 3.147705900000801, 3.372900899999877, 3.6062246000001323, 3.839607600000818, 4.056335200000831, 4.2894692000008945, 4.531149800001003, 4.7894379000008485, 5.0061218999999255, 5.222920399999566, 5.4485519000008935, 5.664504500000476, 5.872858799999449, 6.072830299999623, 6.272894899999301, 6.481400399999984, 6.681336800000281, 6.8896146999995835, 7.098092399999587, 7.281443699999727, 7.4730743000000075, 7.698046600000453, 7.873085100000026, 8.039727699999276, 8.2064246000009, 8.339909300000727, 8.648186800000985, 9.123154299999442]"	291.663225600001	291.668456900001	293.160676200001	293.172638900001	NA	NA	NA	NA	NA	NA	NA	31	"02"	"2024-02-21_11h15.07.901"	"BART_exp"	"2023.2.3"	119.998464019315	"2024-02-21 11h15.16.806271 +0100"	NA
