image	max_pumps	pump_loop.thisRepN	pump_loop.thisTrialN	pump_loop.thisN	pump_loop.thisIndex	thisRow.t	notes	Start.started	text_start.started	continue_start.started	mouse_start.started	Start.stopped	mouse_start.x	mouse_start.y	mouse_start.leftButton	mouse_start.midButton	mouse_start.rightButton	mouse_start.time	trials.started	stim_balloon.started	stim_balloon_burst.started	stim_balloon_burst.stopped	text_ballon_value.started	text_bank.started	mouse.started	sound_bang.started	sound_bang.stopped	button_balloon.started	trials.stopped	n_pumps	earnings	popped	mouse.x	mouse.y	mouse.leftButton	mouse.midButton	mouse.rightButton	mouse.time	button_balloon.numClicks	button_balloon.timesOn	button_balloon.timesOff	Feedback.started	text_feedback.started	text_feedback.stopped	Feedback.stopped	End.started	text_end.started	key_end.started	End.stopped	key_end.keys	key_end.rt	key_end.duration	participant	session	date	expName	psychopyVersion	frameRate	expStart	
								0.001043400000071415	0.005362599999898521	0.005362599999898521	0.0013281000001370558	49.818087300000116	[0.6574074074074074]	[-0.3731481481481482]	[1]	[0]	[0]	[49.81611329999987]																																			30	03	2024-02-21_09h27.11.258	BART_exp	2023.2.3	122.2490898553933	2024-02-21 09h27.22.371569 +0100	
balloon.png	71	0	0	0	16	49.890456300000096													49.82488939999985	49.890456300000096	49.890456300000096	49.890456300000096	49.890456300000096	49.890456300000096	0.00860899999997855	0.00860899999997855	0.00860899999997855	49.890456300000096	54.277668000000176	8	0.40	False	"[-0.06944444444444445, -0.06944444444444445, -0.06944444444444445, -0.06944444444444445, -0.06944444444444445, -0.06944444444444445, -0.06944444444444445, -0.06944444444444445, -0.06944444444444445]"	"[-0.3907407407407407, -0.3907407407407407, -0.3907407407407407, -0.3907407407407407, -0.3907407407407407, -0.3907407407407407, -0.3907407407407407, -0.3907407407407407, -0.3907407407407407]"	"[1, 1, 1, 1, 1, 1, 1, 1, 0]"	"[0, 0, 0, 0, 0, 0, 0, 0, 0]"	"[0, 0, 0, 0, 0, 0, 0, 0, 1]"	"[2.53508630000033, 2.793672200000401, 3.01819820000037, 3.260609899999963, 3.4774241000000075, 3.7017714000003252, 3.943840600000385, 4.177072299999963, 4.45174870000028]"	9	"[2.4751986999999644, 2.73376670000016, 2.958288100000118, 3.2007449000002453, 3.417590200000177, 3.6418782999999166, 3.883989500000098, 4.117281199999979, 4.391790499999843]"	"[2.6169009000000187, 2.841509500000029, 3.067084199999954, 3.291580900000099, 3.5249312000000828, 3.758296900000005, 3.9834154999998646, 4.250304700000015, 4.39179490000015]"	54.27891219999992	54.28923780000014	55.78995159999977	55.77637219999997								30	03	2024-02-21_09h27.11.258	BART_exp	2023.2.3	122.2490898553933	2024-02-21 09h27.22.371569 +0100	
balloon.png	49	0	1	1	11	55.78995159999977													55.776591199999984	55.78995159999977	55.78995159999977	55.78995159999977	55.78995159999977	55.78995159999977	-0.0007907000003797293	-0.0007907000003797293	-0.0007907000003797293	55.78995159999977	58.711569300000065	12	0.60	False	"[-0.06944444444444445, -0.06944444444444445, -0.06944444444444445, -0.06944444444444445, -0.06944444444444445, -0.06944444444444445, -0.06944444444444445, -0.06944444444444445, -0.06944444444444445, -0.06944444444444445, -0.06944444444444445, -0.06944444444444445, -0.06944444444444445]"	"[-0.3907407407407407, -0.3907407407407407, -0.3907407407407407, -0.3907407407407407, -0.3907407407407407, -0.3907407407407407, -0.3907407407407407, -0.3907407407407407, -0.3907407407407407, -0.3907407407407407, -0.3907407407407407, -0.3907407407407407, -0.3907407407407407]"	"[1, 1, 1, 1, 1, 1, 1, 1, 1, 1, 1, 1, 0]"	"[0, 0, 0, 0, 0, 0, 0, 0, 0, 0, 0, 0, 0]"	"[0, 0, 0, 0, 0, 0, 0, 0, 0, 0, 0, 0, 1]"	"[0.36725780000006125, 0.5752096999999594, 0.8003166000003148, 1.0087051000000429, 1.2083618999999999, 1.40858900000012, 1.602078100000199, 1.8086557999999968, 1.9921967000000222, 2.2087639999999737, 2.4087180999999873, 2.592165500000192, 2.9338729999999487]"	13	"[0.3591701999998804, 0.5671236000002864, 0.7922351000001981, 1.0006241999999475, 1.2002682000002096, 1.4005190000002585, 1.5940180000002329, 1.800566400000207, 1.9841292000000976, 2.2006790999998884, 2.4006397000002835, 2.5840846000000965, 2.925732700000026]"	"[0.4419370999999046, 0.6834598000000369, 0.900216300000011, 1.1169294999999693, 1.2920320000002903, 1.5001956000000973, 1.7002010000001064, 1.9254334000002018, 2.1336968000000525, 2.3254007000000456, 2.517043300000296, 2.717005800000152, 2.9257369000001745]"	58.71242519999987	58.717712799999845	60.20949419999988	60.20169699999997								30	03	2024-02-21_09h27.11.258	BART_exp	2023.2.3	122.2490898553933	2024-02-21 09h27.22.371569 +0100	
balloon.png	88	0	2	2	20	60.20949419999988													60.201907799999844	60.20949419999988	60.20949419999988	60.20949419999988	60.20949419999988	60.20949419999988	0.005437599999822851	0.005437599999822851	0.005437599999822851	60.20949419999988	62.4198964000002	9	0.45	False	"[-0.06944444444444445, -0.06944444444444445, -0.06944444444444445, -0.06944444444444445, -0.06944444444444445, -0.06944444444444445, -0.06944444444444445, -0.06944444444444445, -0.06944444444444445, -0.06944444444444445]"	"[-0.3907407407407407, -0.3907407407407407, -0.3907407407407407, -0.3907407407407407, -0.3907407407407407, -0.3907407407407407, -0.3907407407407407, -0.3907407407407407, -0.3907407407407407, -0.3907407407407407]"	"[1, 1, 1, 1, 1, 1, 1, 1, 1, 0]"	"[0, 0, 0, 0, 0, 0, 0, 0, 0, 0]"	"[0, 0, 0, 0, 0, 0, 0, 0, 0, 1]"	"[0.3020883000003778, 0.49185250000027736, 0.7254548000000796, 0.9257446999999956, 1.1588963000003787, 1.3656676000000516, 1.5669603000001189, 1.766922600000271, 2.0000841000000946, 2.216818500000045]"	10	"[0.29987130000017714, 0.48961940000026516, 0.723237700000027, 0.9235290000001442, 1.156667600000219, 1.3635844000000361, 1.564716800000042, 1.7646724000001086, 1.9978363000000172, 2.214501100000234]"	"[0.40613759999996546, 0.631047800000033, 0.8396371000003455, 1.072984400000223, 1.2731226000000788, 1.4731908000003386, 1.6732605000001968, 1.8732053000003361, 2.0811686000001828, 2.214505299999928]"	62.42076709999992	62.42636080000011	63.918756799999755	63.910129999999754								30	03	2024-02-21_09h27.11.258	BART_exp	2023.2.3	122.2490898553933	2024-02-21 09h27.22.371569 +0100	
balloon.png	127	0	3	3	29	63.918756799999755													63.910332299999936	63.918756799999755	63.918756799999755	63.918756799999755	63.918756799999755	63.918756799999755	0.0056488999998691725	0.0056488999998691725	0.0056488999998691725	63.918756799999755	68.57849690000012	16	0.80	False	"[-0.06944444444444445, -0.06944444444444445, -0.06944444444444445, -0.06944444444444445, -0.06944444444444445, -0.06944444444444445, -0.06944444444444445, -0.06944444444444445, -0.06944444444444445, -0.06944444444444445, -0.06944444444444445, -0.06944444444444445, -0.06944444444444445, -0.06944444444444445, -0.06944444444444445, -0.06944444444444445, -0.06944444444444445]"	"[-0.3907407407407407, -0.3907407407407407, -0.3907407407407407, -0.3907407407407407, -0.3907407407407407, -0.3907407407407407, -0.3907407407407407, -0.3907407407407407, -0.3907407407407407, -0.3907407407407407, -0.3907407407407407, -0.3907407407407407, -0.3907407407407407, -0.3907407407407407, -0.3907407407407407, -0.3907407407407407, -0.3907407407407407]"	"[1, 1, 1, 1, 1, 1, 1, 1, 1, 1, 1, 1, 1, 1, 1, 1, 0]"	"[0, 0, 0, 0, 0, 0, 0, 0, 0, 0, 0, 0, 0, 0, 0, 0, 0]"	"[0, 0, 0, 0, 0, 0, 0, 0, 0, 0, 0, 0, 0, 0, 0, 0, 1]"	"[0.31676530000004277, 0.5168999000002259, 0.7334976000001916, 1.1419308000004094, 1.3752808000003824, 1.600339200000235, 1.8004291000002013, 2.0088777000000846, 2.19223060000013, 2.3754092000003766, 2.5922858000003544, 2.766948599999978, 2.9754441000000043, 3.1754118000003473, 3.3839195000000473, 3.558831199999986, 4.667090200000075]"	17	"[0.31361010000000533, 0.5137254999999641, 0.7303271999999197, 1.1387610000001587, 1.3721052999999301, 1.5971800000002077, 1.7972564000001512, 2.0057221000001846, 2.189096200000222, 2.372232499999882, 2.589128200000232, 2.7637785000001713, 2.9722842000001037, 3.1722367000002123, 3.3807511999998496, 3.5556507999999667, 4.663864699999976]"	"[0.43008689999987837, 0.6554141999999956, 0.8553204999998343, 1.230234399999972, 1.4802334999999402, 1.6637040000000525, 1.888811899999837, 2.105495400000109, 2.272224499999993, 2.488829899999928, 2.6888128999999026, 2.8888191000000916, 3.063736600000084, 3.2637602999998307, 3.4804033999998865, 3.663783500000136, 4.663869200000136]"	68.57945590000008	68.58510369999976	70.0768920999999	70.06914710000001								30	03	2024-02-21_09h27.11.258	BART_exp	2023.2.3	122.2490898553933	2024-02-21 09h27.22.371569 +0100	
balloon.png	40	0	4	4	9	70.0768920999999													70.06935999999996	70.0768920999999	70.0768920999999	70.0768920999999	70.0768920999999	70.0768920999999	0.00576500000033775	0.00576500000033775	0.00576500000033775	70.0768920999999	74.17104590000008	13	0.65	False	"[-0.06944444444444445, -0.06944444444444445, -0.06944444444444445, -0.06944444444444445, -0.06944444444444445, -0.06944444444444445, -0.06944444444444445, -0.06944444444444445, -0.06944444444444445, -0.06944444444444445, -0.06944444444444445, -0.06944444444444445, -0.06944444444444445, -0.06944444444444445]"	"[-0.3907407407407407, -0.3907407407407407, -0.3907407407407407, -0.3907407407407407, -0.3907407407407407, -0.3907407407407407, -0.3907407407407407, -0.3907407407407407, -0.3907407407407407, -0.3907407407407407, -0.3907407407407407, -0.3907407407407407, -0.3907407407407407, -0.3907407407407407]"	"[1, 1, 1, 1, 1, 1, 1, 1, 1, 1, 1, 1, 1, 0]"	"[0, 0, 0, 0, 0, 0, 0, 0, 0, 0, 0, 0, 0, 0]"	"[0, 0, 0, 0, 0, 0, 0, 0, 0, 0, 0, 0, 0, 1]"	"[0.550311899999997, 1.0008456000000479, 1.2604180000002998, 1.4837882000001628, 1.7249879000000874, 1.958332000000155, 2.217056599999978, 2.4503130000002784, 2.7418228999999883, 2.9751336000003903, 3.2255043000000114, 3.4502873999999792, 3.666915700000118, 4.100294600000325]"	14	"[0.5480630000001838, 0.998627999999826, 1.258176100000128, 1.4815844999998262, 1.7227344000002631, 1.956076899999971, 2.214819599999828, 2.44817809999995, 2.739574900000207, 2.9728871000002073, 3.2232865000000857, 3.448040100000071, 3.6646703000001253, 4.098072499999944]"	"[0.7148504000001594, 1.105986699999903, 1.3393086000000949, 1.5893277999998645, 1.8147569000002477, 2.0645598000000973, 2.3226847000000816, 2.572718800000075, 2.87278090000018, 3.114362700000129, 3.347726899999998, 3.572796400000243, 3.7977500000001783, 4.098081600000114]"	74.1722264	74.17713430000003	75.67231750000019	75.66105779999998								30	03	2024-02-21_09h27.11.258	BART_exp	2023.2.3	122.2490898553933	2024-02-21 09h27.22.371569 +0100	
balloon.png	5	0	5	5	1	75.67231750000019													75.66127289999986	75.67231750000019	75.67231750000019	75.67231750000019	75.67231750000019	75.67231750000019	0.00016330000016751	0.00016330000016751	0.00016330000016751	75.67231750000019	77.17969119999998	6	0.25	True	"[-0.06944444444444445, -0.06944444444444445, -0.06944444444444445, -0.06944444444444445, -0.06944444444444445, -0.06944444444444445]"	"[-0.3907407407407407, -0.3907407407407407, -0.3907407407407407, -0.3907407407407407, -0.3907407407407407, -0.3907407407407407]"	"[1, 1, 1, 1, 1, 1]"	"[0, 0, 0, 0, 0, 0]"	"[0, 0, 0, 0, 0, 0]"	"[0.2919468999998571, 0.5085954999999558, 0.7417661999998018, 0.9668406999999206, 1.1835495000000265, 1.400377699999808]"	6	"[0.28659650000008696, 0.5032313000001523, 0.7364010000001144, 0.9614925999999286, 1.1781925999998748, 1.3950334000001021]"	"[0.41961700000001656, 0.619732600000134, 0.8280328999999256, 1.0530484999999317, 1.269710699999905, 1.5030423000002884]"	77.18043720000014	77.18733370000018	78.68970869999976	78.67801469999995								30	03	2024-02-21_09h27.11.258	BART_exp	2023.2.3	122.2490898553933	2024-02-21 09h27.22.371569 +0100	
balloon.png	75	0	6	6	17	78.68970869999976													78.6782404999999	78.68970869999976	78.68970869999976	78.68970869999976	78.68970869999976	78.68970869999976	-0.0007132000000638072	-0.0007132000000638072	-0.0007132000000638072	78.68970869999976	81.77121369999986	10	0.50	False	"[-0.06944444444444445, -0.06944444444444445, -0.06944444444444445, -0.06944444444444445, -0.06944444444444445, -0.06944444444444445, -0.06944444444444445, -0.06944444444444445, -0.06944444444444445, -0.06944444444444445, -0.06944444444444445]"	"[-0.3907407407407407, -0.3907407407407407, -0.3907407407407407, -0.3907407407407407, -0.3907407407407407, -0.3907407407407407, -0.3907407407407407, -0.3907407407407407, -0.3907407407407407, -0.3907407407407407, -0.3907407407407407]"	"[1, 1, 1, 1, 1, 1, 1, 1, 1, 1, 0]"	"[0, 0, 0, 0, 0, 0, 0, 0, 0, 0, 0]"	"[0, 0, 0, 0, 0, 0, 0, 0, 0, 0, 1]"	"[0.7503355000003467, 0.967152900000201, 1.183778600000096, 1.3918734000003496, 1.6175093000001652, 1.8838587000000189, 2.125071100000241, 2.35038940000004, 2.5835548000000017, 2.7920038000002023, 3.091923500000121]"	11	"[0.7440195000003769, 0.9608253999999761, 1.1774574999999459, 1.3855431000001772, 1.61123600000019, 1.8775726000003488, 2.118740500000058, 2.3441758000003574, 2.57728010000028, 2.7856979000002866, 3.085530700000163]"	"[0.868585400000029, 1.0953410000001895, 1.2941946000000826, 1.5200518999999986, 1.76076970000031, 1.9853325000003679, 2.2272210999999515, 2.4520339000000604, 2.67703500000016, 2.895796100000098, 3.085534700000153]"	81.77208860000019	81.77762059999986	83.27226870000004	83.26322149999987								30	03	2024-02-21_09h27.11.258	BART_exp	2023.2.3	122.2490898553933	2024-02-21 09h27.22.371569 +0100	
balloon.png	14	0	7	7	3	83.27226870000004													83.26348969999981	83.27226870000004	83.27226870000004	83.27226870000004	83.27226870000004	83.27226870000004	0.0002507000003788562	0.0002507000003788562	0.0002507000003788562	83.27226870000004	86.80507810000017	13	0.65	False	"[-0.06944444444444445, -0.06944444444444445, -0.06944444444444445, -0.06944444444444445, -0.06944444444444445, -0.06944444444444445, -0.06944444444444445, -0.06944444444444445, -0.06944444444444445, -0.06944444444444445, -0.06944444444444445, -0.06944444444444445, -0.06944444444444445, -0.06944444444444445]"	"[-0.3907407407407407, -0.3907407407407407, -0.3907407407407407, -0.3907407407407407, -0.3907407407407407, -0.3907407407407407, -0.3907407407407407, -0.3907407407407407, -0.3907407407407407, -0.3907407407407407, -0.3907407407407407, -0.3907407407407407, -0.3907407407407407, -0.3907407407407407]"	"[1, 1, 1, 1, 1, 1, 1, 1, 1, 1, 1, 1, 1, 0]"	"[0, 0, 0, 0, 0, 0, 0, 0, 0, 0, 0, 0, 0, 0]"	"[0, 0, 0, 0, 0, 0, 0, 0, 0, 0, 0, 0, 0, 1]"	"[0.3813062999997783, 0.6066695999998046, 0.8649171000001843, 1.098171000000093, 1.3398965999999746, 1.573250299999927, 1.8068084999999883, 2.039947299999767, 2.2650244999999813, 2.4817219000001387, 2.71488219999992, 2.964881200000036, 3.1734388999998373, 3.5401695000000473]"	14	"[0.3783061999997699, 0.6036874000001262, 0.8619227999997747, 1.0951694999998836, 1.3369222999999693, 1.5702759000000697, 1.803837299999941, 2.0369540000001507, 2.2620240000001104, 2.4787278999997397, 2.7118775999997524, 2.961875500000133, 3.1704383999999664, 3.5371217000001707]"	"[0.5115857999999207, 0.7534061999999722, 0.970079799999894, 1.194919999999911, 1.4367898999998943, 1.6783393999999134, 1.9117000999999618, 2.1535069000001386, 2.370164500000101, 2.6035397000000557, 2.820227000000159, 3.0617999999999483, 3.2715453000000707, 3.5371258999998645]"	86.80597129999978	86.8113202999998	88.30460809999977	88.29525329999979								30	03	2024-02-21_09h27.11.258	BART_exp	2023.2.3	122.2490898553933	2024-02-21 09h27.22.371569 +0100	
balloon.png	36	0	8	8	8	88.30460809999977													88.29548979999981	88.30460809999977	88.30460809999977	88.30460809999977	88.30460809999977	88.30460809999977	0.014232600000013917	0.014232600000013917	0.014232600000013917	88.30460809999977	91.3745213000002	13	0.65	False	"[-0.06944444444444445, -0.06944444444444445, -0.06944444444444445, -0.06944444444444445, -0.06944444444444445, -0.06944444444444445, -0.06944444444444445, -0.06944444444444445, -0.06944444444444445, -0.06944444444444445, -0.06944444444444445, -0.06944444444444445, -0.06944444444444445, -0.06944444444444445]"	"[-0.3907407407407407, -0.3907407407407407, -0.3907407407407407, -0.3907407407407407, -0.3907407407407407, -0.3907407407407407, -0.3907407407407407, -0.3907407407407407, -0.3907407407407407, -0.3907407407407407, -0.3907407407407407, -0.3907407407407407, -0.3907407407407407, -0.3907407407407407]"	"[1, 1, 1, 1, 1, 1, 1, 1, 1, 1, 1, 1, 1, 0]"	"[0, 0, 0, 0, 0, 0, 0, 0, 0, 0, 0, 0, 0, 0]"	"[0, 0, 0, 0, 0, 0, 0, 0, 0, 0, 0, 0, 0, 1]"	"[0.12543259999984002, 0.3422946000000593, 0.566929699999946, 0.7836275999998179, 0.992339400000219, 1.2089486999998371, 1.4089798999998493, 1.6337054000000535, 1.8585542000000714, 2.075157499999932, 2.2502220999999736, 2.4584814999998343, 2.6502246999998533, 3.0778762999998435]"	14	"[0.12312960000008388, 0.33999020000010205, 0.5646354000000429, 0.781332300000031, 0.9900746000002982, 1.2066827000003286, 1.4067407000002277, 1.6314067000002979, 1.8563054000001102, 2.072889600000053, 2.24791630000027, 2.4562158000003365, 2.6479293000002144, 3.075541200000316]"	"[0.2643009000003076, 0.48098250000020926, 0.6810052000000724, 0.8976728000002367, 1.1063170000002174, 1.3310481000003165, 1.5395478000000367, 1.739819300000363, 1.95646540000007, 2.1644562999999835, 2.3727508000001762, 2.564504500000112, 2.7646363000003475, 3.075546700000359]"	91.37542450000001	91.37833	92.8717101000002	92.86401449999994								30	03	2024-02-21_09h27.11.258	BART_exp	2023.2.3	122.2490898553933	2024-02-21 09h27.22.371569 +0100	
balloon.png	18	0	9	9	4	92.8717101000002													92.86428530000012	92.8717101000002	92.8717101000002	92.8717101000002	92.8717101000002	92.8717101000002	0.0030793000000812754	0.0030793000000812754	0.0030793000000812754	92.8717101000002	97.0890929000002	17	0.85	False	"[-0.06944444444444445, -0.06944444444444445, -0.06944444444444445, -0.06944444444444445, -0.06944444444444445, -0.06944444444444445, -0.06944444444444445, -0.06944444444444445, -0.06944444444444445, -0.06944444444444445, -0.06944444444444445, -0.06944444444444445, -0.06944444444444445, -0.06944444444444445, -0.06944444444444445, -0.06944444444444445, -0.06944444444444445]"	"[-0.3907407407407407, -0.3907407407407407, -0.3907407407407407, -0.3907407407407407, -0.3907407407407407, -0.3907407407407407, -0.3907407407407407, -0.3907407407407407, -0.3907407407407407, -0.3907407407407407, -0.3907407407407407, -0.3907407407407407, -0.3907407407407407, -0.3907407407407407, -0.3907407407407407, -0.3907407407407407, -0.3907407407407407]"	"[1, 1, 1, 1, 1, 1, 1, 1, 1, 1, 1, 1, 1, 1, 1, 1, 0]"	"[0, 0, 0, 0, 0, 0, 0, 0, 0, 0, 0, 0, 0, 0, 0, 0, 0]"	"[0, 0, 0, 0, 0, 0, 0, 0, 0, 0, 0, 0, 0, 0, 0, 0, 1]"	"[0.1564949000003253, 0.3818012000001545, 0.5985460000001694, 0.8318668000001708, 1.0617777000002206, 1.286282300000039, 1.5151108000000022, 1.7565919000003305, 1.9855523999999605, 2.215334100000291, 2.640201900000193, 2.8733612999999423, 3.0986462000000756, 3.2733447999999044, 3.4653556000002936, 3.640379899999971, 4.2236330000000635]"	16	"[0.15436460000000807, 0.37970389999964027, 0.5964365999998336, 0.8297407999998541, 1.2841561000000183, 1.5129882999999609, 1.7544851999996354, 1.9836731999998847, 2.21324229999982, 2.6380804000000353, 2.8712301999999, 3.096526199999971, 3.2712154999999257, 3.4632411999996293, 3.6382559999997284, 4.221447999999782]"	"[0.28748819999964326, 0.5128789999998844, 0.7209334999997736, 1.1594519999998738, 1.3793728999999075, 1.6209968999996818, 1.8627660999995896, 2.0962352999999894, 2.3210267999997996, 2.7628923999996005, 2.971118999999817, 3.187775099999726, 3.387798499999917, 3.5711696999997002, 3.771177699999953, 4.221452199999931]"	97.09008839999979	97.09554650000018	98.58872780000002	98.58117459999994								30	03	2024-02-21_09h27.11.258	BART_exp	2023.2.3	122.2490898553933	2024-02-21 09h27.22.371569 +0100	
balloon.png	92	0	10	10	21	98.58872780000002													98.5814532999998	98.58872780000002	98.58872780000002	98.58872780000002	98.58872780000002	98.58872780000002	0.005412800000158313	0.005412800000158313	0.005412800000158313	98.58872780000002	100.13073639999993	7	0.35	False	"[-0.06944444444444445, -0.06944444444444445, -0.06944444444444445, -0.06944444444444445, -0.06944444444444445, -0.06944444444444445, -0.06944444444444445, -0.06944444444444445]"	"[-0.3907407407407407, -0.3907407407407407, -0.3907407407407407, -0.3907407407407407, -0.3907407407407407, -0.3907407407407407, -0.3907407407407407, -0.3907407407407407]"	"[1, 1, 1, 1, 1, 1, 1, 0]"	"[0, 0, 0, 0, 0, 0, 0, 0]"	"[0, 0, 0, 0, 0, 0, 0, 1]"	"[0.029146299999865732, 0.24812629999996716, 0.47335160000011456, 0.6983600999997179, 0.8983336000001145, 1.106643399999939, 1.2815969999996923, 1.5480521999998018]"	8	"[0.021267699999953038, 0.24612519999982396, 0.4712798999998995, 0.6963779999996405, 0.8963049999997565, 1.1044965999999476, 1.2794816000000537, 1.5458352999999079]"	"[0.1540895999996792, 0.37074940000002243, 0.5883864999996149, 0.8041694999997162, 1.0208294999997634, 1.2209396999996898, 1.4209470999999212, 1.5458395999999084]"	100.13169430000016	100.13725350000004	101.62942579999981	101.62122219999992								30	03	2024-02-21_09h27.11.258	BART_exp	2023.2.3	122.2490898553933	2024-02-21 09h27.22.371569 +0100	
balloon.png	44	0	11	11	10	101.62942579999981													101.62143509999987	101.62942579999981	101.62942579999981	101.62942579999981	101.62942579999981	101.62942579999981	0.005769700000200828	0.005769700000200828	0.005769700000200828	101.62942579999981	105.4062643000002	15	0.75	False	"[-0.06944444444444445, -0.06944444444444445, -0.06944444444444445, -0.06944444444444445, -0.06944444444444445, -0.06944444444444445, -0.06944444444444445, -0.06944444444444445, -0.06944444444444445, -0.06944444444444445, -0.06944444444444445, -0.06944444444444445, -0.06944444444444445, -0.06944444444444445, -0.06944444444444445]"	"[-0.3907407407407407, -0.3907407407407407, -0.3907407407407407, -0.3907407407407407, -0.3907407407407407, -0.3907407407407407, -0.3907407407407407, -0.3907407407407407, -0.3907407407407407, -0.3907407407407407, -0.3907407407407407, -0.3907407407407407, -0.3907407407407407, -0.3907407407407407, -0.3907407407407407]"	"[1, 1, 1, 1, 1, 1, 1, 1, 1, 1, 1, 1, 1, 1, 0]"	"[0, 0, 0, 0, 0, 0, 0, 0, 0, 0, 0, 0, 0, 0, 0]"	"[0, 0, 0, 0, 0, 0, 0, 0, 0, 0, 0, 0, 0, 0, 1]"	"[0.14155209999989893, 0.4001295999996728, 0.6418318000000909, 0.891714299999876, 1.1500628999997389, 1.3834363999999368, 1.6420004999999946, 1.875329199999669, 2.108455900000081, 2.316932299999735, 2.550277499999993, 2.775495999999748, 2.9918683000000783, 3.1752793999999085, 3.7837036999999327]"	15	"[0.13906550000001516, 0.39764100000002145, 0.639350800000102, 0.8892255999999179, 1.1475822000002154, 1.3809464000000844, 1.6395176000000902, 1.8728503000002092, 2.105972500000007, 2.314445599999999, 2.5477912999999717, 2.773020500000257, 2.9893867000000682, 3.1727943999999297, 3.7811909000001833]"	"[0.27457910000021, 0.514215200000308, 0.7576851000003444, 0.9976710999999341, 1.247516800000085, 1.489324900000156, 1.755855800000063, 1.9811217000001307, 2.2143568999999843, 2.439288900000065, 2.6477185000003374, 2.88101480000023, 3.089346900000237, 3.289280200000121, 3.781195100000332]"	105.40735360000008	105.4125895000002	106.90586369999983	106.8983862								30	03	2024-02-21_09h27.11.258	BART_exp	2023.2.3	122.2490898553933	2024-02-21 09h27.22.371569 +0100	
balloon.png	23	0	12	12	5	106.90586369999983													106.89864399999988	106.90586369999983	106.90586369999983	106.90586369999983	106.90586369999983	106.90586369999983	0.0053947000001244305	0.0053947000001244305	0.0053947000001244305	106.90586369999983	112.10768229999985	18	0.90	False	"[-0.06944444444444445, -0.06944444444444445, -0.06944444444444445, -0.06944444444444445, -0.06944444444444445, -0.06944444444444445, -0.06944444444444445, -0.06944444444444445, -0.06944444444444445, -0.06944444444444445, -0.06944444444444445, -0.06944444444444445, -0.06944444444444445, -0.06944444444444445, -0.06944444444444445, -0.06944444444444445, -0.06944444444444445, -0.06944444444444445, -0.06944444444444445]"	"[-0.3907407407407407, -0.3907407407407407, -0.3907407407407407, -0.3907407407407407, -0.3907407407407407, -0.3907407407407407, -0.3907407407407407, -0.3907407407407407, -0.3907407407407407, -0.3907407407407407, -0.3907407407407407, -0.3907407407407407, -0.3907407407407407, -0.3907407407407407, -0.3907407407407407, -0.3907407407407407, -0.3907407407407407, -0.3907407407407407, -0.3907407407407407]"	"[1, 1, 1, 1, 1, 1, 1, 1, 1, 1, 1, 1, 1, 1, 1, 1, 1, 1, 0]"	"[0, 0, 0, 0, 0, 0, 0, 0, 0, 0, 0, 0, 0, 0, 0, 0, 0, 0, 0]"	"[0, 0, 0, 0, 0, 0, 0, 0, 0, 0, 0, 0, 0, 0, 0, 0, 0, 0, 1]"	"[0.2900477999996838, 0.4899805000000015, 0.7068223999999645, 0.9316586999998435, 1.1833984999998393, 1.4150761999999304, 1.6481869999997798, 1.8731800000000476, 2.073235199999999, 2.2815723999997317, 2.506505599999855, 2.715112699999736, 2.940440200000012, 3.1734379999998055, 3.4067503999999644, 3.6484009999999216, 3.9066311999999925, 4.623413099999652, 5.207590699999855]"	19	"[0.2881022999999914, 0.48805829999992056, 0.7049412000001212, 0.9297080000001188, 1.1815055000001848, 1.4133013999999093, 1.6462295999999697, 1.871258300000136, 2.071306100000129, 2.2796180000000277, 2.5045525000000453, 2.7131696999999804, 2.938535799999954, 3.1714876999999433, 3.404793499999869, 3.6464473999999427, 3.9046736000000237, 4.621456800000033, 5.205730900000162]"	"[0.38795540000000983, 0.646093700000165, 0.8378581000001759, 1.0627453000001879, 1.2960806999999477, 1.5128684000001158, 1.7210786999999073, 1.954435900000135, 2.1795357999999396, 2.39621840000018, 2.6211715999997978, 2.8378201999998964, 3.0544764999999643, 3.2878305999997792, 3.529580800000076, 3.771233999999822, 4.046372899999824, 4.762953999999809, 5.2057370000002265]"	112.10865199999989	112.11367370000016	113.60493309999993	113.59704220000003								30	03	2024-02-21_09h27.11.258	BART_exp	2023.2.3	122.2490898553933	2024-02-21 09h27.22.371569 +0100	
balloon.png	84	0	13	13	19	113.60493309999993													113.5972686	113.60493309999993	113.60493309999993	113.60493309999993	113.60493309999993	113.60493309999993	0.00452259999974558	0.00452259999974558	0.00452259999974558	113.60493309999993	119.35709330000009	20	1.00	False	"[-0.06944444444444445, -0.06944444444444445, -0.06944444444444445, -0.06944444444444445, -0.06944444444444445, -0.06944444444444445, -0.06944444444444445, -0.06944444444444445, -0.06944444444444445, -0.06944444444444445, -0.06944444444444445, -0.06944444444444445, -0.06944444444444445, -0.06944444444444445, -0.06944444444444445, -0.06944444444444445, -0.06944444444444445, -0.06944444444444445, -0.06944444444444445, -0.06944444444444445, -0.06944444444444445]"	"[-0.3907407407407407, -0.3907407407407407, -0.3907407407407407, -0.3907407407407407, -0.3907407407407407, -0.3907407407407407, -0.3907407407407407, -0.3907407407407407, -0.3907407407407407, -0.3907407407407407, -0.3907407407407407, -0.3907407407407407, -0.3907407407407407, -0.3907407407407407, -0.3907407407407407, -0.3907407407407407, -0.3907407407407407, -0.3907407407407407, -0.3907407407407407, -0.3907407407407407, -0.3907407407407407]"	"[1, 1, 1, 1, 1, 1, 1, 1, 1, 1, 1, 1, 1, 1, 1, 1, 1, 1, 1, 1, 0]"	"[0, 0, 0, 0, 0, 0, 0, 0, 0, 0, 0, 0, 0, 0, 0, 0, 0, 0, 0, 0, 0]"	"[0, 0, 0, 0, 0, 0, 0, 0, 0, 0, 0, 0, 0, 0, 0, 0, 0, 0, 0, 0, 1]"	"[0.3002873999998883, 0.7584901000000173, 0.9916991000000053, 1.2004425999998602, 1.4172011999999086, 1.6253406000000723, 1.817417100000057, 2.0342445000001135, 2.2676385999998274, 2.4920203000001493, 2.6918155999996998, 2.9336868000000322, 3.158502700000099, 3.375180399999863, 3.591904099999738, 3.817220500000076, 4.050518099999863, 4.3420658, 4.575400700000046, 4.942047900000034, 5.758711699999822]"	21	"[0.2980417999997371, 0.7562278999998853, 0.9894423000000643, 1.1982281000000512, 1.4149693999997908, 1.6230980999998792, 1.8151832999997168, 2.032016499999827, 2.2654152999998587, 2.4897658999998384, 2.6895528999998533, 2.9314501999997447, 3.156245299999682, 3.3729364999999234, 3.589643100000103, 3.815102300000035, 4.048326399999951, 4.3398042999997415, 4.573138299999755, 4.939789399999881, 5.756396499999937]"	"[0.6226790999999139, 0.8726573999997527, 1.0893699999996898, 1.314571099999739, 1.5314900999997008, 1.7237139999997453, 1.93157599999995, 2.1394212000000152, 2.3648927999997795, 2.589423999999781, 2.822810799999843, 3.0312936000000263, 3.2560451999997895, 3.472868599999856, 3.6978958999998213, 3.9312153000000762, 4.14790929999981, 4.441147199999705, 4.68118689999983, 5.08119379999971, 5.756400700000086]"	119.35813659999985	119.36354459999984	120.85680969999976	120.84930540000005								30	03	2024-02-21_09h27.11.258	BART_exp	2023.2.3	122.2490898553933	2024-02-21 09h27.22.371569 +0100	
balloon.png	27	0	14	14	6	120.85680969999976													120.84958529999994	120.85680969999976	120.85680969999976	120.85680969999976	120.85680969999976	120.85680969999976	0.005582499999945867	0.005582499999945867	0.005582499999945867	120.85680969999976	123.91569479999998	12	0.60	False	"[-0.06944444444444445, -0.06944444444444445, -0.06944444444444445, -0.06944444444444445, -0.06944444444444445, -0.06944444444444445, -0.06944444444444445, -0.06944444444444445, -0.06944444444444445, -0.06944444444444445, -0.06944444444444445, -0.06944444444444445, -0.06944444444444445]"	"[-0.3907407407407407, -0.3907407407407407, -0.3907407407407407, -0.3907407407407407, -0.3907407407407407, -0.3907407407407407, -0.3907407407407407, -0.3907407407407407, -0.3907407407407407, -0.3907407407407407, -0.3907407407407407, -0.3907407407407407, -0.3907407407407407]"	"[1, 1, 1, 1, 1, 1, 1, 1, 1, 1, 1, 1, 0]"	"[0, 0, 0, 0, 0, 0, 0, 0, 0, 0, 0, 0, 0]"	"[0, 0, 0, 0, 0, 0, 0, 0, 0, 0, 0, 0, 1]"	"[0.33154100000001563, 0.5483386000000792, 0.7734577000001082, 1.0150424000003113, 1.2317415000002256, 1.481512300000304, 1.7233368000001974, 1.9316478000000643, 2.1484916000003977, 2.3485984000003555, 2.556970900000124, 2.7485005000003184, 3.065016000000014]"	13	"[0.3294087999997828, 0.5462138999996569, 0.7713383000000249, 1.0129030999996758, 1.2296105000000352, 1.4793849999996382, 1.7212036999999327, 1.9295098999996299, 2.1463690000000497, 2.3464896999998928, 2.5548526999996284, 2.7463653999998314, 3.0628156999996463]"	"[0.4709255999996458, 0.6959501999999702, 0.9043883999997888, 1.1377905999997893, 1.3460132000000158, 1.5959834000000228, 1.8293429999998807, 2.0544581999997718, 2.262727399999676, 2.454446299999745, 2.6627802999996675, 2.854566099999829, 3.062819899999795]"	123.91657480000003	123.92232530000001	125.41461149999986	125.40638290000015								30	03	2024-02-21_09h27.11.258	BART_exp	2023.2.3	122.2490898553933	2024-02-21 09h27.22.371569 +0100	
balloon.png	66	0	15	15	15	125.41461149999986													125.40670090000003	125.41461149999986	125.41461149999986	125.41461149999986	125.41461149999986	125.41461149999986	0.005732600000101229	0.005732600000101229	0.005732600000101229	125.41461149999986	129.54106730000012	17	0.85	False	"[-0.06944444444444445, -0.06944444444444445, -0.06944444444444445, -0.06944444444444445, -0.06944444444444445, -0.06944444444444445, -0.06944444444444445, -0.06944444444444445, -0.06944444444444445, -0.06944444444444445, -0.06944444444444445, -0.06944444444444445, -0.06944444444444445, -0.06944444444444445, -0.06944444444444445, -0.06944444444444445, -0.06944444444444445, -0.06944444444444445]"	"[-0.3907407407407407, -0.3907407407407407, -0.3907407407407407, -0.3907407407407407, -0.3907407407407407, -0.3907407407407407, -0.3907407407407407, -0.3907407407407407, -0.3907407407407407, -0.3907407407407407, -0.3907407407407407, -0.3907407407407407, -0.3907407407407407, -0.3907407407407407, -0.3907407407407407, -0.3907407407407407, -0.3907407407407407, -0.3907407407407407]"	"[1, 1, 1, 1, 1, 1, 1, 1, 1, 1, 1, 1, 1, 1, 1, 1, 1, 0]"	"[0, 0, 0, 0, 0, 0, 0, 0, 0, 0, 0, 0, 0, 0, 0, 0, 0, 0]"	"[0, 0, 0, 0, 0, 0, 0, 0, 0, 0, 0, 0, 0, 0, 0, 0, 0, 1]"	"[0.24998299999970186, 0.49132620000000315, 0.7163318999996591, 0.9412959999999657, 1.1828868999996303, 1.400230400000055, 1.6344045999999253, 1.8665421000000606, 2.091382899999644, 2.291382899999917, 2.5080777999996826, 2.7081427999996777, 2.899717399999645, 3.108159599999908, 3.291421200000059, 3.4666222000000744, 3.6749010999997154, 4.133176999999705]"	18	"[0.24756659999957265, 0.48879959999976563, 0.7138591999996606, 0.9387652999998863, 1.1803882999997768, 1.397776199999953, 1.6323840999998538, 1.8640184999999292, 2.0888524999995752, 2.2888613000000078, 2.505550499999572, 2.705612899999778, 2.8971786999995857, 3.105630099999871, 3.288881499999661, 3.464102699999785, 3.672371899999689, 4.130595699999958]"	"[0.43864259999963906, 0.6137471999995796, 0.8386452999998255, 1.038652099999581, 1.272007399999893, 1.5220217999999477, 1.747020799999973, 1.972123499999725, 2.1970457999996142, 2.3970454999998765, 2.6137753999996676, 2.805485999999746, 2.9970969999999397, 3.1971208999998453, 3.372212899999795, 3.572272499999599, 3.763829999999871, 4.1305997999998]"	129.5420097000001	129.54762530000016	131.03959859999986	131.0315485000001								30	03	2024-02-21_09h27.11.258	BART_exp	2023.2.3	122.2490898553933	2024-02-21 09h27.22.371569 +0100	
balloon.png	114	0	16	16	26	131.03959859999986													131.03175640000018	131.03959859999986	131.03959859999986	131.03959859999986	131.03959859999986	131.03959859999986	0.0057625999997981125	0.0057625999997981125	0.0057625999997981125	131.03959859999986	134.4337430999999	13	0.65	False	"[-0.06944444444444445, -0.06944444444444445, -0.06944444444444445, -0.06944444444444445, -0.06944444444444445, -0.06944444444444445, -0.06944444444444445, -0.06944444444444445, -0.06944444444444445, -0.06944444444444445, -0.06944444444444445, -0.06944444444444445, -0.06944444444444445, -0.06944444444444445]"	"[-0.3907407407407407, -0.3907407407407407, -0.3907407407407407, -0.3907407407407407, -0.3907407407407407, -0.3907407407407407, -0.3907407407407407, -0.3907407407407407, -0.3907407407407407, -0.3907407407407407, -0.3907407407407407, -0.3907407407407407, -0.3907407407407407, -0.3907407407407407]"	"[1, 1, 1, 1, 1, 1, 1, 1, 1, 1, 1, 1, 1, 0]"	"[0, 0, 0, 0, 0, 0, 0, 0, 0, 0, 0, 0, 0, 0]"	"[0, 0, 0, 0, 0, 0, 0, 0, 0, 0, 0, 0, 0, 1]"	"[0.0416229000002204, 0.25839769999993223, 0.5168551000001571, 0.7504269000000932, 0.983770800000002, 1.2751180000000204, 1.5004158000001553, 1.7338549999999486, 2.0006483000001936, 2.24187800000027, 2.4918760999998995, 2.751306200000272, 2.9677919000000657, 3.4007652999998754]"	14	"[0.03919189999987793, 0.2559622999997373, 0.5144244999996772, 0.748023799999828, 0.9813557999996192, 1.2726872999996885, 1.4980014999996456, 1.731452999999874, 1.9982474999997066, 2.2394451000000117, 2.4894412999997257, 2.7489150999999765, 2.9654330999997, 3.398316099999647]"	"[0.15586869999970077, 0.3725137999999788, 0.6058627999996133, 0.8643608999996104, 1.09771899999987, 1.3645778000000064, 1.6059533999996347, 1.8663229999997384, 2.114645399999972, 2.3727357999996457, 2.6226362999996127, 2.8726583999996365, 3.10601349999979, 3.398320999999669]"	134.43476759999976	134.4396241999998	135.93135140000004	135.92355339999995								30	03	2024-02-21_09h27.11.258	BART_exp	2023.2.3	122.2490898553933	2024-02-21 09h27.22.371569 +0100	
balloon.png	10	0	17	17	2	135.93135140000004													135.9237804999998	135.93135140000004	135.93135140000004	135.93135140000004	135.93135140000004	135.93135140000004	0.005002099999728671	0.005002099999728671	0.005002099999728671	135.93135140000004	138.16660360000014	9	0.45	False	"[-0.06944444444444445, -0.06944444444444445, -0.06944444444444445, -0.06944444444444445, -0.06944444444444445, -0.06944444444444445, -0.06944444444444445, -0.06944444444444445, -0.06944444444444445, -0.06944444444444445]"	"[-0.3907407407407407, -0.3907407407407407, -0.3907407407407407, -0.3907407407407407, -0.3907407407407407, -0.3907407407407407, -0.3907407407407407, -0.3907407407407407, -0.3907407407407407, -0.3907407407407407]"	"[1, 1, 1, 1, 1, 1, 1, 1, 1, 0]"	"[0, 0, 0, 0, 0, 0, 0, 0, 0, 0]"	"[0, 0, 0, 0, 0, 0, 0, 0, 0, 1]"	"[0.27517800000032366, 0.5169263000002502, 0.7251577000001816, 0.9441491000002316, 1.158385200000339, 1.3583575000002384, 1.5583911000003354, 1.7668765000003077, 1.9584125000001222, 2.241783000000396]"	10	"[0.27295120000007955, 0.5146911000001637, 0.7229271999999582, 0.9421489999999721, 1.1561483000000408, 1.3561109000002034, 1.556149699999878, 1.7646537999999055, 1.9561745999999403, 2.239477699999952]"	"[0.4477569999999105, 0.6393087000001287, 0.8420768000000862, 1.0477077000000463, 1.2477671999999984, 1.4811626999999135, 1.681177899999966, 1.864542100000108, 2.0645791000001736, 2.2394819000001007]"	138.16744740000013	138.17322160000003	139.66704759999993	139.65715330000012								30	03	2024-02-21_09h27.11.258	BART_exp	2023.2.3	122.2490898553933	2024-02-21 09h27.22.371569 +0100	
balloon.png	97	0	18	18	22	139.66704759999993													139.6573628000001	139.66704759999993	139.66704759999993	139.66704759999993	139.66704759999993	139.66704759999993	-0.0002830000003086752	-0.0002830000003086752	-0.0002830000003086752	139.66704759999993	145.22582019999982	20	1.00	False	"[-0.06944444444444445, -0.06944444444444445, -0.06944444444444445, -0.06944444444444445, -0.06944444444444445, -0.06944444444444445, -0.06944444444444445, -0.06944444444444445, -0.06944444444444445, -0.06944444444444445, -0.06944444444444445, -0.06944444444444445, -0.06944444444444445, -0.06944444444444445, -0.06944444444444445, -0.06944444444444445, -0.06944444444444445, -0.06944444444444445, -0.06944444444444445, -0.06944444444444445, -0.06944444444444445]"	"[-0.3907407407407407, -0.3907407407407407, -0.3907407407407407, -0.3907407407407407, -0.3907407407407407, -0.3907407407407407, -0.3907407407407407, -0.3907407407407407, -0.3907407407407407, -0.3907407407407407, -0.3907407407407407, -0.3907407407407407, -0.3907407407407407, -0.3907407407407407, -0.3907407407407407, -0.3907407407407407, -0.3907407407407407, -0.3907407407407407, -0.3907407407407407, -0.3907407407407407, -0.3907407407407407]"	"[1, 1, 1, 1, 1, 1, 1, 1, 1, 1, 1, 1, 1, 1, 1, 1, 1, 1, 1, 1, 0]"	"[0, 0, 0, 0, 0, 0, 0, 0, 0, 0, 0, 0, 0, 0, 0, 0, 0, 0, 0, 0, 0]"	"[0, 0, 0, 0, 0, 0, 0, 0, 0, 0, 0, 0, 0, 0, 0, 0, 0, 0, 0, 0, 1]"	"[0.25458449999996446, 0.4795326999997087, 0.7171887999998035, 0.9504290999998375, 1.2084095000000161, 1.433538899999803, 1.6668692999996892, 1.9002651999999216, 2.1086513999998715, 2.3340376999999535, 2.53500589999976, 2.7420861000000514, 2.992066100000102, 3.217244099999789, 3.425275799999781, 3.6838410999998814, 3.925521799999842, 4.233900299999732, 4.691975199999888, 5.052934899999855, 5.567216299999927]"	21	"[0.25234759999966627, 0.4772788000000219, 0.7149441999999908, 0.9481803999997283, 1.2061282999998184, 1.431259499999669, 1.664603299999726, 1.8979851999997663, 2.1063704999996844, 2.331787499999791, 2.5329603000000134, 2.739833599999656, 2.9897939999996197, 3.214975599999889, 3.423013499999797, 3.6815773999996964, 3.92326039999989, 4.231745499999761, 4.689698700000008, 5.050682399999914, 5.5648802000000614]"	"[0.3687347000000045, 0.5944405999998708, 0.8311857999997301, 1.0561075000000528, 1.2994122000000061, 1.531255599999895, 1.774739899999986, 2.0060851999996885, 2.21465199999966, 2.431423399999858, 2.656204699999762, 2.87286099999983, 3.089526400000068, 3.298290199999883, 3.531435599999895, 3.7895604999998795, 4.031345699999747, 4.339594000000034, 4.797967299999982, 5.181319199999962, 5.564884399999755]"	145.22733149999976	145.2320034999998	146.72375939999984	146.7159803999998								30	03	2024-02-21_09h27.11.258	BART_exp	2023.2.3	122.2490898553933	2024-02-21 09h27.22.371569 +0100	
balloon.png	123	0	19	19	28	146.72375939999984													146.71621479999976	146.72375939999984	146.72375939999984	146.72375939999984	146.72375939999984	146.72375939999984	0.0049038000001928594	0.0049038000001928594	0.0049038000001928594	146.72375939999984	149.8179025999998	14	0.70	False	"[-0.06944444444444445, -0.06944444444444445, -0.06944444444444445, -0.06944444444444445, -0.06944444444444445, -0.06944444444444445, -0.06944444444444445, -0.06944444444444445, -0.06944444444444445, -0.06944444444444445, -0.06944444444444445, -0.06944444444444445, -0.06944444444444445, -0.06944444444444445, -0.06944444444444445]"	"[-0.3907407407407407, -0.3907407407407407, -0.3907407407407407, -0.3907407407407407, -0.3907407407407407, -0.3907407407407407, -0.3907407407407407, -0.3907407407407407, -0.3907407407407407, -0.3907407407407407, -0.3907407407407407, -0.3907407407407407, -0.3907407407407407, -0.3907407407407407, -0.3907407407407407]"	"[1, 1, 1, 1, 1, 1, 1, 1, 1, 1, 1, 1, 1, 1, 0]"	"[0, 0, 0, 0, 0, 0, 0, 0, 0, 0, 0, 0, 0, 0, 0]"	"[0, 0, 0, 0, 0, 0, 0, 0, 0, 0, 0, 0, 0, 0, 1]"	"[0.2585596999997506, 0.45851849999962724, 0.6418534999997974, 0.8669949000000088, 1.0336555999997472, 1.2502857999998014, 1.4420354999997471, 1.6503654999996797, 1.8418063999997685, 2.0169270999999753, 2.2084838000000673, 2.3836764999996376, 2.617004100000031, 2.825411699999677, 3.1005332999998245]"	15	"[0.25616309999986697, 0.45611700000017663, 0.6394528000000719, 0.8645977000001039, 1.0312770000000455, 1.247888100000182, 1.4396437000000333, 1.647969699999976, 1.8394038000001274, 2.01452479999989, 2.206073899999865, 2.3812717999999222, 2.614593700000114, 2.823025400000006, 3.0980838999998923]"	"[0.3642740000000231, 0.5725204000000303, 0.7476526000000376, 0.9225080000001071, 1.155937300000005, 1.3725902999999562, 1.5643503999999666, 1.739256800000021, 1.9310921999999664, 2.131147200000214, 2.3060097000002315, 2.489377500000046, 2.7144403000002058, 2.922762600000169, 3.0980883000001995]"	149.81878619999998	149.8240552000002	151.31585940000014	151.30803460000016								30	03	2024-02-21_09h27.11.258	BART_exp	2023.2.3	122.2490898553933	2024-02-21 09h27.22.371569 +0100	
balloon.png	1	0	20	20	0	151.31585940000014													151.3082642999998	151.31585940000014	151.31585940000014	151.31585940000014	151.31585940000014	151.31585940000014	0.005396399999881396	0.005396399999881396	0.005396399999881396	151.31585940000014	151.82634640000015	2	0.05	True	"[-0.06944444444444445, -0.06944444444444445]"	"[-0.3907407407407407, -0.3907407407407407]"	"[1, 1]"	"[0, 0]"	"[0, 0]"	"[0.18337620000011157, 0.4087312000001475]"	2	"[0.18110180000030596, 0.4064602000003106]"	"[0.28906080000024303, 0.5065489000003254]"	151.82696179999994	151.83254110000007	153.3262976000001	153.31862069999988								30	03	2024-02-21_09h27.11.258	BART_exp	2023.2.3	122.2490898553933	2024-02-21 09h27.22.371569 +0100	
balloon.png	118	0	21	21	27	153.3262976000001													153.31889060000003	153.3262976000001	153.3262976000001	153.3262976000001	153.3262976000001	153.3262976000001	-0.000592299999880197			153.3262976000001	158.7684005000001	22	1.10	False	"[-0.06944444444444445, -0.06944444444444445, -0.06944444444444445, -0.06944444444444445, -0.06944444444444445, -0.06944444444444445, -0.06944444444444445, -0.06944444444444445, -0.06944444444444445, -0.06944444444444445, -0.06944444444444445, -0.06944444444444445, -0.06944444444444445, -0.06944444444444445, -0.06944444444444445, -0.06944444444444445, -0.06944444444444445, -0.06944444444444445, -0.06944444444444445, -0.06944444444444445, -0.06944444444444445, -0.06944444444444445, -0.06944444444444445]"	"[-0.3907407407407407, -0.3907407407407407, -0.3907407407407407, -0.3907407407407407, -0.3907407407407407, -0.3907407407407407, -0.3907407407407407, -0.3907407407407407, -0.3907407407407407, -0.3907407407407407, -0.3907407407407407, -0.3907407407407407, -0.3907407407407407, -0.3907407407407407, -0.3907407407407407, -0.3907407407407407, -0.3907407407407407, -0.3907407407407407, -0.3907407407407407, -0.3907407407407407, -0.3907407407407407, -0.3907407407407407, -0.3907407407407407]"	"[1, 1, 1, 1, 1, 1, 1, 1, 1, 1, 1, 1, 1, 1, 1, 1, 1, 1, 1, 1, 1, 1, 0]"	"[0, 0, 0, 0, 0, 0, 0, 0, 0, 0, 0, 0, 0, 0, 0, 0, 0, 0, 0, 0, 0, 0, 0]"	"[0, 0, 0, 0, 0, 0, 0, 0, 0, 0, 0, 0, 0, 0, 0, 0, 0, 0, 0, 0, 0, 0, 1]"	"[0.5476807999998528, 0.7477814999997463, 0.9810732000000826, 1.2228494999999384, 1.4897237000000132, 1.6896735000000263, 1.9062957999999526, 2.139595399999962, 2.3812345000001187, 2.581154399999832, 2.7811640999998417, 2.997860099999798, 3.197957200000019, 3.3813099999997576, 3.581329099999948, 3.7729997000001276, 3.956360399999994, 4.156401299999743, 4.3313358000000335, 4.539774999999736, 4.731325799999922, 4.939793799999734, 5.448289299999942]"	23	"[0.5454172999998264, 0.7455132000000049, 0.9787973000002239, 1.220570399999815, 1.4874543000000813, 1.6874112999998943, 1.9040326999997887, 2.1373232000000826, 2.3789701999999124, 2.578876399999899, 2.7788813000001937, 2.9955847000001086, 3.1956875999999284, 3.379027699999824, 3.579055100000005, 3.7707236999999623, 3.9540836999999556, 4.154138700000203, 4.329059099999995, 4.537502499999846, 4.7290469999998095, 4.937513700000181, 5.445960399999876]"	"[0.6619943999999123, 0.8787188000001152, 1.0870780999998715, 1.3287187999999333, 1.5955579999999827, 1.8037844000000405, 2.0071114000002126, 2.2454078000000663, 2.462112000000161, 2.678751299999931, 2.8872897000001103, 3.095581399999901, 3.2955541999999696, 3.4789294000001973, 3.6789076999998542, 3.870601699999952, 4.062269099999867, 4.254026499999782, 4.445609500000046, 4.645665800000188, 4.8559424999998555, 5.045708799999829, 5.445964600000025]"	158.76947299999983	158.77469380000002	160.26682419999997	160.25898670000015								30	03	2024-02-21_09h27.11.258	BART_exp	2023.2.3	122.2490898553933	2024-02-21 09h27.22.371569 +0100	
balloon.png	31	0	22	22	7	160.26682419999997													160.25919729999987	160.26682419999997	160.26682419999997	160.26682419999997	160.26682419999997	160.26682419999997	0.005276000000321801	0.005276000000321801	0.005276000000321801	160.26682419999997	164.26013599999987	15	0.75	False	"[-0.06944444444444445, -0.06944444444444445, -0.06944444444444445, -0.06944444444444445, -0.06944444444444445, -0.06944444444444445, -0.06944444444444445, -0.06944444444444445, -0.06944444444444445, -0.06944444444444445, -0.06944444444444445, -0.06944444444444445, -0.06944444444444445, -0.06944444444444445, -0.06944444444444445, -0.06944444444444445]"	"[-0.3907407407407407, -0.3907407407407407, -0.3907407407407407, -0.3907407407407407, -0.3907407407407407, -0.3907407407407407, -0.3907407407407407, -0.3907407407407407, -0.3907407407407407, -0.3907407407407407, -0.3907407407407407, -0.3907407407407407, -0.3907407407407407, -0.3907407407407407, -0.3907407407407407, -0.3907407407407407]"	"[1, 1, 1, 1, 1, 1, 1, 1, 1, 1, 1, 1, 1, 1, 1, 0]"	"[0, 0, 0, 0, 0, 0, 0, 0, 0, 0, 0, 0, 0, 0, 0, 0]"	"[0, 0, 0, 0, 0, 0, 0, 0, 0, 0, 0, 0, 0, 0, 0, 1]"	"[0.3337928999999349, 0.533590500000173, 0.7669436999999562, 0.9913333999998031, 1.2164480000001276, 1.4665691000000152, 1.691591100000096, 1.9249384999998256, 2.1938254000001507, 2.441463399999975, 2.633075100000042, 2.850009599999794, 3.06643350000013, 3.2917450999998437, 3.483303800000158, 3.9998632000001635]"	16	"[0.3314484000002267, 0.5312590000003183, 0.7646119999999428, 0.9889576000000488, 1.2140981000002284, 1.464212100000168, 1.6892198000000462, 1.9225783000001684, 2.191440000000057, 2.439086000000316, 2.630706100000225, 2.8478448000000753, 3.0558673999998973, 3.289375700000164, 3.480928899999981, 3.997420300000158]"	"[0.48885950000021694, 0.6555438000000322, 0.8721681000001809, 1.1054002000000764, 1.330826700000216, 1.555553200000304, 1.8139845000000605, 2.0389586000001145, 2.297310599999946, 2.497244000000137, 2.755710200000067, 2.9723754999999983, 3.1806767000002765, 3.389097600000241, 3.6057559000000765, 3.9974247000000105]"	164.26126759999988	164.26665439999988	165.75848050000013	165.750583								30	03	2024-02-21_09h27.11.258	BART_exp	2023.2.3	122.2490898553933	2024-02-21 09h27.22.371569 +0100	
balloon.png	62	0	23	23	14	165.75848050000013													165.75079430000005	165.75848050000013	165.75848050000013	165.75848050000013	165.75848050000013	165.75848050000013	0.005506699999841658	0.005506699999841658	0.005506699999841658	165.75848050000013	173.5942245000001	20	1.00	False	"[-0.06944444444444445, -0.06944444444444445, -0.06944444444444445, -0.06944444444444445, -0.06944444444444445, -0.06944444444444445, -0.06944444444444445, -0.06944444444444445, -0.06944444444444445, -0.06944444444444445, -0.06944444444444445, -0.06944444444444445, -0.06944444444444445, -0.06944444444444445, -0.06944444444444445, -0.06944444444444445, -0.06944444444444445, -0.06944444444444445, -0.06944444444444445, -0.06944444444444445, -0.06944444444444445]"	"[-0.3907407407407407, -0.3907407407407407, -0.3907407407407407, -0.3907407407407407, -0.3907407407407407, -0.3907407407407407, -0.3907407407407407, -0.3907407407407407, -0.3907407407407407, -0.3907407407407407, -0.3907407407407407, -0.3907407407407407, -0.3907407407407407, -0.3907407407407407, -0.3907407407407407, -0.3907407407407407, -0.3907407407407407, -0.3907407407407407, -0.3907407407407407, -0.3907407407407407, -0.3907407407407407]"	"[1, 1, 1, 1, 1, 1, 1, 1, 1, 1, 1, 1, 1, 1, 1, 1, 1, 1, 1, 1, 0]"	"[0, 0, 0, 0, 0, 0, 0, 0, 0, 0, 0, 0, 0, 0, 0, 0, 0, 0, 0, 0, 0]"	"[0, 0, 0, 0, 0, 0, 0, 0, 0, 0, 0, 0, 0, 0, 0, 0, 0, 0, 0, 0, 1]"	"[0.3168818999997711, 0.5417270999996617, 0.7837523999996847, 1.0752326999995603, 1.3170700999999099, 1.5669717999999193, 1.8087627999998404, 2.0606457999997474, 2.3085619999997107, 2.550347299999885, 2.800583099999585, 3.041849099999581, 3.283579799999643, 3.5086420999996335, 3.7845674999998664, 4.300660099999732, 4.751101099999687, 5.292073399999936, 5.819882699999653, 6.959104299999581, 7.842322899999999]"	21	"[0.31457700000009936, 0.5394197999999051, 0.7814610999998877, 1.0730886000001192, 1.3147613999999521, 1.564665700000205, 1.8064734999998109, 2.0583474000000024, 2.3062512000001334, 2.5480545999998867, 2.798301199999969, 3.0395352000000457, 3.281260000000202, 3.506328200000098, 3.7823059000002104, 4.298358999999891, 4.748876900000141, 5.289761300000009, 5.817583000000013, 6.956806499999857, 7.839964299999792]"	"[0.42263550000006944, 0.681120600000213, 0.9060315000001538, 1.1811490999998568, 1.4478640000002088, 1.6812189000002036, 1.931331499999942, 2.1645721999998386, 2.414681600000222, 2.656192999999803, 2.8979763000002094, 3.1561823000001823, 3.3895142999999734, 3.639552199999798, 3.9228806000000986, 4.398200799999813, 4.8896254999999655, 5.398059199999807, 5.973072499999944, 7.098122599999897, 7.839968400000089]"	173.5954356000002	173.60071100000005	175.10084529999995	175.08463500000016								30	03	2024-02-21_09h27.11.258	BART_exp	2023.2.3	122.2490898553933	2024-02-21 09h27.22.371569 +0100	
balloon.png	105	0	24	24	24	175.10084529999995													175.0848507999999	175.10084529999995	175.10084529999995	175.10084529999995	175.10084529999995	175.10084529999995	0.00549829999999929	0.00549829999999929	0.00549829999999929	175.10084529999995	185.02824250000003	36	1.80	False	"[-0.06944444444444445, -0.06944444444444445, -0.06944444444444445, -0.06944444444444445, -0.06944444444444445, -0.06944444444444445, -0.06944444444444445, -0.06944444444444445, -0.06944444444444445, -0.06944444444444445, -0.06944444444444445, -0.06944444444444445, -0.06944444444444445, -0.06944444444444445, -0.06944444444444445, -0.06944444444444445, -0.06944444444444445, -0.06944444444444445, -0.06944444444444445, -0.06944444444444445, -0.06944444444444445, -0.06944444444444445, -0.06944444444444445, -0.06944444444444445, -0.06944444444444445, -0.06944444444444445, -0.06944444444444445, -0.06944444444444445, -0.06944444444444445, -0.06944444444444445, -0.06944444444444445, -0.06944444444444445, -0.06944444444444445, -0.06944444444444445, -0.06944444444444445, -0.06944444444444445, -0.06944444444444445]"	"[-0.3907407407407407, -0.3907407407407407, -0.3907407407407407, -0.3907407407407407, -0.3907407407407407, -0.3907407407407407, -0.3907407407407407, -0.3907407407407407, -0.3907407407407407, -0.3907407407407407, -0.3907407407407407, -0.3907407407407407, -0.3907407407407407, -0.3907407407407407, -0.3907407407407407, -0.3907407407407407, -0.3907407407407407, -0.3907407407407407, -0.3907407407407407, -0.3907407407407407, -0.3907407407407407, -0.3907407407407407, -0.3907407407407407, -0.3907407407407407, -0.3907407407407407, -0.3907407407407407, -0.3907407407407407, -0.3907407407407407, -0.3907407407407407, -0.3907407407407407, -0.3907407407407407, -0.3907407407407407, -0.3907407407407407, -0.3907407407407407, -0.3907407407407407, -0.3907407407407407, -0.3907407407407407]"	"[1, 1, 1, 1, 1, 1, 1, 1, 1, 1, 1, 1, 1, 1, 1, 1, 1, 1, 1, 1, 1, 1, 1, 1, 1, 1, 1, 1, 1, 1, 1, 1, 1, 1, 1, 1, 0]"	"[0, 0, 0, 0, 0, 0, 0, 0, 0, 0, 0, 0, 0, 0, 0, 0, 0, 0, 0, 0, 0, 0, 0, 0, 0, 0, 0, 0, 0, 0, 0, 0, 0, 0, 0, 0, 0]"	"[0, 0, 0, 0, 0, 0, 0, 0, 0, 0, 0, 0, 0, 0, 0, 0, 0, 0, 0, 0, 0, 0, 0, 0, 0, 0, 0, 0, 0, 0, 0, 0, 0, 0, 0, 0, 1]"	"[0.3936631999999918, 0.6170474999998987, 0.833581299999878, 1.050311099999817, 1.316753499999777, 1.5667742999999064, 1.8085605999999643, 2.0337127999996483, 2.258824099999856, 2.4921799999997347, 2.7088668999999754, 2.942124199999853, 3.150270399999954, 3.3755952999999863, 3.608982599999763, 3.8171336000000338, 4.0094537999998465, 4.216892399999779, 4.392093299999942, 4.5836764999999104, 4.783632599999692, 4.9586725999997725, 5.150302799999736, 5.341924599999857, 5.558684599999651, 5.750397699999667, 5.958725999999842, 6.192030899999736, 6.392160699999749, 6.58379930000001, 6.8087273999999525, 7.333880799999861, 8.284200599999622, 8.475712499999645, 8.700806399999692, 9.20073149999962, 9.94231949999994]"	37	"[0.39140580000002956, 0.6147962999998526, 0.8313036999998076, 1.0480264999996507, 1.3144588999998632, 1.5644788999998127, 1.8062675999999556, 2.0314361000000645, 2.256539299999986, 2.4899129999998877, 2.706587799999852, 2.939833599999929, 3.1479835000000094, 3.373320899999726, 3.6067017999998825, 3.8148559999999634, 4.007229599999846, 4.214595200000076, 4.3898943999997755, 4.581394799999998, 4.781344499999705, 4.956409399999757, 5.148012299999664, 5.339626199999657, 5.556417299999794, 5.748113699999976, 5.956444799999645, 6.189748899999813, 6.389877699999943, 6.581518899999992, 6.806431199999679, 7.331585500000074, 8.281920399999763, 8.47343120000005, 8.698517999999694, 9.198439999999664, 9.939966599999934]"	"[0.49772970000003625, 0.7310542000000169, 0.9728663999999299, 1.1810311999997793, 1.4310516999998981, 1.6810522999999193, 1.9145819000000301, 2.147915000000012, 2.3895456999998714, 2.597781799999666, 2.8230233999997836, 3.0479372999998304, 3.2732403999998496, 3.489958199999819, 3.706580699999904, 3.9145369999996547, 4.11450079999986, 4.314544500000011, 4.497978500000045, 4.68492040000001, 4.872966099999758, 5.064577599999666, 5.256267499999922, 5.447955499999807, 5.639588099999855, 5.856327099999817, 6.064727599999969, 6.272938199999771, 6.498046599999725, 6.689639899999747, 6.90624119999984, 7.448082200000044, 8.356485599999814, 8.564833999999792, 8.78983419999986, 9.315026999999645, 9.939970599999924]"	185.02969299999995	185.0348113	186.52826049999976	186.5205587999999								30	03	2024-02-21_09h27.11.258	BART_exp	2023.2.3	122.2490898553933	2024-02-21 09h27.22.371569 +0100	
balloon.png	110	0	25	25	25	186.52826049999976													186.52082560000008	186.52826049999976	186.52826049999976	186.52826049999976	186.52826049999976	186.52826049999976	0.0052197999998497835	0.0052197999998497835	0.0052197999998497835	186.52826049999976	191.25361750000002	18	0.90	False	"[-0.06944444444444445, -0.06944444444444445, -0.06944444444444445, -0.06944444444444445, -0.06944444444444445, -0.06944444444444445, -0.06944444444444445, -0.06944444444444445, -0.06944444444444445, -0.06944444444444445, -0.06944444444444445, -0.06944444444444445, -0.06944444444444445, -0.06944444444444445, -0.06944444444444445, -0.06944444444444445, -0.06944444444444445, -0.06944444444444445, -0.06944444444444445]"	"[-0.3907407407407407, -0.3907407407407407, -0.3907407407407407, -0.3907407407407407, -0.3907407407407407, -0.3907407407407407, -0.3907407407407407, -0.3907407407407407, -0.3907407407407407, -0.3907407407407407, -0.3907407407407407, -0.3907407407407407, -0.3907407407407407, -0.3907407407407407, -0.3907407407407407, -0.3907407407407407, -0.3907407407407407, -0.3907407407407407, -0.3907407407407407]"	"[1, 1, 1, 1, 1, 1, 1, 1, 1, 1, 1, 1, 1, 1, 1, 1, 1, 1, 0]"	"[0, 0, 0, 0, 0, 0, 0, 0, 0, 0, 0, 0, 0, 0, 0, 0, 0, 0, 0]"	"[0, 0, 0, 0, 0, 0, 0, 0, 0, 0, 0, 0, 0, 0, 0, 0, 0, 0, 1]"	"[0.7231222000000344, 0.9320375999996031, 1.1398279999998522, 1.3733438999997816, 1.5986050999999861, 1.806738299999779, 2.0153628999996727, 2.223384399999759, 2.4485068999997566, 2.698211199999605, 2.8898831999999857, 3.0981948999997257, 3.3149287999999615, 3.531594099999893, 3.748256699999729, 3.965160599999763, 4.181958599999689, 4.365225099999861, 4.731684699999732]"	19	"[0.7208874000002652, 0.9298180000000684, 1.1375903000002836, 1.371111700000256, 1.5964011999999457, 1.8045007000000624, 2.013231899999937, 2.2211488000002646, 2.446449600000051, 2.696002099999987, 2.8876429000001735, 3.09595279999985, 3.3126884000002974, 3.529359999999997, 3.7460347000001093, 3.9629479999998694, 4.179745299999922, 4.362994399999934, 4.729377000000113]"	"[0.8295569000001706, 1.0463313000000198, 1.2628248999999414, 1.48750310000014, 1.7208309000002373, 1.9294519999998556, 2.1295924999999443, 2.3208448000000317, 2.5626385999999, 2.77924239999993, 2.9959326000002875, 3.195919000000231, 3.4215893000000506, 3.6376469000001634, 3.8543546999999307, 4.071007200000167, 4.279321800000162, 4.445960600000035, 4.729381300000114]"	191.2545927000001	191.26017610000008	192.7541415999999	192.74413159999995								30	03	2024-02-21_09h27.11.258	BART_exp	2023.2.3	122.2490898553933	2024-02-21 09h27.22.371569 +0100	
balloon.png	101	0	26	26	23	192.7541415999999													192.74434680000013	192.7541415999999	192.7541415999999	192.7541415999999	192.7541415999999	192.7541415999999	-0.00033379999968019547	-0.00033379999968019547	-0.00033379999968019547	192.7541415999999	197.7043232000001	21	1.05	False	"[-0.06944444444444445, -0.06944444444444445, -0.06944444444444445, -0.06944444444444445, -0.06944444444444445, -0.06944444444444445, -0.06944444444444445, -0.06944444444444445, -0.06944444444444445, -0.06944444444444445, -0.06944444444444445, -0.06944444444444445, -0.06944444444444445, -0.06944444444444445, -0.06944444444444445, -0.06944444444444445, -0.06944444444444445, -0.06944444444444445, -0.06944444444444445, -0.06944444444444445, -0.06944444444444445, -0.06944444444444445]"	"[-0.3907407407407407, -0.3907407407407407, -0.3907407407407407, -0.3907407407407407, -0.3907407407407407, -0.3907407407407407, -0.3907407407407407, -0.3907407407407407, -0.3907407407407407, -0.3907407407407407, -0.3907407407407407, -0.3907407407407407, -0.3907407407407407, -0.3907407407407407, -0.3907407407407407, -0.3907407407407407, -0.3907407407407407, -0.3907407407407407, -0.3907407407407407, -0.3907407407407407, -0.3907407407407407, -0.3907407407407407]"	"[1, 1, 1, 1, 1, 1, 1, 1, 1, 1, 1, 1, 1, 1, 1, 1, 1, 1, 1, 1, 1, 0]"	"[0, 0, 0, 0, 0, 0, 0, 0, 0, 0, 0, 0, 0, 0, 0, 0, 0, 0, 0, 0, 0, 0]"	"[0, 0, 0, 0, 0, 0, 0, 0, 0, 0, 0, 0, 0, 0, 0, 0, 0, 0, 0, 0, 0, 1]"	"[0.12503659999993033, 0.3507694999998421, 0.5753173999996761, 0.783688600000005, 1.0251220999998623, 1.267015999999785, 1.4668849999998201, 1.6752136000000064, 1.8833993999996892, 2.117048199999772, 2.333866299999954, 2.542108399999961, 2.7349997999999687, 2.9754127999999582, 3.175453799999559, 3.3921118999996906, 3.584290499999952, 3.800982099999601, 4.01776959999961, 4.241942199999812, 4.508679299999585, 4.958879499999966]"	22	"[0.12271380000038334, 0.3484963000000789, 0.5730058000003737, 0.7813963000003241, 1.022797200000241, 1.2647000000001754, 1.464574900000116, 1.6728865000000042, 1.8810694000003423, 2.1147280000000137, 2.3315652000001137, 2.5398026000002574, 2.7326720000000932, 2.97309340000038, 3.173141100000066, 3.3898019000002932, 3.581988100000217, 3.7986901000003854, 4.015501800000038, 4.239616900000328, 4.5063529000003655, 4.956492400000116]"	"[0.2309927000001153, 0.4893168000003243, 0.6893948000001728, 0.9060214000000997, 1.1226980000001276, 1.3311195000001135, 1.5478477999999996, 1.7811816000003091, 1.9893896000003224, 2.22273770000038, 2.431253100000049, 2.658024100000148, 2.8646357000002354, 3.081408900000042, 3.289489400000093, 3.506171600000016, 3.7228353000000425, 3.9228556000002754, 4.122823400000016, 4.322875600000316, 4.598116200000277, 4.9564964999999575]"	197.70537400000012	197.71072569999978	199.20518809999976	199.19646329999978								30	03	2024-02-21_09h27.11.258	BART_exp	2023.2.3	122.2490898553933	2024-02-21 09h27.22.371569 +0100	
balloon.png	57	0	27	27	13	199.20518809999976													199.19685679999975	199.20518809999976	199.20518809999976	199.20518809999976	199.20518809999976	199.20518809999976	-0.00011519999998199637	-0.00011519999998199637	-0.00011519999998199637	199.20518809999976	204.36291519999986	21	1.05	False	"[-0.06944444444444445, -0.06944444444444445, -0.06944444444444445, -0.06944444444444445, -0.06944444444444445, -0.06944444444444445, -0.06944444444444445, -0.06944444444444445, -0.06944444444444445, -0.06944444444444445, -0.06944444444444445, -0.06944444444444445, -0.06944444444444445, -0.06944444444444445, -0.06944444444444445, -0.06944444444444445, -0.06944444444444445, -0.06944444444444445, -0.06944444444444445, -0.06944444444444445, -0.06944444444444445]"	"[-0.3907407407407407, -0.3907407407407407, -0.3907407407407407, -0.3907407407407407, -0.3907407407407407, -0.3907407407407407, -0.3907407407407407, -0.3907407407407407, -0.3907407407407407, -0.3907407407407407, -0.3907407407407407, -0.3907407407407407, -0.3907407407407407, -0.3907407407407407, -0.3907407407407407, -0.3907407407407407, -0.3907407407407407, -0.3907407407407407, -0.3907407407407407, -0.3907407407407407, -0.3907407407407407]"	"[1, 1, 1, 1, 1, 1, 1, 1, 1, 1, 1, 1, 1, 1, 1, 1, 1, 1, 1, 1, 0]"	"[0, 0, 0, 0, 0, 0, 0, 0, 0, 0, 0, 0, 0, 0, 0, 0, 0, 0, 0, 0, 0]"	"[0, 0, 0, 0, 0, 0, 0, 0, 0, 0, 0, 0, 0, 0, 0, 0, 0, 0, 0, 0, 1]"	"[0.17037660000005417, 0.3891576000000896, 0.6473919000000024, 0.8560179999999491, 1.0725993000000926, 1.281112199999825, 1.5143935000000965, 1.7228402000000642, 1.9642023999999765, 2.1644443000000138, 2.356001699999979, 2.5395040999997036, 2.7726841999997305, 3.011968899999829, 3.2486650999999256, 3.4732750999996824, 3.6896865999997317, 3.8812906999996812, 4.156402600000092, 4.39775920000011, 5.164486199999828]"	21	"[0.16785799999979645, 0.3866561999998339, 0.6448771999998826, 0.8535097999997561, 1.070090899999741, 1.2786045999996531, 1.5118871999998191, 1.7203405999998722, 1.9616908999996667, 2.161939899999652, 2.353491699999722, 2.5369956999998067, 2.7701747999999498, 3.009447999999793, 3.2463379999999233, 3.4707954999998947, 3.6872048999998697, 3.8787874999998166, 4.1539082999997845, 4.395244899999852, 5.161913499999628]"	"[0.2948418999999376, 0.5281100999995942, 0.7448348999996597, 0.9532910999996602, 1.169925499999863, 1.3948851000000104, 1.628229399999782, 1.844889499999681, 2.0367910999998458, 2.2700040999998237, 2.461675000000014, 2.6367452999998022, 2.870094099999733, 3.1117225999996663, 3.3450684999997975, 3.5868634999997084, 3.7951081999999587, 4.0117490999996335, 4.26174519999995, 4.503627999999935, 5.161917699999776]"	204.36406249999982	204.3695090000001	205.86229249999997	205.85377530000005								30	03	2024-02-21_09h27.11.258	BART_exp	2023.2.3	122.2490898553933	2024-02-21 09h27.22.371569 +0100	
balloon.png	79	0	28	28	18	205.86229249999997													205.85420139999997	205.86229249999997	205.86229249999997	205.86229249999997	205.86229249999997	205.86229249999997	0.005472999999710737	0.005472999999710737	0.005472999999710737	205.86229249999997	208.39836090000017	12	0.60	False	"[-0.06944444444444445, -0.06944444444444445, -0.06944444444444445, -0.06944444444444445, -0.06944444444444445, -0.06944444444444445, -0.06944444444444445, -0.06944444444444445, -0.06944444444444445, -0.06944444444444445, -0.06944444444444445, -0.06944444444444445]"	"[-0.3907407407407407, -0.3907407407407407, -0.3907407407407407, -0.3907407407407407, -0.3907407407407407, -0.3907407407407407, -0.3907407407407407, -0.3907407407407407, -0.3907407407407407, -0.3907407407407407, -0.3907407407407407, -0.3907407407407407]"	"[1, 1, 1, 1, 1, 1, 1, 1, 1, 1, 1, 0]"	"[0, 0, 0, 0, 0, 0, 0, 0, 0, 0, 0, 0]"	"[0, 0, 0, 0, 0, 0, 0, 0, 0, 0, 0, 1]"	"[0.26656210000010105, 0.4665724000001319, 0.6999101999999766, 0.9411316999999144, 1.1494783000002826, 1.3328919999999016, 1.5328208000000814, 1.7078435000003083, 1.9162303000002794, 2.1245668999999907, 2.291209400000298, 2.5431062000002385]"	12	"[0.26393559999996796, 0.4639754999998331, 0.69734440000002, 0.9384657999999035, 1.1468448000000535, 1.3302518000000418, 1.5302001000000018, 1.70517719999998, 1.9137419999997292, 2.1218940999997358, 2.2885394999998425, 2.540367300000071]"	"[0.4135151999998925, 0.6049511999999595, 0.8050128999998378, 1.021700199999941, 1.2217118999997183, 1.4301416999996945, 1.6301665999999386, 1.8217525999998543, 2.030022899999949, 2.221784899999875, 2.3967342000000826, 2.5403714999997646]"	208.39916159999984	208.4030047000001	209.8966743000001	209.88863869999977								30	03	2024-02-21_09h27.11.258	BART_exp	2023.2.3	122.2490898553933	2024-02-21 09h27.22.371569 +0100	
balloon.png	53	0	29	29	12	209.8966743000001													209.88889030000018	209.8966743000001	209.8966743000001	209.8966743000001	209.8966743000001	209.8966743000001	0.00403260000030059	0.00403260000030059	0.00403260000030059	209.8966743000001	221.57263190000003	47	2.35	False	"[-0.06944444444444445, -0.06944444444444445, -0.06944444444444445, -0.06944444444444445, -0.06944444444444445, -0.06944444444444445, -0.06944444444444445, -0.06944444444444445, -0.06944444444444445, -0.06944444444444445, -0.06944444444444445, -0.06944444444444445, -0.06944444444444445, -0.06944444444444445, -0.06944444444444445, -0.06944444444444445, -0.06944444444444445, -0.06944444444444445, -0.06944444444444445, -0.06944444444444445, -0.06944444444444445, -0.06944444444444445, -0.06944444444444445, -0.06944444444444445, -0.06944444444444445, -0.06944444444444445, -0.06944444444444445, -0.06944444444444445, -0.06944444444444445, -0.06944444444444445, -0.06944444444444445, -0.06944444444444445, -0.06944444444444445, -0.06944444444444445, -0.06944444444444445, -0.06944444444444445, -0.06944444444444445, -0.06944444444444445, -0.06944444444444445, -0.06944444444444445, -0.06944444444444445, -0.06944444444444445, -0.06944444444444445, -0.06944444444444445, -0.06944444444444445, -0.06944444444444445, -0.06944444444444445, -0.06944444444444445]"	"[-0.3907407407407407, -0.3907407407407407, -0.3907407407407407, -0.3907407407407407, -0.3907407407407407, -0.3907407407407407, -0.3907407407407407, -0.3907407407407407, -0.3907407407407407, -0.3907407407407407, -0.3907407407407407, -0.3907407407407407, -0.3907407407407407, -0.3907407407407407, -0.3907407407407407, -0.3907407407407407, -0.3907407407407407, -0.3907407407407407, -0.3907407407407407, -0.3907407407407407, -0.3907407407407407, -0.3907407407407407, -0.3907407407407407, -0.3907407407407407, -0.3907407407407407, -0.3907407407407407, -0.3907407407407407, -0.3907407407407407, -0.3907407407407407, -0.3907407407407407, -0.3907407407407407, -0.3907407407407407, -0.3907407407407407, -0.3907407407407407, -0.3907407407407407, -0.3907407407407407, -0.3907407407407407, -0.3907407407407407, -0.3907407407407407, -0.3907407407407407, -0.3907407407407407, -0.3907407407407407, -0.3907407407407407, -0.3907407407407407, -0.3907407407407407, -0.3907407407407407, -0.3907407407407407, -0.3907407407407407]"	"[1, 1, 1, 1, 1, 1, 1, 1, 1, 1, 1, 1, 1, 1, 1, 1, 1, 1, 1, 1, 1, 1, 1, 1, 1, 1, 1, 1, 1, 1, 1, 1, 1, 1, 1, 1, 1, 1, 1, 1, 1, 1, 1, 1, 1, 1, 1, 0]"	"[0, 0, 0, 0, 0, 0, 0, 0, 0, 0, 0, 0, 0, 0, 0, 0, 0, 0, 0, 0, 0, 0, 0, 0, 0, 0, 0, 0, 0, 0, 0, 0, 0, 0, 0, 0, 0, 0, 0, 0, 0, 0, 0, 0, 0, 0, 0, 0]"	"[0, 0, 0, 0, 0, 0, 0, 0, 0, 0, 0, 0, 0, 0, 0, 0, 0, 0, 0, 0, 0, 0, 0, 0, 0, 0, 0, 0, 0, 0, 0, 0, 0, 0, 0, 0, 0, 0, 0, 0, 0, 0, 0, 0, 0, 0, 0, 1]"	"[0.31650730000001204, 0.5568926000000829, 0.8152347000000191, 1.0649991000000227, 1.3233976000001348, 1.5736536999997952, 1.8319382999998197, 2.098426500000187, 2.3490123000001404, 2.6153807000000597, 2.8985922000001665, 3.190476799999942, 3.448695399999906, 3.740432800000235, 3.9821101000002272, 4.248585100000128, 4.515273699999852, 4.873916800000188, 5.141186299999845, 5.424142899999879, 5.69103640000003, 5.9258467999998174, 6.1655541000000085, 6.448721199999909, 6.708910500000002, 6.949731799999881, 7.190578000000187, 7.398955999999998, 7.590559499999927, 7.799071999999796, 7.957505200000014, 8.173956399999952, 8.340718400000242, 8.582535099999859, 8.774044100000083, 8.965828200000033, 9.174067800000103, 9.365794199999982, 9.549132099999952, 9.723952800000006, 9.932293899999877, 10.12399490000007, 10.33247080000001, 10.54063720000022, 10.732701200000065, 10.940675499999998, 11.140940799999953, 11.682566599999973]"	48	"[0.31398559999979625, 0.5543816999997944, 0.8127403999997114, 1.0624729999999545, 1.3208887999999206, 1.571162799999911, 1.8294154999998682, 2.0958950999997796, 2.3467789999999695, 2.612883999999667, 2.8960674999998446, 3.187961399999949, 3.4461677999997846, 3.737910699999702, 3.979594899999938, 4.246058700000049, 4.512748199999805, 4.871396199999708, 5.138715999999931, 5.4216905999996925, 5.688679099999717, 5.923344299999826, 6.1630387999998675, 6.446193099999618, 6.706622299999708, 6.947206599999845, 7.188052999999854, 7.396430699999655, 7.588032099999964, 7.796559999999772, 7.954999399999906, 8.171426399999746, 8.338205300000027, 8.580033400000048, 8.771529399999963, 8.963323299999956, 9.171541799999886, 9.36328259999982, 9.546625399999812, 9.72142649999978, 9.9297689, 10.121470399999907, 10.329940499999793, 10.538106499999685, 10.730214199999864, 10.938152700000046, 11.138419399999748, 11.679982199999813]"	"[0.4873427999996238, 0.6957617999996728, 0.9374035999999251, 1.1874650999998266, 1.4541596999997637, 1.7041817999997875, 1.9624698999996326, 2.2210071999998036, 2.4875968999999714, 2.7544370000000526, 3.02098339999975, 3.295900099999926, 3.5458997999999156, 3.846006099999613, 4.112659999999778, 4.379309799999646, 4.645928799999638, 4.997873599999821, 5.254522599999746, 5.537823499999831, 5.772126899999876, 6.054488599999786, 6.3044160999997985, 6.571167499999774, 6.814791099999638, 7.0795602999996845, 7.304410999999618, 7.5129604999997355, 7.679509799999778, 7.8462956999997004, 8.046271799999886, 8.2211041999999, 8.487872199999856, 8.69634219999989, 8.887890099999822, 9.079710599999999, 9.27265129999978, 9.454666699999962, 9.638019699999859, 9.82967409999992, 10.032850999999937, 10.213118499999837, 10.45470609999984, 10.671367699999792, 10.863182000000052, 11.063200799999777, 11.25473299999976, 11.679986399999962]"	221.57429880000018	221.57934429999978	223.07111729999997	223.06291920000012								30	03	2024-02-21_09h27.11.258	BART_exp	2023.2.3	122.2490898553933	2024-02-21 09h27.22.371569 +0100	
																																														223.06296139999995	223.07111729999997	223.07111729999997	245.2582321	space	22.182379299999866	None	30	03	2024-02-21_09h27.11.258	BART_exp	2023.2.3	122.2490898553933	2024-02-21 09h27.22.371569 +0100	
