image	max_pumps	pump_loop.thisRepN	pump_loop.thisTrialN	pump_loop.thisN	pump_loop.thisIndex	thisRow.t	notes	Start.started	text_start.started	continue_start.started	mouse_start.started	Start.stopped	mouse_start.x	mouse_start.y	mouse_start.leftButton	mouse_start.midButton	mouse_start.rightButton	mouse_start.time	trials.started	stim_balloon.started	stim_balloon_burst.started	stim_balloon_burst.stopped	text_ballon_value.started	text_bank.started	mouse.started	sound_bang.started	sound_bang.stopped	button_balloon.started	trials.stopped	n_pumps	earnings	popped	mouse.x	mouse.y	mouse.leftButton	mouse.midButton	mouse.rightButton	mouse.time	button_balloon.numClicks	button_balloon.timesOn	button_balloon.timesOff	Feedback.started	text_feedback.started	Feedback.stopped	text_feedback.stopped	End.started	text_end.started	key_end.started	End.stopped	key_end.keys	key_end.rt	key_end.duration	participant	session	date	expName	psychopyVersion	frameRate	expStart	
								0.03575290000298992	0.04794500001298729	0.04794500001298729	0.03610779999871738	40.40948010000284	[0.6907407407407408]	[-0.37962962962962965]	[1]	[0]	[0]	[40.37278079999669]																																			29	01	2024-02-19_15h07.02.510	BART_exp	2023.2.3	120.00537623289597	2024-02-19 15h07.20.131109 +0100	
balloon.png	84	0	0	0	19	40.475685100012925													40.415600000007544	40.475685100012925	40.475685100012925	40.475685100012925	40.475685100012925	40.475685100012925	0.00783769998815842	0.00783769998815842	0.00783769998815842	40.475685100012925	54.28653990000021	11	0.55	False	"[-0.0824074074074074, -0.0824074074074074, -0.0824074074074074, -0.0824074074074074, -0.0824074074074074, -0.0824074074074074, -0.0824074074074074, -0.0824074074074074, -0.0824074074074074, -0.0824074074074074, -0.0824074074074074, -0.0824074074074074]"	"[-0.375, -0.375, -0.375, -0.375, -0.375, -0.375, -0.375, -0.375, -0.375, -0.375, -0.375, -0.375]"	"[1, 1, 1, 1, 1, 1, 1, 1, 1, 1, 1, 0]"	"[0, 0, 0, 0, 0, 0, 0, 0, 0, 0, 0, 0]"	"[0, 0, 0, 0, 0, 0, 0, 0, 0, 0, 0, 1]"	"[2.153102800002671, 2.760923499998171, 3.169269300007727, 3.769450899999356, 5.019649099995149, 5.94447040000523, 7.053051199996844, 7.978114300000016, 9.853272599997581, 11.26149639999494, 12.186706299995421, 13.869997500005411]"	12	"[2.1020203000080073, 2.7098114999971585, 3.1099634999991395, 3.718338999999105, 4.968542900009197, 5.893364300005487, 7.001946400007, 7.927003600008902, 9.802166199995554, 11.210389500003657, 12.135599700006424, 13.818840899999486]"	"[2.1513234000012744, 2.7929961000045296, 3.2014735999982804, 3.809744900005171, 5.084976300000562, 5.98489459999837, 7.1349431999988155, 8.085021699997014, 9.935156100007589, 11.326916400008486, 12.335287000008975, 13.81884560000617]"	54.2877320000116	54.30157000001054	55.793428000004496									29	01	2024-02-19_15h07.02.510	BART_exp	2023.2.3	120.00537623289597	2024-02-19 15h07.20.131109 +0100	
balloon.png	14	0	1	1	3	55.81005260000529													55.79360920000181	55.81005260000529	55.81005260000529	55.81005260000529	55.81005260000529	55.81005260000529	0.007145199997466989	0.007145199997466989	0.007145199997466989	55.81005260000529	70.17111670000304	12	0.60	False	"[0.013888888888888888, 0.013888888888888888, 0.013888888888888888, 0.013888888888888888, 0.013888888888888888, 0.013888888888888888, 0.013888888888888888, 0.013888888888888888, 0.013888888888888888, 0.013888888888888888, 0.013888888888888888, 0.013888888888888888, 0.013888888888888888]"	"[-0.3851851851851852, -0.3851851851851852, -0.3851851851851852, -0.3851851851851852, -0.3851851851851852, -0.3851851851851852, -0.3851851851851852, -0.3851851851851852, -0.3851851851851852, -0.3851851851851852, -0.3851851851851852, -0.3851851851851852, -0.3851851851851852]"	"[1, 1, 1, 1, 1, 1, 1, 1, 1, 1, 1, 1, 0]"	"[0, 0, 0, 0, 0, 0, 0, 0, 0, 0, 0, 0, 0]"	"[0, 0, 0, 0, 0, 0, 0, 0, 0, 0, 0, 0, 1]"	"[1.7673843999946257, 2.692387700008112, 3.47569000000658, 4.267535699997097, 5.7341608999995515, 6.009375299996464, 6.67590879999625, 7.26763299999584, 8.526286399996025, 9.634584900006303, 10.576296500003082, 13.00153439999849, 14.37656689999858]"	13	"[1.764634000006481, 2.6896383999992395, 3.472937300000922, 4.264790200002608, 5.731408299994655, 6.0066269999952056, 6.673153800002183, 7.264879299997119, 8.523533600004157, 9.631833899999037, 10.573543699996662, 12.998780599999009, 14.373751899998751]"	"[1.830990100002964, 2.7810699999972712, 3.581095000001369, 4.356301799998619, 5.781237899995176, 6.106269900003099, 6.747973499994259, 7.373026300003403, 8.623137899994617, 9.7232032000029, 10.689930900000036, 13.081746099996963, 14.373756300003151]"	70.17195110001194	70.1776960999996	71.66965930000879	71.68612960001337								29	01	2024-02-19_15h07.02.510	BART_exp	2023.2.3	120.00537623289597	2024-02-19 15h07.20.131109 +0100	
balloon.png	92	0	2	2	21	71.68612960001337													71.66983210000035	71.68612960001337	71.68612960001337	71.68612960001337	71.68612960001337	71.68612960001337	-0.0008716000011190772	-0.0008716000011190772	-0.0008716000011190772	71.68612960001337	89.16404860001057	16	0.80	False	"[0.023148148148148147, 0.023148148148148147, 0.023148148148148147, 0.023148148148148147, 0.023148148148148147, 0.023148148148148147, 0.023148148148148147, 0.023148148148148147, 0.023148148148148147, 0.023148148148148147, 0.023148148148148147, 0.023148148148148147, 0.023148148148148147, 0.023148148148148147, 0.023148148148148147, 0.023148148148148147, 0.023148148148148147]"	"[-0.37592592592592594, -0.37592592592592594, -0.37592592592592594, -0.37592592592592594, -0.37592592592592594, -0.37592592592592594, -0.37592592592592594, -0.37592592592592594, -0.37592592592592594, -0.37592592592592594, -0.37592592592592594, -0.37592592592592594, -0.37592592592592594, -0.37592592592592594, -0.37592592592592594, -0.37592592592592594, -0.37592592592592594]"	"[1, 1, 1, 1, 1, 1, 1, 1, 1, 1, 1, 1, 1, 1, 1, 1, 0]"	"[0, 0, 0, 0, 0, 0, 0, 0, 0, 0, 0, 0, 0, 0, 0, 0, 0]"	"[0, 0, 0, 0, 0, 0, 0, 0, 0, 0, 0, 0, 0, 0, 0, 0, 1]"	"[1.9671738000033656, 2.558970700003556, 3.433873699992546, 4.084066199997324, 5.075779999999213, 6.225723499999731, 7.077311200002441, 8.0843875999999, 9.34275899999193, 10.184330399992177, 11.159429699997418, 11.767794999992475, 12.57617269999173, 13.301362900005188, 14.47649800000363, 15.393203200001153, 17.493300599991926]"	17	"[1.9606498000066495, 2.5524476999999024, 3.4273461000120733, 4.077543899999, 5.0692601000046125, 6.219202200009022, 7.070947600004729, 8.077866100007668, 9.336234500005958, 10.177808000007644, 11.15290929999901, 11.76127400000405, 12.569645900002797, 13.294831999999587, 14.469969400000991, 15.386676000009174, 17.486708800002816]"	"[2.0520971000078134, 2.6521913000033237, 3.5522104000119725, 4.193924300008803, 5.160740500010434, 6.3030056999996305, 7.177453500000411, 8.185856800002512, 9.43593680000049, 10.285975900013, 11.261039800010622, 11.861098600013065, 12.669475200003944, 13.402875100000529, 14.58627170001273, 15.478118200000608, 17.48671340000874]"	89.16496120000375	89.17064419999951	90.66262460000871	90.68742920001387								29	01	2024-02-19_15h07.02.510	BART_exp	2023.2.3	120.00537623289597	2024-02-19 15h07.20.131109 +0100	
balloon.png	5	0	3	3	1	90.68742920001387													90.66280010000628	90.68742920001387	90.68742920001387	90.68742920001387	90.68742920001387	90.68742920001387	-0.0008944000001065433	-0.0008944000001065433	-0.0008944000001065433	90.68742920001387	97.07310470000084	6	0.25	True	"[0.027777777777777776, 0.027777777777777776, 0.027777777777777776, 0.027777777777777776, 0.027777777777777776, 0.027777777777777776]"	"[-0.3814814814814815, -0.3814814814814815, -0.3814814814814815, -0.37962962962962965, -0.37962962962962965, -0.37962962962962965]"	"[1, 1, 1, 1, 1, 1]"	"[0, 0, 0, 0, 0, 0]"	"[0, 0, 0, 0, 0, 0]"	"[1.2255267000000458, 1.658875299995998, 2.333920799996122, 4.192426099994918, 5.158959599997615, 6.28419560000475]"	6	"[1.2116021999972872, 1.6449400999990758, 2.3199881999898935, 4.178492599996389, 5.145023799996125, 6.2702650999999605]"	"[1.319613899991964, 1.7446996999933617, 2.4030118999944534, 4.311517800000729, 5.25321399999666, 6.386683899996569]"	97.07379940000828	97.08791020000353	98.57966160000069									29	01	2024-02-19_15h07.02.510	BART_exp	2023.2.3	120.00537623289597	2024-02-19 15h07.20.131109 +0100	
balloon.png	62	0	4	4	14	98.59628650000377													98.57984090001264	98.59628650000377	98.59628650000377	98.59628650000377	98.59628650000377	98.59628650000377	0.0073517999990144745	0.0073517999990144745	0.0073517999990144745	98.59628650000377	109.04022660000192	14	0.70	False	"[0.03981481481481482, 0.03981481481481482, 0.03981481481481482, 0.03981481481481482, 0.03981481481481482, 0.03981481481481482, 0.03981481481481482, 0.03981481481481482, 0.03981481481481482, 0.03981481481481482, 0.03981481481481482, 0.03981481481481482, 0.03981481481481482, 0.03981481481481482, 0.03981481481481482]"	"[-0.3888888888888889, -0.3888888888888889, -0.3888888888888889, -0.3888888888888889, -0.3888888888888889, -0.3888888888888889, -0.3888888888888889, -0.3888888888888889, -0.3888888888888889, -0.3888888888888889, -0.3888888888888889, -0.3888888888888889, -0.3888888888888889, -0.3888888888888889, -0.3851851851851852]"	"[1, 1, 1, 1, 1, 1, 1, 1, 1, 1, 1, 1, 1, 1, 0]"	"[0, 0, 0, 0, 0, 0, 0, 0, 0, 0, 0, 0, 0, 0, 0]"	"[0, 0, 0, 0, 0, 0, 0, 0, 0, 0, 0, 0, 0, 0, 1]"	"[1.700738100000308, 2.058909900006256, 2.442280600007507, 3.2674335000046995, 3.5091490000049816, 3.7425404000096023, 3.992617200012319, 4.359242100006668, 4.64243050001096, 4.917745400001877, 6.709395400001085, 7.601103700013482, 8.951186100006453, 9.301204700008384, 10.459467000007862]"	15	"[1.694195399992168, 2.0523634999990463, 2.4357337999972515, 3.2608920999919064, 3.5026049000007333, 3.7360037000034936, 3.9860804000054486, 4.352695399997174, 4.635881399997743, 4.911199699999997, 6.702854000002844, 7.594558700002381, 8.944642000002204, 9.29465509999136, 10.452855099996668]"	"[1.743948499992257, 2.143891999992775, 2.518909899998107, 3.3273004999937257, 3.6023717999923974, 3.8273425999941537, 4.060686700002407, 4.4356991999957245, 4.694065699994098, 4.9690874999942025, 6.802590199993574, 7.685929999992368, 9.061032900004648, 9.369381199998315, 10.452862899997854]"	109.04106640000828	109.04699170000094	110.53898120000667	110.55545440000424								29	01	2024-02-19_15h07.02.510	BART_exp	2023.2.3	120.00537623289597	2024-02-19 15h07.20.131109 +0100	
balloon.png	114	0	5	5	26	110.55545440000424													110.53915870000492	110.55545440000424	110.55545440000424	110.55545440000424	110.55545440000424	110.55545440000424	-0.0006253000028664246	-0.0006253000028664246	-0.0006253000028664246	110.55545440000424	122.67464140000811	15	0.75	False	"[0.03888888888888889, 0.03888888888888889, 0.03888888888888889, 0.03888888888888889, 0.03888888888888889, 0.03888888888888889, 0.03888888888888889, 0.03888888888888889, 0.03888888888888889, 0.03888888888888889, 0.03888888888888889, 0.03888888888888889, 0.03888888888888889, 0.03888888888888889, 0.03888888888888889, 0.03888888888888889]"	"[-0.37592592592592594, -0.37592592592592594, -0.37592592592592594, -0.37592592592592594, -0.37592592592592594, -0.37592592592592594, -0.37592592592592594, -0.37592592592592594, -0.37592592592592594, -0.37592592592592594, -0.37592592592592594, -0.37592592592592594, -0.37592592592592594, -0.37592592592592594, -0.37592592592592594, -0.37592592592592594]"	"[1, 1, 1, 1, 1, 1, 1, 1, 1, 1, 1, 1, 1, 1, 1, 0]"	"[0, 0, 0, 0, 0, 0, 0, 0, 0, 0, 0, 0, 0, 0, 0, 0]"	"[0, 0, 0, 0, 0, 0, 0, 0, 0, 0, 0, 0, 0, 0, 0, 1]"	"[0.8837563999986742, 1.3838468000030844, 1.833876999997301, 2.5170688000071095, 2.9088030999992043, 3.475476899999194, 3.950656800006982, 4.5005590000073425, 4.975761199995759, 6.2673513000045205, 7.834122999993269, 8.37596210000629, 9.167729499997222, 10.276023400001577, 10.959484899998643, 12.134555399999954]"	16	"[0.8762271000014152, 1.3763161999959266, 1.8263447000063024, 2.5095360999985132, 2.9012709999951767, 3.467950499994913, 3.943127699996694, 4.493025599993416, 4.968233899999177, 6.259825400004047, 7.826590700002271, 8.368433600000571, 9.160198400000809, 10.268499900004826, 10.95195390000299, 12.126965100003872]"	"[0.9259526999958325, 1.4593305000016699, 1.9261875999945914, 2.6094015999988187, 3.0011315000010654, 3.5761552000039956, 4.051221400004579, 4.59286420000717, 5.059568900003796, 6.343003600006341, 7.94309479999356, 8.484803300001658, 9.268212800001493, 10.401785499998368, 11.034980099997483, 12.126969599994482]"	122.67553210000915	122.68125280000095	124.17319590000261	124.18971220000822								29	01	2024-02-19_15h07.02.510	BART_exp	2023.2.3	120.00537623289597	2024-02-19 15h07.20.131109 +0100	
balloon.png	88	0	6	6	20	124.18971220000822													124.17338010000822	124.18971220000822	124.18971220000822	124.18971220000822	124.18971220000822	124.18971220000822	-0.0009142000053543597	-0.0009142000053543597	-0.0009142000053543597	124.18971220000822	137.0673625000054	17	0.85	False	"[0.03425925925925926, 0.03425925925925926, 0.03425925925925926, 0.03425925925925926, 0.03425925925925926, 0.03425925925925926, 0.03425925925925926, 0.03425925925925926, 0.03425925925925926, 0.03425925925925926, 0.03425925925925926, 0.03425925925925926, 0.03425925925925926, 0.03425925925925926, 0.03425925925925926, 0.03425925925925926, 0.03425925925925926, 0.03425925925925926]"	"[-0.3685185185185185, -0.3685185185185185, -0.3685185185185185, -0.3685185185185185, -0.3685185185185185, -0.3685185185185185, -0.3685185185185185, -0.3685185185185185, -0.3685185185185185, -0.3685185185185185, -0.3685185185185185, -0.3685185185185185, -0.3685185185185185, -0.3685185185185185, -0.3685185185185185, -0.3685185185185185, -0.3685185185185185, -0.3685185185185185]"	"[1, 1, 1, 1, 1, 1, 1, 1, 1, 1, 1, 1, 1, 1, 1, 1, 1, 0]"	"[0, 0, 0, 0, 0, 0, 0, 0, 0, 0, 0, 0, 0, 0, 0, 0, 0, 0]"	"[0, 0, 0, 0, 0, 0, 0, 0, 0, 0, 0, 0, 0, 0, 0, 0, 0, 1]"	"[0.6754817000037292, 1.108967300009681, 1.6087702000077115, 2.650545600001351, 3.60059290000936, 4.000570800009882, 4.417263300012564, 5.092464600005769, 6.434082900013891, 6.759427800003323, 6.9676057000033325, 7.184150600005523, 7.417478900009883, 8.584351400000742, 9.751147700008005, 10.659710800013272, 11.64274490000389, 12.893050400001812]"	18	"[0.6725757999956841, 1.1060583999933442, 1.6058614999928977, 2.647639099988737, 3.597690899987356, 3.9976669999887235, 4.414350599996396, 5.089556699997047, 6.431173199991463, 6.756523499992909, 6.964707699997234, 7.181259999997565, 7.414569699991262, 8.581455599996843, 9.748258399995393, 10.656900699992548, 11.639834099987638, 12.890092799992999]"	"[0.7890424999932293, 1.1973182999936398, 1.6723763999907533, 2.7224677999911364, 3.7141732999880332, 4.080862299990258, 4.505951599989203, 5.2143099999957485, 6.5393437999882735, 6.8395166999980574, 7.047717900000862, 7.256083399988711, 7.514443099993514, 8.689649699997972, 9.872951199999079, 10.739638899991405, 11.748046099994099, 12.89009729999816]"	137.06833330000518	137.0739534000022	138.5658783000108	138.57399380000425								29	01	2024-02-19_15h07.02.510	BART_exp	2023.2.3	120.00537623289597	2024-02-19 15h07.20.131109 +0100	
balloon.png	127	0	7	7	29	138.57399380000425													138.56605720000516	138.57399380000425	138.57399380000425	138.57399380000425	138.57399380000425	138.57399380000425	0.005723900001612492	0.005723900001612492	0.005723900001612492	138.57399380000425	156.16007830000308	18	0.90	False	"[0.06018518518518518, 0.06018518518518518, 0.06018518518518518, 0.06018518518518518, 0.06018518518518518, 0.06018518518518518, 0.06018518518518518, 0.06018518518518518, 0.06018518518518518, 0.06018518518518518, 0.06018518518518518, 0.06018518518518518, 0.06018518518518518, 0.06018518518518518, 0.06018518518518518, 0.06018518518518518, 0.06018518518518518, 0.06018518518518518, 0.06018518518518518]"	"[-0.3648148148148148, -0.3648148148148148, -0.3648148148148148, -0.3648148148148148, -0.3648148148148148, -0.3648148148148148, -0.3648148148148148, -0.3648148148148148, -0.3648148148148148, -0.3648148148148148, -0.3648148148148148, -0.3648148148148148, -0.3648148148148148, -0.3648148148148148, -0.3648148148148148, -0.3648148148148148, -0.3648148148148148, -0.3648148148148148, -0.3648148148148148]"	"[1, 1, 1, 1, 1, 1, 1, 1, 1, 1, 1, 1, 1, 1, 1, 1, 1, 1, 0]"	"[0, 0, 0, 0, 0, 0, 0, 0, 0, 0, 0, 0, 0, 0, 0, 0, 0, 0, 0]"	"[0, 0, 0, 0, 0, 0, 0, 0, 0, 0, 0, 0, 0, 0, 0, 0, 0, 0, 1]"	"[1.4923061000008602, 2.0505528999929084, 2.7173108999995748, 4.242242499996792, 4.517389599990565, 4.975600099991425, 5.24254849999852, 5.45907409999927, 5.9425230999913765, 7.425752800001646, 8.784388200001558, 9.092689600001904, 9.550927699994645, 10.709508500003722, 12.417745099999593, 14.401230899995426, 15.026275900003384, 16.33468400000129, 17.593080999999074]"	19	"[1.4904818999930285, 2.0487242999952286, 2.7154787000035867, 4.240409299993189, 4.515558600003715, 4.9737719999975525, 5.240720499990857, 5.457242899996345, 5.940695500001311, 7.423917399995844, 8.782561300002271, 9.090869299994665, 9.549092300003394, 10.707679200000712, 12.415918200000306, 14.399404299998423, 15.024448099997244, 16.33285469999828, 17.591187199999695]"	"[1.6069763999985298, 2.115069299994502, 2.8317963000008604, 4.306927400000859, 4.590245400002459, 5.065280700000585, 5.298717500001658, 5.540299500004039, 6.007134699990274, 7.548781699995743, 8.848955699999351, 9.198875899994164, 9.615645199999562, 10.824115399998846, 12.490774399993825, 14.490962399999262, 15.124305699995602, 16.407729200000176, 17.591191899991827]"	156.16100530000404	156.16684830001032	157.65881610001088	157.6752864000009								29	01	2024-02-19_15h07.02.510	BART_exp	2023.2.3	120.00537623289597	2024-02-19 15h07.20.131109 +0100	
balloon.png	18	0	8	8	4	157.6752864000009													157.65900640000473	157.6752864000009	157.6752864000009	157.6752864000009	157.6752864000009	157.6752864000009	-0.0007391999970423058	-0.0007391999970423058	-0.0007391999970423058	157.6752864000009	169.95309080000152	19	0.90	True	"[0.06018518518518518, 0.06018518518518518, 0.06018518518518518, 0.06018518518518518, 0.06018518518518518, 0.06018518518518518, 0.06018518518518518, 0.06018518518518518, 0.06018518518518518, 0.06018518518518518, 0.06018518518518518, 0.06018518518518518, 0.06018518518518518, 0.06018518518518518, 0.06018518518518518, 0.06018518518518518, 0.06018518518518518, 0.06018518518518518, 0.06018518518518518]"	"[-0.3648148148148148, -0.3648148148148148, -0.3648148148148148, -0.3648148148148148, -0.3648148148148148, -0.3648148148148148, -0.3648148148148148, -0.3648148148148148, -0.3648148148148148, -0.3648148148148148, -0.3648148148148148, -0.3648148148148148, -0.3648148148148148, -0.3648148148148148, -0.3648148148148148, -0.3648148148148148, -0.3648148148148148, -0.3648148148148148, -0.3648148148148148]"	"[1, 1, 1, 1, 1, 1, 1, 1, 1, 1, 1, 1, 1, 1, 1, 1, 1, 1, 1]"	"[0, 0, 0, 0, 0, 0, 0, 0, 0, 0, 0, 0, 0, 0, 0, 0, 0, 0, 0]"	"[0, 0, 0, 0, 0, 0, 0, 0, 0, 0, 0, 0, 0, 0, 0, 0, 0, 0, 0]"	"[1.1672749999997905, 1.7672629999869969, 2.267173599990201, 2.7422953999921447, 3.1589851999888197, 3.5089166999969166, 3.9005441999906907, 4.550852899992606, 5.175756599986926, 5.525746799990884, 5.742450399993686, 5.967500199985807, 6.90905939998629, 7.417586899988237, 8.450903199991444, 9.034203399991384, 10.034309499998926, 10.80949879999389, 12.151245799992466]"	19	"[1.1598300999903586, 1.7598131999984616, 2.2597243999916827, 2.734847899992019, 3.151537899990217, 3.5014668999938294, 3.8930985999904806, 4.543406799988588, 5.168307199986884, 5.518291699991096, 5.734998599989922, 5.960045099986019, 6.9016076999978395, 7.410140399995726, 8.443452299994533, 9.026749499986181, 10.026860999991186, 10.802047699995455, 12.143794699994032]"	"[1.2760617999883834, 1.8427729999966687, 2.36785099998815, 2.817855299988878, 3.2095562999893446, 3.5763558999897214, 3.959630899989861, 4.667964899999788, 5.276337699993746, 5.601367599985679, 5.826382699990063, 6.034712799999397, 6.984786799992435, 7.493189799992251, 8.53493979999621, 9.134973799998988, 10.135004099996877, 10.926721599986195, 12.27682279999135]"	169.95403269999952	169.9594761000044	171.45142670000496	171.45954860000347								29	01	2024-02-19_15h07.02.510	BART_exp	2023.2.3	120.00537623289597	2024-02-19 15h07.20.131109 +0100	
balloon.png	101	0	9	9	23	171.45954860000347													171.4516045000055	171.45954860000347	171.45954860000347	171.45954860000347	171.45954860000347	171.45954860000347	0.0055742999975336716			171.45954860000347	182.46198210000875	14	0.70	False	"[0.040740740740740744, 0.040740740740740744, 0.040740740740740744, 0.040740740740740744, 0.040740740740740744, 0.040740740740740744, 0.040740740740740744, 0.040740740740740744, 0.040740740740740744, 0.040740740740740744, 0.040740740740740744, 0.040740740740740744, 0.040740740740740744, 0.040740740740740744, 0.040740740740740744]"	"[-0.387037037037037, -0.387037037037037, -0.387037037037037, -0.387037037037037, -0.387037037037037, -0.387037037037037, -0.387037037037037, -0.387037037037037, -0.387037037037037, -0.387037037037037, -0.387037037037037, -0.387037037037037, -0.387037037037037, -0.387037037037037, -0.387037037037037]"	"[1, 1, 1, 1, 1, 1, 1, 1, 1, 1, 1, 1, 1, 1, 0]"	"[0, 0, 0, 0, 0, 0, 0, 0, 0, 0, 0, 0, 0, 0, 0]"	"[0, 0, 0, 0, 0, 0, 0, 0, 0, 0, 0, 0, 0, 0, 1]"	"[1.7004196000052616, 2.2421003000054043, 3.1673430999944685, 3.5673386999987997, 3.89220600000408, 4.292233899992425, 5.350786800001515, 5.892523500006064, 6.325867399995332, 7.059071499999845, 7.56763079999655, 8.25921639999433, 9.192718899997999, 9.9096040000004, 11.00943429999461]"	15	"[1.6985524000047008, 2.2402295999927446, 3.165469600004144, 3.5654658999992535, 3.8903343999991193, 4.290355699995416, 5.348915099995793, 5.890649299995857, 6.323992799996631, 7.057193799992092, 7.565759799996158, 8.257346400001552, 9.190844199998537, 9.907731500003138, 11.007500399995479]"	"[1.7817472000024281, 2.3317209999950137, 3.2818280999927083, 3.648527400000603, 3.98184379999293, 4.3902497999952175, 5.465290799998911, 5.990321999997832, 6.432015899990802, 7.165447299994412, 7.665476499998476, 8.365485899994383, 9.307233799991081, 10.032264900000882, 11.007505000001402]"	182.46283430000767	182.4686481000099	183.96062700000766	183.97706710000057								29	01	2024-02-19_15h07.02.510	BART_exp	2023.2.3	120.00537623289597	2024-02-19 15h07.20.131109 +0100	
balloon.png	97	0	10	10	22	183.97706710000057													183.9608098000026	183.97706710000057	183.97706710000057	183.97706710000057	183.97706710000057	183.97706710000057	-0.0007674999942537397	-0.0007674999942537397	-0.0007674999942537397	183.97706710000057	203.82999250000285	18	0.90	False	"[0.040740740740740744, 0.040740740740740744, 0.040740740740740744, 0.040740740740740744, 0.040740740740740744, 0.040740740740740744, 0.040740740740740744, 0.040740740740740744, 0.040740740740740744, 0.040740740740740744, 0.040740740740740744, 0.040740740740740744, 0.040740740740740744, 0.040740740740740744, 0.040740740740740744, 0.040740740740740744, 0.040740740740740744, 0.040740740740740744, 0.040740740740740744]"	"[-0.387037037037037, -0.387037037037037, -0.387037037037037, -0.387037037037037, -0.387037037037037, -0.387037037037037, -0.387037037037037, -0.387037037037037, -0.387037037037037, -0.387037037037037, -0.387037037037037, -0.387037037037037, -0.387037037037037, -0.387037037037037, -0.387037037037037, -0.387037037037037, -0.387037037037037, -0.387037037037037, -0.387037037037037]"	"[1, 1, 1, 1, 1, 1, 1, 1, 1, 1, 1, 1, 1, 1, 1, 1, 1, 1, 0]"	"[0, 0, 0, 0, 0, 0, 0, 0, 0, 0, 0, 0, 0, 0, 0, 0, 0, 0, 0]"	"[0, 0, 0, 0, 0, 0, 0, 0, 0, 0, 0, 0, 0, 0, 0, 0, 0, 0, 1]"	"[0.7502831000019796, 1.0838026999990689, 1.4505099999951199, 2.1755787000001874, 2.492150699996273, 3.575494599994272, 4.46885150000162, 4.7757716000051005, 6.542330600001151, 7.742491700002574, 8.775824099997408, 9.700917099995422, 11.44277019999572, 12.834599499998149, 13.367802199994912, 15.109600800002227, 17.268088299999363, 18.79335340000398, 19.868233500004862]"	19	"[0.7450976999971317, 1.0786194000102114, 1.4453312999976333, 2.1704057000024477, 2.486978100001579, 3.570305700006429, 4.463818400006858, 4.770590200001607, 6.537168299997575, 7.737303700007033, 8.770640500006266, 9.69573040000978, 11.437583500010078, 12.829421000002185, 13.354375199996866, 15.104412900007446, 17.262901599999168, 18.78816850000294, 19.86298250000982]"	"[0.8532914000097662, 1.1616844000091078, 1.5283398000028683, 2.211728200010839, 2.5867334000067785, 3.678481800001464, 4.553676199997426, 4.853559299997869, 6.645341299998108, 7.878757900005439, 8.87049190000107, 9.812357500006328, 11.554012699998566, 12.95411960000638, 13.470851999998558, 15.245931600002223, 17.33778820000589, 18.871206199997687, 19.86298710000119]"	203.8308912000066	203.8367469000077	205.32871210000303	205.34518120001303								29	01	2024-02-19_15h07.02.510	BART_exp	2023.2.3	120.00537623289597	2024-02-19 15h07.20.131109 +0100	
balloon.png	118	0	11	11	27	205.34518120001303													205.32888800000364	205.34518120001303	205.34518120001303	205.34518120001303	205.34518120001303	205.34518120001303	-0.0007714999956078827	-0.0007714999956078827	-0.0007714999956078827	205.34518120001303	218.9978223000071	19	0.95	False	"[0.03796296296296296, 0.03796296296296296, 0.03796296296296296, 0.03796296296296296, 0.03796296296296296, 0.03796296296296296, 0.03796296296296296, 0.03796296296296296, 0.03796296296296296, 0.03796296296296296, 0.03796296296296296, 0.03796296296296296, 0.03796296296296296, 0.03796296296296296, 0.03796296296296296, 0.03796296296296296, 0.03796296296296296, 0.03796296296296296, 0.03796296296296296, 0.03796296296296296]"	"[-0.3851851851851852, -0.3851851851851852, -0.3851851851851852, -0.3851851851851852, -0.3851851851851852, -0.3851851851851852, -0.3851851851851852, -0.3851851851851852, -0.3851851851851852, -0.3851851851851852, -0.3851851851851852, -0.3851851851851852, -0.3851851851851852, -0.3851851851851852, -0.3851851851851852, -0.3851851851851852, -0.3851851851851852, -0.3851851851851852, -0.3851851851851852, -0.3851851851851852]"	"[1, 1, 1, 1, 1, 1, 1, 1, 1, 1, 1, 1, 1, 1, 1, 1, 1, 1, 1, 0]"	"[0, 0, 0, 0, 0, 0, 0, 0, 0, 0, 0, 0, 0, 0, 0, 0, 0, 0, 0, 0]"	"[0, 0, 0, 0, 0, 0, 0, 0, 0, 0, 0, 0, 0, 0, 0, 0, 0, 0, 0, 1]"	"[1.57539720000932, 2.025756500006537, 2.383774700007052, 2.833994900007383, 3.6756839000008767, 4.225725500000408, 4.767397100004018, 5.158966400005738, 6.025842500006547, 6.335510000004433, 6.768954600003781, 7.3341680000012275, 8.02600350001012, 8.51753350000945, 9.075976799998898, 9.85944610000297, 10.651167700008955, 11.626325600009295, 12.726142500003334, 13.667994000003091]"	20	"[1.567809500003932, 2.0181618000060553, 2.3761746999953175, 2.8264038000052096, 3.6680850999982795, 4.218125900006271, 4.759796900005313, 5.151373899992905, 6.018248199994559, 6.328076100006001, 6.7616380999970715, 7.326570399993216, 8.018412399993395, 8.509936699992977, 9.068383599995286, 9.851846999998088, 10.643570400003227, 11.61873149999883, 12.71854390000226, 13.66033569999854]"	"[1.6759694000065792, 2.1260894000006374, 2.4676958000054583, 2.917734600006952, 3.77614370000083, 4.326160500000697, 4.901189800002612, 5.2096351999934996, 6.151341200005845, 6.4346489000017755, 6.8763898000033805, 7.418061200005468, 8.118095600002562, 8.609782100000302, 9.159848099996452, 9.959851899999194, 10.751598400005605, 11.718316800004686, 12.818585999993957, 13.660340200003702]"	218.99886570000672	219.0044377000013	220.4964086000109	220.50456790000317								29	01	2024-02-19_15h07.02.510	BART_exp	2023.2.3	120.00537623289597	2024-02-19 15h07.20.131109 +0100	
balloon.png	110	0	12	12	25	220.50456790000317													220.49658970000746	220.50456790000317	220.50456790000317	220.50456790000317	220.50456790000317	220.50456790000317	0.005766000002040528	0.005766000002040528	0.005766000002040528	220.50456790000317	234.99878610001178	20	1.00	False	"[0.03796296296296296, 0.03796296296296296, 0.03796296296296296, 0.03796296296296296, 0.03796296296296296, 0.03796296296296296, 0.03796296296296296, 0.03796296296296296, 0.03796296296296296, 0.03796296296296296, 0.03796296296296296, 0.03796296296296296, 0.03796296296296296, 0.03796296296296296, 0.03796296296296296, 0.03796296296296296, 0.03796296296296296, 0.03796296296296296, 0.03796296296296296, 0.03796296296296296, 0.03796296296296296]"	"[-0.3851851851851852, -0.3851851851851852, -0.3851851851851852, -0.3851851851851852, -0.3851851851851852, -0.3851851851851852, -0.3851851851851852, -0.3851851851851852, -0.3851851851851852, -0.3851851851851852, -0.3851851851851852, -0.3851851851851852, -0.3851851851851852, -0.3851851851851852, -0.3851851851851852, -0.3851851851851852, -0.3851851851851852, -0.3851851851851852, -0.3851851851851852, -0.3851851851851852, -0.3851851851851852]"	"[1, 1, 1, 1, 1, 1, 1, 1, 1, 1, 1, 1, 1, 1, 1, 1, 1, 1, 1, 1, 0]"	"[0, 0, 0, 0, 0, 0, 0, 0, 0, 0, 0, 0, 0, 0, 0, 0, 0, 0, 0, 0, 0]"	"[0, 0, 0, 0, 0, 0, 0, 0, 0, 0, 0, 0, 0, 0, 0, 0, 0, 0, 0, 0, 1]"	"[0.6422410000086529, 0.850565300002927, 1.1170353000052273, 1.8088684999966063, 2.2089084000035655, 2.4673107999988133, 3.1004898000101093, 3.7923698000086006, 4.142236800005776, 4.392273100005696, 5.325644500000635, 5.800824100006139, 7.084305600001244, 7.442638399996213, 8.401067099999636, 8.9425906999968, 9.834489900007611, 10.984566099999938, 12.30112150000059, 12.951189600004, 14.501262600009795]"	21	"[0.6403911999950651, 0.8487140000070212, 1.115175700004329, 1.8070111999986693, 2.2070536999963224, 2.4654550999985076, 3.098635000002105, 3.790511900006095, 4.140389799998957, 4.390414299996337, 5.323789400004898, 5.798968899995089, 7.082447399996454, 7.4407859000057215, 8.399210999996285, 8.940732300005038, 9.832632000005106, 10.982714300000225, 12.299264300003415, 12.949333099997602, 14.49934409999696]"	"[0.7316565999935847, 0.9566972000029637, 1.1985501000017393, 1.9151006000029156, 2.2985169000021415, 2.548442300001625, 3.198495999997249, 3.923538600007305, 4.240251700000954, 4.473578000004636, 5.4736670999991475, 5.9070190000056755, 7.1904290999955265, 7.540601000000606, 8.515516300001764, 9.040580800006865, 9.94061910000164, 11.107375799998408, 12.374145699999644, 13.057488200007356, 14.499348800003645]"	234.9996807000134	235.00552270001208	236.4975078000134	236.51398550000158								29	01	2024-02-19_15h07.02.510	BART_exp	2023.2.3	120.00537623289597	2024-02-19 15h07.20.131109 +0100	
balloon.png	66	0	13	13	15	236.51398550000158													236.49768860000768	236.51398550000158	236.51398550000158	236.51398550000158	236.51398550000158	236.51398550000158	-0.0007099000067682937	-0.0007099000067682937	-0.0007099000067682937	236.51398550000158	250.88333930000954	20	1.00	False	"[0.03796296296296296, 0.03796296296296296, 0.03796296296296296, 0.03796296296296296, 0.03796296296296296, 0.03796296296296296, 0.03796296296296296, 0.03796296296296296, 0.03796296296296296, 0.03796296296296296, 0.03796296296296296, 0.03796296296296296, 0.03796296296296296, 0.03796296296296296, 0.03796296296296296, 0.03796296296296296, 0.03796296296296296, 0.03796296296296296, 0.03796296296296296, 0.03796296296296296, 0.03796296296296296]"	"[-0.3851851851851852, -0.3851851851851852, -0.3851851851851852, -0.3851851851851852, -0.3851851851851852, -0.3851851851851852, -0.3851851851851852, -0.3851851851851852, -0.3851851851851852, -0.3851851851851852, -0.3851851851851852, -0.3851851851851852, -0.3851851851851852, -0.3851851851851852, -0.3851851851851852, -0.3851851851851852, -0.3851851851851852, -0.3851851851851852, -0.3851851851851852, -0.3851851851851852, -0.3851851851851852]"	"[1, 1, 1, 1, 1, 1, 1, 1, 1, 1, 1, 1, 1, 1, 1, 1, 1, 1, 1, 1, 0]"	"[0, 0, 0, 0, 0, 0, 0, 0, 0, 0, 0, 0, 0, 0, 0, 0, 0, 0, 0, 0, 0]"	"[0, 0, 0, 0, 0, 0, 0, 0, 0, 0, 0, 0, 0, 0, 0, 0, 0, 0, 0, 0, 1]"	"[0.8088751000032062, 1.1086985000001732, 1.3421333000005689, 1.600624799990328, 2.6756841000023996, 3.0921472999907564, 4.009031900000991, 4.483904699998675, 4.842431299999589, 5.134312199996202, 5.959000299990294, 6.467377199995099, 7.500791500002379, 8.351935999991838, 9.142558399995323, 9.650951899995562, 10.05944179999642, 11.009510399991996, 11.417871400000877, 12.75961159999133, 14.384733300001244]"	21	"[0.8003664999996545, 1.100185400006012, 1.3336221000063233, 1.5921127000037814, 2.667170200002147, 3.0836426000023494, 4.000518799992278, 4.475390699997661, 4.833922599995276, 5.125818999993498, 5.950491299998248, 6.4588683000038145, 7.492279300000519, 8.343592399993213, 9.13404889999947, 9.642439300005208, 10.050929399993038, 11.00100210000528, 11.40936530000181, 12.751100399997085, 14.376157699996838]"	"[0.9000767999968957, 1.1750124999962281, 1.4167046999937156, 1.691754800005583, 2.7834776999952737, 3.1918745000002673, 4.141889499995159, 4.583578899997519, 4.933721599998535, 5.2253417000029, 6.0753419999964535, 6.56704749999335, 7.608791199992993, 8.458854500000598, 9.233915000004345, 9.733924200001638, 10.16729860000487, 11.117374800000107, 11.51742540000123, 12.875828599993838, 14.376162100001238]"	250.88433010000153	250.8899298000033	252.38191030001326	252.39836910000304								29	01	2024-02-19_15h07.02.510	BART_exp	2023.2.3	120.00537623289597	2024-02-19 15h07.20.131109 +0100	
balloon.png	71	0	14	14	16	252.39836910000304													252.3820878000115	252.39836910000304	252.39836910000304	252.39836910000304	252.39836910000304	252.39836910000304	-0.0009974999993573874	-0.0009974999993573874	-0.0009974999993573874	252.39836910000304	265.2676950000023	24	1.20	False	"[0.03796296296296296, 0.03796296296296296, 0.03796296296296296, 0.03796296296296296, 0.03796296296296296, 0.03796296296296296, 0.03796296296296296, 0.03796296296296296, 0.03796296296296296, 0.03796296296296296, 0.03796296296296296, 0.03796296296296296, 0.03796296296296296, 0.03796296296296296, 0.03796296296296296, 0.03796296296296296, 0.03796296296296296, 0.03796296296296296, 0.03796296296296296, 0.03796296296296296, 0.03796296296296296, 0.03796296296296296, 0.03796296296296296, 0.03796296296296296, 0.03796296296296296]"	"[-0.3851851851851852, -0.3851851851851852, -0.3851851851851852, -0.3851851851851852, -0.3851851851851852, -0.3851851851851852, -0.3851851851851852, -0.3851851851851852, -0.3851851851851852, -0.3851851851851852, -0.3851851851851852, -0.3851851851851852, -0.3851851851851852, -0.3851851851851852, -0.3851851851851852, -0.3851851851851852, -0.3851851851851852, -0.3851851851851852, -0.3851851851851852, -0.3851851851851852, -0.3851851851851852, -0.3851851851851852, -0.3851851851851852, -0.3851851851851852, -0.3851851851851852]"	"[1, 1, 1, 1, 1, 1, 1, 1, 1, 1, 1, 1, 1, 1, 1, 1, 1, 1, 1, 1, 1, 1, 1, 1, 0]"	"[0, 0, 0, 0, 0, 0, 0, 0, 0, 0, 0, 0, 0, 0, 0, 0, 0, 0, 0, 0, 0, 0, 0, 0, 0]"	"[0, 0, 0, 0, 0, 0, 0, 0, 0, 0, 0, 0, 0, 0, 0, 0, 0, 0, 0, 0, 0, 0, 0, 0, 1]"	"[0.575301999997464, 0.8169774999987567, 1.2755436999868834, 1.975419399997918, 2.2673662999877706, 2.608777599991299, 3.033788299988373, 3.342330100000254, 3.617187299998477, 4.617230099989683, 5.300780599995051, 5.759154799990938, 6.117613499998697, 6.725867399989511, 7.250908999994863, 7.642470999999205, 7.9508005999960005, 8.267689899992547, 8.617524499990395, 8.959200699988287, 9.284422899989295, 9.825931299987133, 10.634309399989434, 11.442842399992514, 12.884685199998785]"	24	"[0.5708928999956697, 0.8125641999940854, 1.2711347000004025, 1.9710059999924852, 2.2629580999928294, 2.6043647000042256, 3.0293786999973236, 3.337918399993214, 3.612781300005736, 4.612823699993896, 5.2963677999941865, 5.754747400002088, 6.113232899995637, 6.721459099993808, 7.246494899998652, 7.638063299993519, 7.946392800004105, 8.263280899991514, 8.61311599999317, 8.954792899996391, 9.280013800002052, 10.629900500003714, 11.438431200003834, 12.880210200004512]"	"[0.654075999991619, 0.8707699999940814, 1.3625909999973373, 2.07919010000478, 2.362536100001307, 2.6792301999958, 3.095936800003983, 3.4209297000052175, 3.687738399996306, 4.721006599997054, 5.42115080000076, 5.871094899994205, 6.212936700001592, 6.821163799992064, 7.354608699999517, 7.729556799997226, 8.029606600000989, 8.346274199997424, 8.688086599999224, 9.03798330000427, 9.913026399997761, 10.72142580000218, 11.529816399997799, 12.880214499993599]"	265.2686620000022	265.2742653000023	266.7662042000011	266.77434709999943								29	01	2024-02-19_15h07.02.510	BART_exp	2023.2.3	120.00537623289597	2024-02-19 15h07.20.131109 +0100	
balloon.png	105	0	15	15	24	266.77434709999943													266.7663865000068	266.77434709999943	266.77434709999943	266.77434709999943	266.77434709999943	266.77434709999943	0.005744999987655319	0.005744999987655319	0.005744999987655319	266.77434709999943	277.96835470000224	26	1.30	False	"[0.03796296296296296, 0.03796296296296296, 0.03796296296296296, 0.03796296296296296, 0.03796296296296296, 0.03796296296296296, 0.03796296296296296, 0.03796296296296296, 0.03796296296296296, 0.03796296296296296, 0.03796296296296296, 0.03796296296296296, 0.03796296296296296, 0.03796296296296296, 0.03796296296296296, 0.03796296296296296, 0.03796296296296296, 0.03796296296296296, 0.03796296296296296, 0.03796296296296296, 0.03796296296296296, 0.03796296296296296, 0.03796296296296296, 0.03796296296296296, 0.03796296296296296, 0.03796296296296296, 0.03796296296296296]"	"[-0.3851851851851852, -0.3851851851851852, -0.3851851851851852, -0.3851851851851852, -0.3851851851851852, -0.3851851851851852, -0.3851851851851852, -0.3851851851851852, -0.3851851851851852, -0.3851851851851852, -0.3851851851851852, -0.3851851851851852, -0.3851851851851852, -0.3851851851851852, -0.3851851851851852, -0.3851851851851852, -0.3851851851851852, -0.3851851851851852, -0.3851851851851852, -0.3851851851851852, -0.3851851851851852, -0.3851851851851852, -0.3851851851851852, -0.3851851851851852, -0.3851851851851852, -0.3851851851851852, -0.3851851851851852]"	"[1, 1, 1, 1, 1, 1, 1, 1, 1, 1, 1, 1, 1, 1, 1, 1, 1, 1, 1, 1, 1, 1, 1, 1, 1, 1, 0]"	"[0, 0, 0, 0, 0, 0, 0, 0, 0, 0, 0, 0, 0, 0, 0, 0, 0, 0, 0, 0, 0, 0, 0, 0, 0, 0, 0]"	"[0, 0, 0, 0, 0, 0, 0, 0, 0, 0, 0, 0, 0, 0, 0, 0, 0, 0, 0, 0, 0, 0, 0, 0, 0, 0, 1]"	"[0.5254876999970293, 0.7255229000002146, 0.933840900004725, 1.392079700002796, 1.642061200007447, 1.8503917000052752, 2.0839408000028925, 2.342264399994747, 2.642133900008048, 3.009006100008264, 3.3006487999955425, 3.659131399996113, 3.9505437000043457, 4.300740999999107, 4.725803399996948, 5.2006609000090975, 5.425656100007473, 5.634089300001506, 5.850857400000677, 6.292573500002618, 6.650896399994963, 7.017557200000738, 7.64266260000295, 8.284326900000451, 8.575859200005652, 9.65109769999981, 11.20104590000119]"	27	"[0.5236262999969767, 0.7236622000054922, 0.9319789000001037, 1.3902197999996133, 1.6318840000021737, 1.8485293999983696, 2.082079200001317, 2.340399200009415, 2.640270400006557, 3.007142800008296, 3.2987884000031045, 3.657273000004352, 3.9486846000072546, 4.298878600005992, 4.723944299999857, 5.198795800009975, 5.423793900001328, 5.632232300005853, 5.848994900006801, 6.2907096999988426, 6.649038400006248, 7.015694400004577, 7.640799500004505, 8.282462900009705, 8.574003800007631, 9.64923799999815, 11.199119199998677]"	"[0.6233177999965847, 0.8149835000076564, 1.015003299995442, 1.448358499997994, 1.6900376999983564, 1.9567357000050833, 2.190167599997949, 2.415099999998347, 2.7151411000086227, 3.0734704000060447, 3.398684800005867, 3.756885000009788, 4.031876599998213, 4.3736576000083005, 4.790250200006994, 5.248636500007706, 5.473656200003461, 5.698654000007082, 5.940327200005413, 6.3653920000069775, 6.73205869999947, 7.115407699995558, 7.7404536999965785, 8.390513300008024, 8.632255799995619, 9.807272000005469, 11.199123700003838]"	277.96953070000745	277.97518090000085	279.4670635000075	279.4752077000012								29	01	2024-02-19_15h07.02.510	BART_exp	2023.2.3	120.00537623289597	2024-02-19 15h07.20.131109 +0100	
balloon.png	40	0	16	16	9	279.4752077000012													279.46724650000397	279.4752077000012	279.4752077000012	279.4752077000012	279.4752077000012	279.4752077000012	0.0057366999972146004	0.0057366999972146004	0.0057366999972146004	279.4752077000012	296.11124110000674	28	1.40	False	"[0.03796296296296296, 0.03796296296296296, 0.03796296296296296, 0.03796296296296296, 0.03796296296296296, 0.03796296296296296, 0.03796296296296296, 0.03796296296296296, 0.03796296296296296, 0.03796296296296296, 0.03796296296296296, 0.03796296296296296, 0.03796296296296296, 0.03796296296296296, 0.03796296296296296, 0.03796296296296296, 0.03796296296296296, 0.03796296296296296, 0.03796296296296296, 0.03796296296296296, 0.03796296296296296, 0.03796296296296296, 0.03796296296296296, 0.03796296296296296, 0.03796296296296296, 0.03796296296296296, 0.03796296296296296, 0.03796296296296296, 0.03796296296296296]"	"[-0.3851851851851852, -0.3851851851851852, -0.3851851851851852, -0.3851851851851852, -0.3851851851851852, -0.3851851851851852, -0.3851851851851852, -0.3851851851851852, -0.3851851851851852, -0.3851851851851852, -0.3851851851851852, -0.3851851851851852, -0.3851851851851852, -0.3851851851851852, -0.3851851851851852, -0.3851851851851852, -0.3851851851851852, -0.3851851851851852, -0.3851851851851852, -0.3851851851851852, -0.3851851851851852, -0.3851851851851852, -0.3851851851851852, -0.3851851851851852, -0.3851851851851852, -0.3851851851851852, -0.3851851851851852, -0.3851851851851852, -0.3851851851851852]"	"[1, 1, 1, 1, 1, 1, 1, 1, 1, 1, 1, 1, 1, 1, 1, 1, 1, 1, 1, 1, 1, 1, 1, 1, 1, 1, 1, 1, 0]"	"[0, 0, 0, 0, 0, 0, 0, 0, 0, 0, 0, 0, 0, 0, 0, 0, 0, 0, 0, 0, 0, 0, 0, 0, 0, 0, 0, 0, 0]"	"[0, 0, 0, 0, 0, 0, 0, 0, 0, 0, 0, 0, 0, 0, 0, 0, 0, 0, 0, 0, 0, 0, 0, 0, 0, 0, 0, 0, 1]"	"[0.46708839999337215, 0.6836531000008108, 0.9170131999999285, 1.1170730000012554, 1.4005168000003323, 1.7255353999935323, 2.1755780999956187, 2.4254806999961147, 2.642139599993243, 2.9004707999993116, 3.1172775000013644, 3.5673568999918643, 3.8255715999985114, 4.025564700001269, 4.925726400004351, 5.942492200003471, 6.1592189999937546, 6.359362899995176, 7.375919900005101, 8.709209299995564, 8.967708500000299, 9.250890099996468, 10.667702599996119, 10.892781599992304, 12.367939599993406, 13.026152499995078, 13.842902699994738, 15.934842499991646, 16.64304439999978]"	29	"[0.46522890000778716, 0.6817915000137873, 0.9151456000108737, 1.1152072000113549, 1.398654800010263, 1.7236733000027016, 2.1737133000133326, 2.423622600006638, 2.6402798000053735, 2.898606500006281, 3.1154142000013962, 3.5654945999995107, 3.8237095000076806, 4.023700900012045, 4.923867700010305, 5.940624900002149, 6.157355400006054, 6.357496100012213, 7.374054500003695, 8.707342699999572, 8.96584520000033, 9.249024200005806, 10.66584000000148, 10.890917100012302, 12.366075500001898, 13.024287899999763, 13.841044300002977, 15.932977800010121, 16.64111490000505]"	"[0.5482978000072762, 0.7816345000028377, 0.9732979000109481, 1.1817571000137832, 1.4983621000137646, 1.848369500003173, 2.273416400013957, 2.4901024000137113, 2.748521100002108, 2.9818937000090955, 3.2317903000075603, 3.6735131000023102, 3.898736800008919, 4.106864500005031, 5.040239400012069, 6.057011800003238, 6.248713100008899, 6.448674500003108, 7.482082600006834, 8.815551700012293, 9.082223500008695, 9.365593300011824, 10.748969200009014, 10.965653300008853, 12.440756700001657, 13.14081980001356, 13.907517700004973, 16.00765380001394, 16.641119500010973]"	296.11228700001084	296.1179986000061	297.6099542000011	297.6264319000038								29	01	2024-02-19_15h07.02.510	BART_exp	2023.2.3	120.00537623289597	2024-02-19 15h07.20.131109 +0100	
balloon.png	36	0	17	17	8	297.6264319000038													297.61013000000094	297.6264319000038	297.6264319000038	297.6264319000038	297.6264319000038	297.6264319000038	-0.0009141000045929104	-0.0009141000045929104	-0.0009141000045929104	297.6264319000038	313.26239620000706	31	1.55	False	"[0.03796296296296296, 0.03796296296296296, 0.03796296296296296, 0.03796296296296296, 0.03796296296296296, 0.03796296296296296, 0.03796296296296296, 0.03796296296296296, 0.03796296296296296, 0.03796296296296296, 0.03796296296296296, 0.03796296296296296, 0.03796296296296296, 0.03796296296296296, 0.03796296296296296, 0.03796296296296296, 0.03796296296296296, 0.03796296296296296, 0.03796296296296296, 0.03796296296296296, 0.03796296296296296, 0.03796296296296296, 0.03796296296296296, 0.03796296296296296, 0.03796296296296296, 0.03796296296296296, 0.03796296296296296, 0.03796296296296296, 0.03796296296296296, 0.03796296296296296, 0.03796296296296296, 0.03796296296296296]"	"[-0.38425925925925924, -0.38425925925925924, -0.38425925925925924, -0.38425925925925924, -0.38425925925925924, -0.38425925925925924, -0.38425925925925924, -0.38425925925925924, -0.38425925925925924, -0.38425925925925924, -0.38425925925925924, -0.38425925925925924, -0.38425925925925924, -0.38425925925925924, -0.38425925925925924, -0.38425925925925924, -0.38425925925925924, -0.38425925925925924, -0.38425925925925924, -0.38425925925925924, -0.38425925925925924, -0.38425925925925924, -0.38425925925925924, -0.38425925925925924, -0.38425925925925924, -0.38425925925925924, -0.38425925925925924, -0.38425925925925924, -0.38425925925925924, -0.38425925925925924, -0.38425925925925924, -0.38425925925925924]"	"[1, 1, 1, 1, 1, 1, 1, 1, 1, 1, 1, 1, 1, 1, 1, 1, 1, 1, 1, 1, 1, 1, 1, 1, 1, 1, 1, 1, 1, 1, 1, 0]"	"[0, 0, 0, 0, 0, 0, 0, 0, 0, 0, 0, 0, 0, 0, 0, 0, 0, 0, 0, 0, 0, 0, 0, 0, 0, 0, 0, 0, 0, 0, 0, 0]"	"[0, 0, 0, 0, 0, 0, 0, 0, 0, 0, 0, 0, 0, 0, 0, 0, 0, 0, 0, 0, 0, 0, 0, 0, 0, 0, 0, 0, 0, 0, 0, 1]"	"[0.8670337999938056, 1.0670412000035867, 1.5755632999935187, 2.017278300001635, 2.233984699996654, 2.450558700002148, 2.842324999990524, 3.1005201999942074, 3.3088588999962667, 3.517196699991473, 3.733895500001381, 4.167670199996792, 4.442428700000164, 4.692311399994651, 4.959188699998776, 5.484108199991169, 5.750928399997065, 5.950846799998544, 6.57593989999441, 6.792576599997119, 7.017591700001503, 7.692490300003556, 8.584442999999737, 9.334329899997101, 9.634471899989876, 10.25099620000401, 11.11774489999516, 11.634425500000361, 12.267829699994763, 12.976321399997687, 14.001573899993673, 15.651341599994339]"	32	"[0.8610486999968998, 1.0610554999875603, 1.5695727999991504, 2.011290199996438, 2.227999099995941, 2.4445714999892516, 2.8363340999931097, 3.0945315999997547, 3.302872899992508, 3.51121179999609, 3.7279066999908537, 4.161700899989228, 4.436444199993275, 4.686324099995545, 4.953204499994172, 5.478117099992232, 5.744936699993559, 5.944859799987171, 6.569950699995388, 6.78658839999116, 7.011599599994952, 7.686501099989982, 8.578455899987603, 9.320030599992606, 9.628478599988739, 10.245007399993483, 11.111759699997492, 11.628437399995164, 12.26183889999811, 12.970329699994181, 13.995599099987885, 15.645291499997256]"	"[0.9275672999938251, 1.1692450999980792, 1.6526063999917824, 2.0776377999864053, 2.3110339999984717, 2.5360295999998925, 2.9193559999985155, 3.1694031999941217, 3.377754399989499, 3.586075899991556, 3.7861002999998163, 4.252994599999511, 4.5278029999899445, 4.769522099988535, 5.027820699993754, 5.586205699990387, 5.819636299987906, 6.027894799990463, 6.661279699997976, 6.877962999991723, 7.102983299992047, 7.79468839999754, 8.661441199990804, 9.436566399992444, 9.728150899987668, 10.319852499989793, 11.219929999992019, 11.719988299999386, 12.361734499994782, 13.070116099988809, 14.086788899992825, 15.64529629999015]"	313.26351330000034	313.2692401000095	314.7611254000076	314.7776031000103								29	01	2024-02-19_15h07.02.510	BART_exp	2023.2.3	120.00537623289597	2024-02-19 15h07.20.131109 +0100	
balloon.png	75	0	18	18	17	314.7776031000103													314.76130580001336	314.7776031000103	314.7776031000103	314.7776031000103	314.7776031000103	314.7776031000103	-0.0009898000134853646	-0.0009898000134853646	-0.0009898000134853646	314.7776031000103	334.9973217000079	38	1.90	False	"[0.03796296296296296, 0.03796296296296296, 0.03796296296296296, 0.03796296296296296, 0.03796296296296296, 0.03796296296296296, 0.03796296296296296, 0.03796296296296296, 0.03796296296296296, 0.03796296296296296, 0.03796296296296296, 0.03796296296296296, 0.03796296296296296, 0.03796296296296296, 0.03796296296296296, 0.03796296296296296, 0.03796296296296296, 0.03796296296296296, 0.03796296296296296, 0.03796296296296296, 0.03796296296296296, 0.03796296296296296, 0.03796296296296296, 0.03796296296296296, 0.03796296296296296, 0.03796296296296296, 0.03796296296296296, 0.03796296296296296, 0.03796296296296296, 0.03796296296296296, 0.03796296296296296, 0.03796296296296296, 0.03796296296296296, 0.03796296296296296, 0.03796296296296296, 0.03796296296296296, 0.03796296296296296, 0.03796296296296296, 0.03796296296296296]"	"[-0.38425925925925924, -0.38425925925925924, -0.38425925925925924, -0.38425925925925924, -0.38425925925925924, -0.38425925925925924, -0.38425925925925924, -0.38425925925925924, -0.38425925925925924, -0.38425925925925924, -0.38425925925925924, -0.38425925925925924, -0.38425925925925924, -0.38425925925925924, -0.38425925925925924, -0.38425925925925924, -0.38425925925925924, -0.38425925925925924, -0.38425925925925924, -0.38425925925925924, -0.38425925925925924, -0.38425925925925924, -0.38425925925925924, -0.38425925925925924, -0.38425925925925924, -0.38425925925925924, -0.38425925925925924, -0.38425925925925924, -0.38425925925925924, -0.38425925925925924, -0.38425925925925924, -0.38425925925925924, -0.38425925925925924, -0.38425925925925924, -0.38425925925925924, -0.38425925925925924, -0.38425925925925924, -0.38425925925925924, -0.38425925925925924]"	"[1, 1, 1, 1, 1, 1, 1, 1, 1, 1, 1, 1, 1, 1, 1, 1, 1, 1, 1, 1, 1, 1, 1, 1, 1, 1, 1, 1, 1, 1, 1, 1, 1, 1, 1, 1, 1, 1, 0]"	"[0, 0, 0, 0, 0, 0, 0, 0, 0, 0, 0, 0, 0, 0, 0, 0, 0, 0, 0, 0, 0, 0, 0, 0, 0, 0, 0, 0, 0, 0, 0, 0, 0, 0, 0, 0, 0, 0, 0]"	"[0, 0, 0, 0, 0, 0, 0, 0, 0, 0, 0, 0, 0, 0, 0, 0, 0, 0, 0, 0, 0, 0, 0, 0, 0, 0, 0, 0, 0, 0, 0, 0, 0, 0, 0, 0, 0, 0, 1]"	"[0.7586936000006972, 0.9421561000053771, 1.133716500000446, 1.3254126999963773, 1.5337488000077428, 1.9004197000031127, 2.1254191000043647, 2.342129800003022, 2.5504553000064334, 2.7672781000001123, 3.05901320000703, 3.317181200007326, 3.517222499998752, 3.7255383000010625, 3.9673694999946747, 4.217385199997807, 4.434203700002399, 4.692303300005733, 5.0756231999985175, 5.350636400005897, 5.567505400002119, 6.034199999994598, 6.292414900002768, 6.509090499996091, 6.750755200002459, 7.834328600001754, 8.117562900006305, 9.176081199999317, 9.584447300003376, 10.442860700000892, 11.50107329999446, 13.184657899997546, 14.351403599997866, 15.535582299999078, 17.268258900003275, 17.960015799995745, 18.644681200006744, 19.334929799995734, 20.23511100000178]"	39	"[0.754073200005223, 0.9375371000060113, 1.129090600006748, 1.3207928000047104, 1.5291232000017771, 1.8958000000129687, 2.1207972000120208, 2.3375065000000177, 2.5458276999997906, 2.7626573000015924, 3.0543866000080016, 3.3125552000128664, 3.5126024000055622, 3.7209202000085497, 3.9627493000007235, 4.21276310000394, 4.429581700009294, 4.687677800000529, 5.070996200010995, 5.337991600012174, 5.562887700012652, 6.029575900000054, 6.287793600000441, 6.504480800009333, 6.746136900008423, 7.829707100012456, 8.112939400001778, 9.171461200006888, 9.579827800000203, 10.438249500002712, 11.496449199999915, 13.180033399999957, 14.346779600004083, 15.531121800013352, 17.263641800003825, 17.95539160000044, 18.640315500000725, 19.330309600001783, 20.230422200009343]"	"[0.803979900010745, 0.9872629000019515, 1.1872659000073327, 1.3706590000074357, 1.6122861000039848, 1.9886389000021154, 2.2123271000018576, 2.412353700012318, 2.637363000001642, 2.8457450000132667, 3.1540664000058314, 3.404083500005072, 3.6124408000032417, 3.8542726000014227, 4.087467000004835, 4.295793500001309, 4.520809600013308, 4.7972502000047825, 5.179286800004775, 5.422283600011724, 5.66270670000813, 6.137630500001251, 6.379276800013031, 6.612637700003688, 6.870985300003667, 7.937843600011547, 8.179482000006828, 9.338014100008877, 9.687853800001903, 10.546230300009483, 11.612984300008975, 13.279738900004304, 14.463268700012122, 15.638274299999466, 17.33015370000794, 18.080282300012186, 18.69684070000949, 19.438494300004095, 20.230426699999953]"	334.99865160000627	335.0039630000101	336.49594290000095	336.5124005000107								29	01	2024-02-19_15h07.02.510	BART_exp	2023.2.3	120.00537623289597	2024-02-19 15h07.20.131109 +0100	
balloon.png	57	0	19	19	13	336.5124005000107													336.49612640000123	336.5124005000107	336.5124005000107	336.5124005000107	336.5124005000107	336.5124005000107	0.013810600008582696	0.013810600008582696	0.013810600008582696	336.5124005000107	355.898843700008	44	2.20	False	"[0.03796296296296296, 0.03796296296296296, 0.03796296296296296, 0.03796296296296296, 0.03796296296296296, 0.03796296296296296, 0.03796296296296296, 0.03796296296296296, 0.03796296296296296, 0.03796296296296296, 0.03796296296296296, 0.03796296296296296, 0.03796296296296296, 0.03796296296296296, 0.03796296296296296, 0.03796296296296296, 0.03796296296296296, 0.03796296296296296, 0.03796296296296296, 0.03796296296296296, 0.03796296296296296, 0.03796296296296296, 0.03796296296296296, 0.03796296296296296, 0.03796296296296296, 0.03796296296296296, 0.03796296296296296, 0.03796296296296296, 0.03796296296296296, 0.03796296296296296, 0.03796296296296296, 0.03796296296296296, 0.03796296296296296, 0.03796296296296296, 0.03796296296296296, 0.03796296296296296, 0.03796296296296296, 0.03796296296296296, 0.03796296296296296, 0.03796296296296296, 0.03796296296296296, 0.03796296296296296, 0.03796296296296296, 0.03796296296296296, 0.03796296296296296]"	"[-0.38425925925925924, -0.38425925925925924, -0.38425925925925924, -0.38425925925925924, -0.38425925925925924, -0.38425925925925924, -0.38425925925925924, -0.38425925925925924, -0.38425925925925924, -0.38425925925925924, -0.38425925925925924, -0.38425925925925924, -0.38425925925925924, -0.38425925925925924, -0.38425925925925924, -0.38425925925925924, -0.38425925925925924, -0.38425925925925924, -0.38425925925925924, -0.38425925925925924, -0.38425925925925924, -0.38425925925925924, -0.38425925925925924, -0.38425925925925924, -0.38425925925925924, -0.38425925925925924, -0.38425925925925924, -0.38425925925925924, -0.38425925925925924, -0.38425925925925924, -0.38425925925925924, -0.38425925925925924, -0.38425925925925924, -0.38425925925925924, -0.38425925925925924, -0.38425925925925924, -0.38425925925925924, -0.38425925925925924, -0.38425925925925924, -0.38425925925925924, -0.38425925925925924, -0.38425925925925924, -0.38425925925925924, -0.38425925925925924, -0.38425925925925924]"	"[1, 1, 1, 1, 1, 1, 1, 1, 1, 1, 1, 1, 1, 1, 1, 1, 1, 1, 1, 1, 1, 1, 1, 1, 1, 1, 1, 1, 1, 1, 1, 1, 1, 1, 1, 1, 1, 1, 1, 1, 1, 1, 1, 1, 0]"	"[0, 0, 0, 0, 0, 0, 0, 0, 0, 0, 0, 0, 0, 0, 0, 0, 0, 0, 0, 0, 0, 0, 0, 0, 0, 0, 0, 0, 0, 0, 0, 0, 0, 0, 0, 0, 0, 0, 0, 0, 0, 0, 0, 0, 0]"	"[0, 0, 0, 0, 0, 0, 0, 0, 0, 0, 0, 0, 0, 0, 0, 0, 0, 0, 0, 0, 0, 0, 0, 0, 0, 0, 0, 0, 0, 0, 0, 0, 0, 0, 0, 0, 0, 0, 0, 0, 0, 0, 0, 0, 1]"	"[1.2505415000050562, 2.3670788000017637, 2.750496299995575, 3.1004830000019865, 3.3924574999982724, 3.650673199997982, 3.8922161999944365, 4.158941500005312, 4.667526399993221, 4.91740399999253, 5.117282000006526, 5.375738300004741, 5.60078120000253, 5.875857099992572, 6.092347400001017, 6.334132499992847, 6.567472399998223, 7.017652700000326, 7.250920399994357, 7.484328000005917, 7.867799800005741, 8.109139799998957, 8.309210599996732, 8.500890399998752, 8.717532499998924, 8.93421269999817, 9.125887899994268, 9.58437500000582, 9.809436700001243, 10.042764800004079, 10.376017200003844, 11.042931599993608, 11.292710900001111, 11.559369399998104, 12.017896399993333, 12.542795000001206, 13.317859300004784, 13.592981299996609, 13.851493699999992, 14.559614600002533, 15.259786800001166, 15.52632309999899, 15.793151299993042, 16.634873200004222, 19.401782999993884]"	45	"[1.247093500001938, 2.3636375999922166, 2.7470575000043027, 3.0970358999911696, 3.3890185999916866, 3.647224799991818, 3.8887708999973256, 4.155496699997457, 4.6640872999996645, 4.9139684999972815, 5.113833099996555, 5.372286900004838, 5.597335899990867, 5.872409899995546, 6.088899800000945, 6.330682400002843, 6.564021199999843, 7.014327700002468, 7.2474746999942, 7.480879900002037, 7.864353700002539, 8.105690800002776, 8.30577120000089, 8.497440399994957, 8.71408109999902, 8.93076459999429, 9.122442299994873, 9.580929399991874, 9.805989999993471, 10.039316900001722, 10.37257179999142, 11.039486699999543, 11.289261600002646, 11.555920700004208, 12.014448999994784, 12.53934429999208, 13.314412799998536, 13.589528399999836, 13.848074099994847, 14.556170500000007, 15.256342399996356, 15.522874799993588, 15.789697600004729, 16.63142190000508, 19.39827079999668]"	"[1.3467586000042502, 2.45515379999415, 2.8303872999968007, 3.205218799994327, 3.455244099997799, 3.7135706999979448, 3.9969519000005675, 4.22194469999522, 4.763749000005191, 4.980428099996061, 5.197266899995157, 5.45536870000069, 5.697092499991413, 5.9387319999950705, 6.180491799997981, 6.39718859999266, 6.6387701999919955, 7.097197099996265, 7.322159299990744, 7.555511800004751, 7.955537599991658, 8.172359399992274, 8.380581299992627, 8.580627200004528, 8.797273399992264, 9.00561330000346, 9.214020899991738, 9.680641800005105, 9.89735319999454, 10.130697200002032, 10.481096100003924, 11.155804599999101, 11.397439499996835, 11.664122100002714, 12.114169599997695, 12.622517800002242, 13.422578199999407, 13.697677100004512, 13.955922599998303, 14.664334999994026, 15.356046500004595, 15.631107399996836, 15.89774829999078, 16.731176100001903, 19.398275500003365]"	355.90029140000115	355.90542280000227	357.3973699000053	357.4054821000027								29	01	2024-02-19_15h07.02.510	BART_exp	2023.2.3	120.00537623289597	2024-02-19 15h07.20.131109 +0100	
balloon.png	10	0	20	20	2	357.4054821000027													357.39754950000497	357.4054821000027	357.4054821000027	357.4054821000027	357.4054821000027	357.4054821000027	0.005250499991234392	0.005250499991234392	0.005250499991234392	357.4054821000027	361.54957330001344	11	0.50	True	"[0.03796296296296296, 0.03796296296296296, 0.03796296296296296, 0.03796296296296296, 0.03796296296296296, 0.03796296296296296, 0.03796296296296296, 0.03796296296296296, 0.03796296296296296, 0.03796296296296296, 0.03796296296296296]"	"[-0.38425925925925924, -0.38425925925925924, -0.38425925925925924, -0.38425925925925924, -0.38425925925925924, -0.38425925925925924, -0.38425925925925924, -0.38425925925925924, -0.38425925925925924, -0.38425925925925924, -0.38425925925925924]"	"[1, 1, 1, 1, 1, 1, 1, 1, 1, 1, 1]"	"[0, 0, 0, 0, 0, 0, 0, 0, 0, 0, 0]"	"[0, 0, 0, 0, 0, 0, 0, 0, 0, 0, 0]"	"[1.0838579000119353, 1.3172530000010738, 1.5173758000019006, 1.7338550999993458, 2.008723300008569, 2.3671246000012616, 2.6672275000019, 2.9590451000112807, 3.3506265000032727, 3.8507746000104817, 4.075719200001913]"	11	"[1.082002899987856, 1.3153897999873152, 1.515512599988142, 1.7319945999915944, 2.006865099989227, 2.365260099992156, 2.6653634999966016, 2.9571870999934617, 3.3487648999871453, 3.8489154999988386, 4.073858799994923]"	"[1.1983012999990024, 1.3899806999979774, 1.5983404999860795, 1.823372599988943, 2.081698399997549, 2.431814799987478, 2.7484627999947406, 3.049963099998422, 3.456786899987492, 3.931838799995603, 4.140181099995971]"	361.5504449	361.5557986000058	363.0477210000099	363.0558671000035								29	01	2024-02-19_15h07.02.510	BART_exp	2023.2.3	120.00537623289597	2024-02-19 15h07.20.131109 +0100	
balloon.png	1	0	21	21	0	363.0558671000035													363.0479017000034	363.0558671000035	363.0558671000035	363.0558671000035	363.0558671000035	363.0558671000035	0.00547970000479836			363.0558671000035	364.69131870000274	2	0.05	True	"[0.03611111111111111, 0.03611111111111111]"	"[-0.37592592592592594, -0.37592592592592594]"	"[1, 1]"	"[0, 0]"	"[0, 0]"	"[1.0755331999971531, 1.5337334999931045]"	2	"[1.0736490999988746, 1.5318474999949103]"	"[1.181674599996768, 1.6317293000029167]"	364.6919176000083	364.6976441000006	366.1896112000104	366.20607759999984								29	01	2024-02-19_15h07.02.510	BART_exp	2023.2.3	120.00537623289597	2024-02-19 15h07.20.131109 +0100	
balloon.png	79	0	22	22	18	366.20607759999984													366.1897839000012	366.20607759999984	366.20607759999984	366.20607759999984	366.20607759999984	366.20607759999984	-0.0008505000005243346	-0.0008505000005243346	-0.0008505000005243346	366.20607759999984	391.42620840000745	38	1.90	False	"[0.03611111111111111, 0.03611111111111111, 0.03611111111111111, 0.03611111111111111, 0.03611111111111111, 0.03611111111111111, 0.03611111111111111, 0.03611111111111111, 0.03611111111111111, 0.03611111111111111, 0.03611111111111111, 0.03611111111111111, 0.03611111111111111, 0.03611111111111111, 0.03611111111111111, 0.03611111111111111, 0.03611111111111111, 0.03611111111111111, 0.03611111111111111, 0.03611111111111111, 0.03611111111111111, 0.03611111111111111, 0.03611111111111111, 0.03611111111111111, 0.03611111111111111, 0.03611111111111111, 0.03611111111111111, 0.03611111111111111, 0.03611111111111111, 0.03611111111111111, 0.03611111111111111, 0.03611111111111111, 0.03611111111111111, 0.03611111111111111, 0.03611111111111111, 0.03611111111111111, 0.03611111111111111, 0.03611111111111111, 0.03611111111111111]"	"[-0.37592592592592594, -0.37592592592592594, -0.37592592592592594, -0.37592592592592594, -0.37592592592592594, -0.37592592592592594, -0.37592592592592594, -0.37592592592592594, -0.37592592592592594, -0.37592592592592594, -0.37592592592592594, -0.37592592592592594, -0.37592592592592594, -0.37592592592592594, -0.37592592592592594, -0.37592592592592594, -0.37592592592592594, -0.37592592592592594, -0.37592592592592594, -0.37592592592592594, -0.37592592592592594, -0.37592592592592594, -0.37592592592592594, -0.37592592592592594, -0.37592592592592594, -0.37592592592592594, -0.37592592592592594, -0.37592592592592594, -0.37592592592592594, -0.37592592592592594, -0.37592592592592594, -0.37592592592592594, -0.37592592592592594, -0.37592592592592594, -0.37592592592592594, -0.37592592592592594, -0.37592592592592594, -0.37592592592592594, -0.37592592592592594]"	"[1, 1, 1, 1, 1, 1, 1, 1, 1, 1, 1, 1, 1, 1, 1, 1, 1, 1, 1, 1, 1, 1, 1, 1, 1, 1, 1, 1, 1, 1, 1, 1, 1, 1, 1, 1, 1, 1, 0]"	"[0, 0, 0, 0, 0, 0, 0, 0, 0, 0, 0, 0, 0, 0, 0, 0, 0, 0, 0, 0, 0, 0, 0, 0, 0, 0, 0, 0, 0, 0, 0, 0, 0, 0, 0, 0, 0, 0, 0]"	"[0, 0, 0, 0, 0, 0, 0, 0, 0, 0, 0, 0, 0, 0, 0, 0, 0, 0, 0, 0, 0, 0, 0, 0, 0, 0, 0, 0, 0, 0, 0, 0, 0, 0, 0, 0, 0, 0, 1]"	"[1.2588230999972438, 2.917340100000729, 3.667364599998109, 4.633940700005041, 5.459138200007146, 6.467600600008154, 6.884254500007955, 7.175798600001144, 7.717704299997422, 8.342686100004357, 8.859432600002037, 9.234394600003725, 9.64275970000017, 10.292904500005534, 10.934534400003031, 11.776137299995753, 12.042898600004264, 12.317967800001497, 13.67638380000426, 13.967898600007175, 15.251573800007463, 15.493212100001983, 15.709847799997078, 15.968040100007784, 16.559757099996204, 16.79309469999862, 17.001476999997976, 17.268280500007677, 17.759856699994998, 18.126716200000374, 19.426727199999732, 20.168314700000337, 20.418463499998325, 20.91852680000011, 21.376774699994712, 22.40181900000607, 24.002078100005747, 24.576949199996307, 25.235504399999627]"	39	"[1.2524115999985952, 2.910924800002249, 3.6609496000019135, 4.627530400000978, 5.452724100003252, 6.461191199996392, 6.877836999992724, 7.169381899992004, 7.711298399997759, 8.336267799997586, 8.853015200002119, 9.227981399992132, 9.636347999999998, 10.286498999994365, 10.928126200000406, 11.769726300000912, 12.036480299997493, 12.311549499994726, 13.669968799993512, 13.961480199999642, 15.245171399990795, 15.486793999996735, 15.703430599998683, 15.96162089999416, 16.553337899997132, 16.786679800003185, 16.995058599990443, 17.261864500003867, 17.75343939999584, 18.120303999996395, 19.42031469999347, 20.16189580000355, 20.412046600002213, 20.91211540000222, 21.37036369999987, 22.395408700002008, 23.995663399997284, 24.570535899998504, 25.229028899993864]"	"[1.318893499992555, 2.960656299997936, 3.8023377999925287, 4.702395799991791, 5.560779599996749, 6.58584859999246, 6.994245800000499, 7.244214199992712, 7.810917099996004, 8.46096349999425, 8.994339999990189, 9.327678599991486, 9.744427800003905, 10.411105899998802, 11.027805799996713, 11.894659099998535, 12.136210500000743, 12.44457720000355, 13.786339600002975, 14.044690499998978, 15.33654459999525, 15.545028099993942, 15.77815919999557, 16.019826599993394, 16.636552199997823, 16.86986849999812, 17.08654099999694, 17.353280199997243, 17.836597799992887, 18.203287500000442, 19.53678629999922, 20.253437399995164, 20.478439700003946, 21.045151199999964, 21.503507699992042, 22.520242600003257, 24.07034299999941, 24.67875880000065, 25.229033399999025]"	391.42744060000405	391.4327889000124	392.9247477000026	392.93289220001316								29	01	2024-02-19_15h07.02.510	BART_exp	2023.2.3	120.00537623289597	2024-02-19 15h07.20.131109 +0100	
balloon.png	49	0	23	23	11	392.93289220001316													392.9249189000111	392.93289220001316	392.93289220001316	392.93289220001316	392.93289220001316	392.93289220001316	0.005513399999472313	0.005513399999472313	0.005513399999472313	392.93289220001316	412.6192585000099	40	2.00	False	"[0.03981481481481482, 0.03981481481481482, 0.03981481481481482, 0.03981481481481482, 0.03981481481481482, 0.03981481481481482, 0.03981481481481482, 0.03981481481481482, 0.03981481481481482, 0.03981481481481482, 0.03981481481481482, 0.03981481481481482, 0.03981481481481482, 0.03981481481481482, 0.03981481481481482, 0.03981481481481482, 0.03981481481481482, 0.03981481481481482, 0.03981481481481482, 0.03981481481481482, 0.03981481481481482, 0.03981481481481482, 0.03981481481481482, 0.03981481481481482, 0.03981481481481482, 0.03981481481481482, 0.03981481481481482, 0.03981481481481482, 0.03981481481481482, 0.03981481481481482, 0.03981481481481482, 0.03981481481481482, 0.03981481481481482, 0.03981481481481482, 0.03981481481481482, 0.03981481481481482, 0.03981481481481482, 0.03981481481481482, 0.03981481481481482, 0.03981481481481482, 0.03981481481481482]"	"[-0.3731481481481482, -0.3731481481481482, -0.3731481481481482, -0.3731481481481482, -0.3731481481481482, -0.3731481481481482, -0.3731481481481482, -0.3731481481481482, -0.3731481481481482, -0.3731481481481482, -0.3731481481481482, -0.3731481481481482, -0.3731481481481482, -0.3731481481481482, -0.3731481481481482, -0.3731481481481482, -0.3731481481481482, -0.3731481481481482, -0.3731481481481482, -0.3731481481481482, -0.3731481481481482, -0.3731481481481482, -0.3731481481481482, -0.3731481481481482, -0.3731481481481482, -0.3731481481481482, -0.3731481481481482, -0.3731481481481482, -0.3731481481481482, -0.3731481481481482, -0.3731481481481482, -0.3731481481481482, -0.3731481481481482, -0.3731481481481482, -0.3731481481481482, -0.3731481481481482, -0.3731481481481482, -0.3731481481481482, -0.3731481481481482, -0.3731481481481482, -0.3731481481481482]"	"[1, 1, 1, 1, 1, 1, 1, 1, 1, 1, 1, 1, 1, 1, 1, 1, 1, 1, 1, 1, 1, 1, 1, 1, 1, 1, 1, 1, 1, 1, 1, 1, 1, 1, 1, 1, 1, 1, 1, 1, 0]"	"[0, 0, 0, 0, 0, 0, 0, 0, 0, 0, 0, 0, 0, 0, 0, 0, 0, 0, 0, 0, 0, 0, 0, 0, 0, 0, 0, 0, 0, 0, 0, 0, 0, 0, 0, 0, 0, 0, 0, 0, 0]"	"[0, 0, 0, 0, 0, 0, 0, 0, 0, 0, 0, 0, 0, 0, 0, 0, 0, 0, 0, 0, 0, 0, 0, 0, 0, 0, 0, 0, 0, 0, 0, 0, 0, 0, 0, 0, 0, 0, 0, 0, 1]"	"[2.0004684000014095, 2.208890000008978, 2.458877199998824, 2.9006369999988237, 3.1256722999969497, 3.3508277000073576, 3.600564899999881, 4.0089161000069, 4.300766600004863, 4.6257733999955235, 4.934153900001547, 5.317483899998479, 5.559226800003671, 6.150882200003252, 6.44240090000676, 6.909266200003913, 7.575998200001777, 8.27601030000369, 8.559376500008511, 8.76758100000734, 9.059485899997526, 9.384279899997637, 9.842652599996654, 10.367848000008962, 10.592958499997621, 10.792704699997557, 11.034389200009173, 11.267910499998834, 11.784592399999383, 12.042805000004591, 12.45113180000044, 13.051179700007197, 13.451388400004362, 14.109791199996835, 14.434728100008215, 15.276482500004931, 16.084914799997932, 16.443342800004757, 17.27667810001003, 17.87665730000299, 19.69342979999783]"	41	"[1.9986166000016965, 2.207041899993783, 2.457019900000887, 2.898782799995388, 3.123816799998167, 3.3489763999969, 3.5987116000032984, 4.007058999995934, 4.298908400000073, 4.623914199997671, 4.932297599996673, 5.315627599993604, 5.55737290000252, 6.149026500002947, 6.440542900003493, 6.907411899999715, 7.574144999991404, 8.27415050000127, 8.557514000000083, 8.765726099998574, 9.05763979999756, 9.382420199995977, 9.840795299998717, 10.365987700002734, 10.591101500001969, 10.790846299991244, 11.0325293999922, 11.266055400003097, 11.78273399999307, 12.040945799992187, 12.441049499990186, 13.049322299993946, 13.449529799996526, 14.10793189999822, 14.432869900003425, 15.274626999991597, 16.083056199990097, 16.441483699993114, 17.274821700004395, 17.874798000004375, 19.69151069999498]"	"[2.0400889000011375, 2.290106799991918, 2.5318009999900823, 2.9820351999951527, 3.2318482999980915, 3.431870699991123, 3.665240000002086, 4.0653294999938225, 4.356924199993955, 4.715289600004326, 5.0069753999996465, 5.375025699991966, 5.648752699999022, 6.232083700000658, 6.5070716999907745, 6.973755099999835, 7.673829199993634, 8.407194500003243, 8.632238499994855, 8.848967800004175, 9.165591299999505, 9.490639499999816, 9.924014399992302, 10.457350299999234, 10.65737220000301, 10.874067700002342, 11.115709899997455, 11.374058999994304, 11.890949199994793, 12.115794099998311, 12.557480100003886, 13.182690699992236, 13.540905899993959, 14.224260699993465, 14.541121000002022, 15.432692200003657, 16.216074399999343, 16.54112229999737, 17.42460859999119, 17.957840499992017, 19.6915153000009]"	412.62071030000516	412.6258896000072	414.11785310000414	414.1259936999995								29	01	2024-02-19_15h07.02.510	BART_exp	2023.2.3	120.00537623289597	2024-02-19 15h07.20.131109 +0100	
balloon.png	27	0	24	24	6	414.1259936999995													414.1180314000085	414.1259936999995	414.1259936999995	414.1259936999995	414.1259936999995	414.1259936999995	0.005342600008589216	0.005342600008589216	0.005342600008589216	414.1259936999995	423.1619389000116	28	1.35	True	"[0.03981481481481482, 0.03981481481481482, 0.03981481481481482, 0.03981481481481482, 0.03981481481481482, 0.03981481481481482, 0.03981481481481482, 0.03981481481481482, 0.03981481481481482, 0.03981481481481482, 0.03981481481481482, 0.03981481481481482, 0.03981481481481482, 0.03981481481481482, 0.03981481481481482, 0.03981481481481482, 0.03981481481481482, 0.03981481481481482, 0.03981481481481482, 0.03981481481481482, 0.03981481481481482, 0.03981481481481482, 0.03981481481481482, 0.03981481481481482, 0.03981481481481482, 0.03981481481481482, 0.03981481481481482, 0.03981481481481482]"	"[-0.3731481481481482, -0.3731481481481482, -0.3731481481481482, -0.3731481481481482, -0.3731481481481482, -0.3731481481481482, -0.3731481481481482, -0.3731481481481482, -0.3731481481481482, -0.3731481481481482, -0.3731481481481482, -0.3731481481481482, -0.3731481481481482, -0.3731481481481482, -0.3731481481481482, -0.3731481481481482, -0.3731481481481482, -0.3731481481481482, -0.3731481481481482, -0.3731481481481482, -0.3731481481481482, -0.3731481481481482, -0.3731481481481482, -0.3731481481481482, -0.3731481481481482, -0.3731481481481482, -0.3731481481481482, -0.3731481481481482]"	"[1, 1, 1, 1, 1, 1, 1, 1, 1, 1, 1, 1, 1, 1, 1, 1, 1, 1, 1, 1, 1, 1, 1, 1, 1, 1, 1, 1]"	"[0, 0, 0, 0, 0, 0, 0, 0, 0, 0, 0, 0, 0, 0, 0, 0, 0, 0, 0, 0, 0, 0, 0, 0, 0, 0, 0, 0]"	"[0, 0, 0, 0, 0, 0, 0, 0, 0, 0, 0, 0, 0, 0, 0, 0, 0, 0, 0, 0, 0, 0, 0, 0, 0, 0, 0, 0]"	"[0.675484299994423, 0.8755526000022655, 1.0838343999930657, 1.9920907999912743, 2.333938700001454, 2.7006124000035925, 2.9339712999935728, 3.2338206999993417, 3.525693699994008, 3.783867399994051, 4.02587460000359, 4.325743900000816, 4.6172653999965405, 4.925795799994376, 5.242342700003064, 5.567333400002099, 5.800673399993684, 6.059204699995462, 6.367419100002735, 6.634353000001283, 6.950758599996334, 7.234237800003029, 7.475945600002888, 7.7176155999914045, 7.967492900002981, 8.20931869999913, 8.451143899990711, 8.926065599996946]"	28	"[0.6736240000027465, 0.8736978999950225, 1.081973599997582, 1.9902294000057736, 2.332083400004194, 2.698755399993388, 2.932109600005788, 3.2319614000007277, 3.52383550000377, 3.7820130000036443, 4.024025199993048, 4.3238882000005106, 4.615407399993273, 4.923943500005407, 5.240484599999036, 5.565479299999424, 5.7988099999929545, 6.0573482000036165, 6.365560399994138, 6.6324902000051225, 6.9489024999929825, 7.232374999992317, 7.474088999995729, 7.715759300001082, 7.965630799997598, 8.20746180000424, 8.449292499994044, 8.924213299993426]"	"[0.748315899996669, 0.9483332999952836, 1.1900459000025876, 2.115137799992226, 2.415166099992348, 2.798473999995622, 3.0401284999970812, 3.340157900005579, 3.640204299998004, 3.8819778000033693, 4.140211999998428, 4.423566800003755, 4.741636499995366, 5.015289400005713, 5.340337600006023, 5.640368899999885, 5.8987328999937745, 6.190389399998821, 6.423734500000137, 6.748780599999009, 7.048776399999042, 7.348803000000771, 7.5821052999963285, 7.815459899997222, 8.073816000003717, 8.299276199992164, 8.540522299997974, 9.032196300002397]"	423.1631164000137	423.16826990000845	424.660254500006	424.6684019000095								29	01	2024-02-19_15h07.02.510	BART_exp	2023.2.3	120.00537623289597	2024-02-19 15h07.20.131109 +0100	
balloon.png	53	0	25	25	12	424.6684019000095													424.6604376000032	424.6684019000095	424.6684019000095	424.6684019000095	424.6684019000095	424.6684019000095	0.00534420000622049			424.6684019000095	445.80485930001305	42	2.10	False	"[0.03796296296296296, 0.03796296296296296, 0.03796296296296296, 0.03796296296296296, 0.03796296296296296, 0.03796296296296296, 0.03796296296296296, 0.03796296296296296, 0.03796296296296296, 0.03796296296296296, 0.03796296296296296, 0.03796296296296296, 0.03796296296296296, 0.03796296296296296, 0.03796296296296296, 0.03796296296296296, 0.03796296296296296, 0.03796296296296296, 0.03796296296296296, 0.03796296296296296, 0.03796296296296296, 0.03796296296296296, 0.03796296296296296, 0.03796296296296296, 0.03796296296296296, 0.03796296296296296, 0.03796296296296296, 0.03796296296296296, 0.03796296296296296, 0.03796296296296296, 0.03796296296296296, 0.03796296296296296, 0.03796296296296296, 0.03796296296296296, 0.03796296296296296, 0.03796296296296296, 0.03796296296296296, 0.03796296296296296, 0.03796296296296296, 0.03796296296296296, 0.03796296296296296, 0.03796296296296296, 0.03796296296296296]"	"[-0.3731481481481482, -0.3731481481481482, -0.3731481481481482, -0.3731481481481482, -0.3731481481481482, -0.3731481481481482, -0.3731481481481482, -0.3731481481481482, -0.3731481481481482, -0.3731481481481482, -0.3731481481481482, -0.3731481481481482, -0.3731481481481482, -0.3731481481481482, -0.3731481481481482, -0.3731481481481482, -0.3731481481481482, -0.3731481481481482, -0.3731481481481482, -0.3731481481481482, -0.3731481481481482, -0.3731481481481482, -0.3731481481481482, -0.3731481481481482, -0.3731481481481482, -0.3731481481481482, -0.3731481481481482, -0.3731481481481482, -0.3731481481481482, -0.3731481481481482, -0.3731481481481482, -0.3731481481481482, -0.3731481481481482, -0.3731481481481482, -0.3731481481481482, -0.3731481481481482, -0.3731481481481482, -0.3731481481481482, -0.3731481481481482, -0.3731481481481482, -0.3731481481481482, -0.3731481481481482, -0.3731481481481482]"	"[1, 1, 1, 1, 1, 1, 1, 1, 1, 1, 1, 1, 1, 1, 1, 1, 1, 1, 1, 1, 1, 1, 1, 1, 1, 1, 1, 1, 1, 1, 1, 1, 1, 1, 1, 1, 1, 1, 1, 1, 1, 1, 0]"	"[0, 0, 0, 0, 0, 0, 0, 0, 0, 0, 0, 0, 0, 0, 0, 0, 0, 0, 0, 0, 0, 0, 0, 0, 0, 0, 0, 0, 0, 0, 0, 0, 0, 0, 0, 0, 0, 0, 0, 0, 0, 0, 0]"	"[0, 0, 0, 0, 0, 0, 0, 0, 0, 0, 0, 0, 0, 0, 0, 0, 0, 0, 0, 0, 0, 0, 0, 0, 0, 0, 0, 0, 0, 0, 0, 0, 0, 0, 0, 0, 0, 0, 0, 0, 0, 0, 1]"	"[0.6754547000018647, 0.9505436000035843, 1.2087069999979576, 1.4336983999965014, 1.7255650000006426, 2.1005915999994613, 2.5006637000042247, 2.8923874000029173, 3.183837999997195, 3.5756722999940393, 4.267221100002644, 4.800623699993594, 5.275745899998583, 5.592508500005351, 5.859150999996928, 6.100834099997883, 6.375904900007299, 6.617490999997244, 6.934233599997242, 7.3925945999944815, 8.084377699997276, 8.800862899995991, 9.076026800001273, 9.376064800002496, 9.859458199993242, 10.102740000002086, 10.351007699995534, 10.767871899995953, 11.076167100007297, 11.709635299994261, 13.118010100006359, 13.684699100005673, 14.109808900000644, 14.568149300001096, 15.192978699997184, 15.651320799996029, 16.159865499997977, 17.01963710000564, 17.50163509999402, 17.95999679999659, 19.9267908000038, 20.326847400006955, 21.143521499994677]"	43	"[0.6735434000001987, 0.94862650000141, 1.2067909999896074, 1.4317822000011802, 1.7236639999900945, 2.0986808000016026, 2.498751999999513, 2.8904761000012513, 3.181924999997136, 3.573758500002441, 4.265301799998269, 4.798709199996665, 5.273836399996071, 5.590593799992348, 5.85723369999323, 6.098916899994947, 6.37398979999125, 6.615581699996255, 6.9323159999912605, 7.390690899992478, 8.082462099991972, 8.798954500001855, 9.074112399990554, 9.374151600000914, 9.857546100000036, 10.100832600001013, 10.349098999999114, 10.765952100002323, 11.074250199992093, 11.707724499996402, 13.116099799997755, 13.68279099999927, 14.107892799991532, 14.566237699997146, 15.191067099993234, 15.649406899989117, 16.15794959999039, 17.017896399993333, 17.49972429999616, 17.958081999997376, 19.924873399999342, 20.32493639999302, 21.141543599995202]"	"[0.7732632999977795, 1.0649528999929316, 1.3066728999983752, 1.5399782000022242, 1.8316592999908607, 2.206702099996619, 2.6067241999990074, 3.0067567999940366, 3.3150813999964157, 3.681799400001182, 4.415186799989897, 4.9318831999989925, 5.390253399993526, 5.715266100000008, 5.957041799993021, 6.215301599993836, 6.456990599996061, 6.715381799993338, 7.0570670000015525, 7.498748199999682, 8.198802699989756, 8.94881259999238, 9.190508300001966, 9.490510699994047, 9.96575329999905, 10.215558999989298, 10.457254299995839, 10.890621999991708, 11.207294899999397, 11.815933299993048, 13.232451299991226, 13.765830199990887, 14.24091939999198, 14.649250899994513, 15.28268649999518, 15.757605499995407, 16.274309599990374, 17.14105130000098, 17.607739300001413, 18.041331000000355, 20.00806749999174, 20.399612499997602, 21.141548200001125]"	445.8061588000128	445.8114729000081	447.30344380000315	447.3115742000082								29	01	2024-02-19_15h07.02.510	BART_exp	2023.2.3	120.00537623289597	2024-02-19 15h07.20.131109 +0100	
balloon.png	123	0	26	26	28	447.3115742000082													447.30361750000156	447.3115742000082	447.3115742000082	447.3115742000082	447.3115742000082	447.3115742000082	0.005474499994306825	0.005474499994306825	0.005474499994306825	447.3115742000082	474.32353370000783	50	2.50	False	"[0.037037037037037035, 0.037037037037037035, 0.037037037037037035, 0.037037037037037035, 0.037037037037037035, 0.037037037037037035, 0.037037037037037035, 0.037037037037037035, 0.037037037037037035, 0.03611111111111111, 0.03518518518518519, 0.03518518518518519, 0.03518518518518519, 0.03518518518518519, 0.03518518518518519, 0.03518518518518519, 0.03518518518518519, 0.03518518518518519, 0.03518518518518519, 0.03518518518518519, 0.03518518518518519, 0.03518518518518519, 0.03518518518518519, 0.03518518518518519, 0.03518518518518519, 0.03518518518518519, 0.03518518518518519, 0.03518518518518519, 0.03518518518518519, 0.03518518518518519, 0.03518518518518519, 0.03518518518518519, 0.03518518518518519, 0.03518518518518519, 0.03518518518518519, 0.03518518518518519, 0.03518518518518519, 0.03518518518518519, 0.03518518518518519, 0.03518518518518519, 0.03518518518518519, 0.03518518518518519, 0.03518518518518519, 0.03518518518518519, 0.03518518518518519, 0.03518518518518519, 0.03518518518518519, 0.03518518518518519, 0.03518518518518519, 0.03518518518518519, 0.03518518518518519]"	"[-0.3712962962962963, -0.3712962962962963, -0.3712962962962963, -0.3712962962962963, -0.3712962962962963, -0.3712962962962963, -0.3712962962962963, -0.3712962962962963, -0.3712962962962963, -0.37407407407407406, -0.37592592592592594, -0.37592592592592594, -0.37592592592592594, -0.37592592592592594, -0.37592592592592594, -0.37592592592592594, -0.37592592592592594, -0.37592592592592594, -0.37592592592592594, -0.37592592592592594, -0.37592592592592594, -0.37592592592592594, -0.37592592592592594, -0.37592592592592594, -0.37592592592592594, -0.37592592592592594, -0.37592592592592594, -0.37592592592592594, -0.37592592592592594, -0.37592592592592594, -0.37592592592592594, -0.37592592592592594, -0.37592592592592594, -0.37592592592592594, -0.37592592592592594, -0.37592592592592594, -0.37592592592592594, -0.37592592592592594, -0.37592592592592594, -0.37592592592592594, -0.37592592592592594, -0.37592592592592594, -0.37592592592592594, -0.37592592592592594, -0.37592592592592594, -0.37592592592592594, -0.37592592592592594, -0.37592592592592594, -0.37592592592592594, -0.37592592592592594, -0.37592592592592594]"	"[1, 1, 1, 1, 1, 1, 1, 1, 1, 1, 1, 1, 1, 1, 1, 1, 1, 1, 1, 1, 1, 1, 1, 1, 1, 1, 1, 1, 1, 1, 1, 1, 1, 1, 1, 1, 1, 1, 1, 1, 1, 1, 1, 1, 1, 1, 1, 1, 1, 1, 0]"	"[0, 0, 0, 0, 0, 0, 0, 0, 0, 0, 0, 0, 0, 0, 0, 0, 0, 0, 0, 0, 0, 0, 0, 0, 0, 0, 0, 0, 0, 0, 0, 0, 0, 0, 0, 0, 0, 0, 0, 0, 0, 0, 0, 0, 0, 0, 0, 0, 0, 0, 0]"	"[0, 0, 0, 0, 0, 0, 0, 0, 0, 0, 0, 0, 0, 0, 0, 0, 0, 0, 0, 0, 0, 0, 0, 0, 0, 0, 0, 0, 0, 0, 0, 0, 0, 0, 0, 0, 0, 0, 0, 0, 0, 0, 0, 0, 0, 0, 0, 0, 0, 0, 1]"	"[0.5420180999935837, 0.7671502000011969, 0.9670258999976795, 1.1586863999982597, 1.3754101999948034, 1.6090484999876935, 1.8590189999958966, 2.1004296999890357, 2.417242299998179, 3.142233299993677, 3.7172204999951646, 4.108896799996728, 4.750598799990257, 5.0341237999964505, 5.350689499988221, 6.2342247999913525, 6.70078279999143, 7.225931299995864, 7.6676546999951825, 7.984166599999298, 9.417750699998578, 10.001117499996326, 10.301177599991206, 10.60118149999471, 11.484553299989784, 11.784474000000046, 12.942966099988553, 13.23467520000122, 13.618041099995025, 14.901298500000848, 15.509668499988038, 16.001495599994087, 16.276559899997665, 16.809967799999868, 17.801745399992797, 18.009998999987147, 18.23500349999813, 18.718199499999173, 19.0184009999939, 19.24343119999685, 20.818551799995475, 21.11017549999815, 22.101777199990465, 22.318450999999186, 22.5768248999957, 23.193676199996844, 23.652168599990546, 24.293587399995886, 25.151983899995685, 25.410510799993062, 27.018971899989992]"	51	"[0.5401779000094393, 0.7653071000095224, 0.965188100002706, 1.156839300005231, 1.3735665999993216, 1.6073679000110133, 1.8571750999981305, 2.0985868999996455, 2.415396399999736, 3.1403951000102097, 3.715376899999683, 4.107053300002008, 4.748755200009327, 5.032284900007653, 5.348849200003315, 6.232380800007377, 6.698940400005085, 7.224089600000298, 7.665814100007992, 7.982323800009908, 9.415911500007496, 9.999274800007697, 10.299329100002069, 10.599338300002273, 11.482710399999633, 11.782626900007017, 12.94112970000424, 13.23282580000523, 13.616194600006565, 14.899455400009174, 15.50781980001193, 15.999649700010195, 16.27471830000286, 16.80812450000667, 17.799902700004168, 18.00815049999801, 18.233159000010346, 18.716354800009867, 19.016552100001718, 19.24158250000619, 20.81670710000617, 21.108330900009605, 22.09993540000869, 22.31660630000988, 22.56669600000896, 23.1918338000105, 23.650321100009023, 24.291748100004042, 25.150139800010948, 25.40866270000697, 27.01706940001168]"	"[0.6233511000027647, 0.8316922000085469, 1.0316944000078365, 1.240047900006175, 1.4483990000007907, 1.7067769999994198, 1.949343600004795, 2.1817995000019437, 2.540113000010024, 3.2401813000033144, 3.806964900009916, 4.2068964000063716, 4.807024400011869, 5.107139700005064, 5.423679400002584, 6.3487263999995776, 6.823777300000074, 7.332158300006995, 7.76559090000228, 8.065496100010932, 9.557251000005635, 10.115663200005656, 10.399073000007775, 10.70743080000102, 11.590829100008705, 11.907404700003099, 13.115905500002555, 13.399191800010158, 13.724297599997954, 15.024352500011446, 15.607668100012233, 16.082713900003, 16.366052000012132, 16.924666999999317, 17.899663600008353, 18.124549000000115, 18.341193000000203, 18.824670000001788, 19.11623710001004, 19.357961000001524, 20.949710300003062, 21.19970209999883, 22.19990740000503, 22.3997931000049, 22.674865300010424, 23.299858600003063, 23.741643800007296, 24.38332990001072, 25.250060300008045, 25.55836480000289, 27.017073900002288]"	474.32506750000175	474.3301364000072	475.82203150000714	475.8301735000132								29	01	2024-02-19_15h07.02.510	BART_exp	2023.2.3	120.00537623289597	2024-02-19 15h07.20.131109 +0100	
balloon.png	31	0	27	27	7	475.8301735000132													475.8222078000108	475.8301735000132	475.8301735000132	475.8301735000132	475.8301735000132	475.8301735000132	0.0051666999934241176	0.0051666999934241176	0.0051666999934241176	475.8301735000132	486.0745412000106	32	1.55	True	"[0.03518518518518519, 0.03518518518518519, 0.03518518518518519, 0.03518518518518519, 0.03518518518518519, 0.03518518518518519, 0.03518518518518519, 0.03518518518518519, 0.03518518518518519, 0.03518518518518519, 0.03518518518518519, 0.03518518518518519, 0.03518518518518519, 0.03518518518518519, 0.03518518518518519, 0.03518518518518519, 0.03518518518518519, 0.03518518518518519, 0.03518518518518519, 0.03518518518518519, 0.03518518518518519, 0.03518518518518519, 0.03518518518518519, 0.03518518518518519, 0.03518518518518519, 0.03518518518518519, 0.03518518518518519, 0.03518518518518519, 0.03518518518518519, 0.03518518518518519, 0.03518518518518519, 0.03518518518518519]"	"[-0.37592592592592594, -0.37592592592592594, -0.37592592592592594, -0.37592592592592594, -0.37592592592592594, -0.37592592592592594, -0.37592592592592594, -0.37592592592592594, -0.37592592592592594, -0.37592592592592594, -0.37592592592592594, -0.37592592592592594, -0.37592592592592594, -0.37592592592592594, -0.37592592592592594, -0.37592592592592594, -0.37592592592592594, -0.37592592592592594, -0.37592592592592594, -0.37592592592592594, -0.37592592592592594, -0.37592592592592594, -0.37592592592592594, -0.37592592592592594, -0.37592592592592594, -0.37592592592592594, -0.37592592592592594, -0.37592592592592594, -0.37592592592592594, -0.37592592592592594, -0.37592592592592594, -0.37592592592592594]"	"[1, 1, 1, 1, 1, 1, 1, 1, 1, 1, 1, 1, 1, 1, 1, 1, 1, 1, 1, 1, 1, 1, 1, 1, 1, 1, 1, 1, 1, 1, 1, 1]"	"[0, 0, 0, 0, 0, 0, 0, 0, 0, 0, 0, 0, 0, 0, 0, 0, 0, 0, 0, 0, 0, 0, 0, 0, 0, 0, 0, 0, 0, 0, 0, 0]"	"[0, 0, 0, 0, 0, 0, 0, 0, 0, 0, 0, 0, 0, 0, 0, 0, 0, 0, 0, 0, 0, 0, 0, 0, 0, 0, 0, 0, 0, 0, 0, 0]"	"[1.1172291000111727, 1.4087368000036804, 1.633848500001477, 1.867316000003484, 2.1172868000139715, 2.5671209000138333, 2.8338677000137977, 3.100656100010383, 3.350526100010029, 3.6174886000080733, 3.884098200011067, 4.134054699999979, 4.492449100012891, 4.834287800011225, 5.167320600012317, 5.375938000011956, 5.584003200012376, 5.817341200003284, 6.059164900012547, 6.284201200003736, 6.509233100005076, 6.750768400001107, 6.992563600011636, 7.175813300011214, 7.375954400005867, 7.625804800001788, 8.417568200005917, 8.751017200003844, 9.025881800000207, 9.467846900006407, 9.85109760001069, 10.134533200005535]"	32	"[1.1153676000103587, 1.4068733000021894, 1.631985200001509, 1.865451200006646, 2.115429100012989, 2.5652592000114964, 2.823699000000488, 3.0987908000097377, 3.348666600009892, 3.6156326000054833, 3.8822608000045875, 4.132190800009994, 4.4905878999998095, 4.8324286000133725, 5.165458800009219, 5.37407480001275, 5.582144400003017, 5.815477300013299, 6.0573039000009885, 6.282336500007659, 6.507374100008747, 6.7489097000070615, 6.990708600002108, 7.173952299999655, 7.374101800000062, 7.62394370000402, 8.415708200001973, 8.749153800003114, 9.024017200004891, 9.465981300003477, 9.849234900000738, 10.132675000000745]"	"[1.1983811000100104, 1.4901665000070352, 1.7317708000045968, 1.9650581000023521, 2.198408500000369, 2.6567856000037864, 2.915138800002751, 3.1901596000097925, 3.4485449000057997, 3.6985069000074873, 3.9736058000125922, 4.223604000013438, 4.598605500010308, 4.931948700002977, 5.231962300007581, 5.457037800006219, 5.665508400008548, 5.89038330000767, 6.148699299999862, 6.37376060000679, 6.615393600004609, 6.840491100010695, 7.073862800010829, 7.273763400007738, 7.482110200013267, 7.732125800001086, 8.515525200011325, 8.857232100010151, 9.099175400013337, 9.590597000002163, 9.95728530001361, 10.240701400005491]"	486.0758390000119	486.0808677000023	487.572851600009	487.5809724000137								29	01	2024-02-19_15h07.02.510	BART_exp	2023.2.3	120.00537623289597	2024-02-19 15h07.20.131109 +0100	
balloon.png	44	0	28	28	10	487.5809724000137													487.57302619999973	487.5809724000137	487.5809724000137	487.5809724000137	487.5809724000137	487.5809724000137	0.005209499999182299			487.5809724000137	504.55869740000344	43	2.15	False	"[0.03518518518518519, 0.03518518518518519, 0.03518518518518519, 0.03518518518518519, 0.03518518518518519, 0.03518518518518519, 0.03518518518518519, 0.03518518518518519, 0.03518518518518519, 0.03518518518518519, 0.03518518518518519, 0.03518518518518519, 0.03518518518518519, 0.03518518518518519, 0.03518518518518519, 0.03518518518518519, 0.03518518518518519, 0.03518518518518519, 0.03518518518518519, 0.03518518518518519, 0.03518518518518519, 0.03518518518518519, 0.03518518518518519, 0.03518518518518519, 0.03518518518518519, 0.03518518518518519, 0.03518518518518519, 0.03518518518518519, 0.03518518518518519, 0.03518518518518519, 0.03518518518518519, 0.03518518518518519, 0.03518518518518519, 0.03518518518518519, 0.03518518518518519, 0.03518518518518519, 0.03518518518518519, 0.03518518518518519, 0.03518518518518519, 0.03518518518518519, 0.03518518518518519, 0.03518518518518519, 0.03518518518518519, 0.03518518518518519]"	"[-0.37592592592592594, -0.37592592592592594, -0.37592592592592594, -0.37592592592592594, -0.37592592592592594, -0.37592592592592594, -0.37592592592592594, -0.37592592592592594, -0.37592592592592594, -0.37592592592592594, -0.37592592592592594, -0.37592592592592594, -0.37592592592592594, -0.37592592592592594, -0.37592592592592594, -0.37592592592592594, -0.37592592592592594, -0.37592592592592594, -0.37592592592592594, -0.37592592592592594, -0.37592592592592594, -0.37592592592592594, -0.37592592592592594, -0.37592592592592594, -0.37592592592592594, -0.37592592592592594, -0.37592592592592594, -0.37592592592592594, -0.37592592592592594, -0.37592592592592594, -0.37592592592592594, -0.37592592592592594, -0.37592592592592594, -0.37592592592592594, -0.37592592592592594, -0.37592592592592594, -0.37592592592592594, -0.37592592592592594, -0.37592592592592594, -0.37592592592592594, -0.37592592592592594, -0.37592592592592594, -0.37592592592592594, -0.37592592592592594]"	"[1, 1, 1, 1, 1, 1, 1, 1, 1, 1, 1, 1, 1, 1, 1, 1, 1, 1, 1, 1, 1, 1, 1, 1, 1, 1, 1, 1, 1, 1, 1, 1, 1, 1, 1, 1, 1, 1, 1, 1, 1, 1, 1, 0]"	"[0, 0, 0, 0, 0, 0, 0, 0, 0, 0, 0, 0, 0, 0, 0, 0, 0, 0, 0, 0, 0, 0, 0, 0, 0, 0, 0, 0, 0, 0, 0, 0, 0, 0, 0, 0, 0, 0, 0, 0, 0, 0, 0, 0]"	"[0, 0, 0, 0, 0, 0, 0, 0, 0, 0, 0, 0, 0, 0, 0, 0, 0, 0, 0, 0, 0, 0, 0, 0, 0, 0, 0, 0, 0, 0, 0, 0, 0, 0, 0, 0, 0, 0, 0, 0, 0, 0, 0, 1]"	"[0.6922002999926917, 0.9088042999937898, 1.0837802000023657, 1.2755218999955105, 1.4671285999938846, 1.6755847000022186, 1.8922146999975666, 2.125534799997695, 2.350396299996646, 2.542247299992596, 2.7589158000046154, 2.983766299992567, 3.2671140000020387, 3.492297199991299, 3.800506300001871, 4.058939700000337, 4.325714899998275, 4.567382699999143, 4.875767299992731, 5.167413499992108, 5.409155200002715, 5.659061600003042, 5.925826599996071, 6.34247659999528, 6.609059199996409, 6.917529500002274, 7.4007371999905445, 7.717612599997665, 7.950919499999145, 8.192439899998135, 8.959341299996595, 9.217521400001715, 9.442534100002376, 9.709374400001252, 10.667803199990885, 10.876192900002934, 11.667833600004087, 11.926250100004836, 12.551244200003566, 12.759527499991236, 14.684727699990617, 14.868122699990636, 16.276511799995205, 16.984710499993525]"	44	"[0.6902518999995664, 0.9068522000015946, 1.0818284999986645, 1.2735730999993393, 1.4651750000048196, 1.673633800004609, 1.8902639000007184, 2.123586700006854, 2.3484500000049593, 2.540301200002432, 2.756969100009883, 2.981820600005449, 3.2651659000111977, 3.490351800006465, 3.7985555000050226, 4.0569956000108505, 4.323764100001426, 4.565438899997389, 4.873815200000536, 5.1654664000088815, 5.407304300009855, 5.657115200010594, 5.923877200009883, 6.340533700000378, 6.607119400010561, 6.91557759999705, 7.398785099998349, 7.715667000011308, 7.948969000004581, 8.190491300003487, 8.957393500008038, 9.215569000007235, 9.440582199997152, 9.707431200004066, 10.665861000001314, 10.87424390000524, 11.665882400004193, 11.924304100000882, 12.549293400006718, 12.757583700004034, 14.68278210000426, 14.86617049999768, 16.274566899999627, 16.982697100000223]"	"[0.7815231999993557, 0.9815170000074431, 1.1648828000033973, 1.373349400004372, 1.5566113000095356, 1.7566114000073867, 1.9815918000094825, 2.2150622000044677, 2.440069600008428, 2.6400391000061063, 2.856647900000098, 3.0817136999976356, 3.3316875000018626, 3.6483909000089625, 3.8900663000094937, 4.148405900006765, 4.440139900005306, 4.67346120000002, 4.990165700000944, 5.265291100004106, 5.5068390000087675, 5.765222900008666, 6.031884700001683, 6.448604400007753, 6.6985929000074975, 7.048637100000633, 7.540303500005393, 7.8236742000008235, 8.048730900001829, 8.307033500008401, 9.073774999997113, 9.30712160000985, 9.540546300006099, 9.840490200003842, 10.77386000000115, 10.982205899999826, 11.782276500001899, 12.032280200000969, 12.64903860000777, 12.840729100003955, 14.740818500009482, 14.949238900007913, 16.349239800008945, 16.982701500004623]"	504.56012420001207	504.5654904000112	506.0574844000075	506.0655728000129								29	01	2024-02-19_15h07.02.510	BART_exp	2023.2.3	120.00537623289597	2024-02-19 15h07.20.131109 +0100	
balloon.png	23	0	29	29	5	506.0655728000129													506.05766920000315	506.0655728000129	506.0655728000129	506.0655728000129	506.0655728000129	506.0655728000129	0.005516099990927614	0.005516099990927614	0.005516099990927614	506.0655728000129	513.8264092000027	24	1.15	True	"[0.03518518518518519, 0.03518518518518519, 0.03518518518518519, 0.03518518518518519, 0.03518518518518519, 0.03518518518518519, 0.03518518518518519, 0.03518518518518519, 0.03518518518518519, 0.03518518518518519, 0.03518518518518519, 0.03518518518518519, 0.03518518518518519, 0.03518518518518519, 0.03518518518518519, 0.03518518518518519, 0.03518518518518519, 0.03518518518518519, 0.03518518518518519, 0.03518518518518519, 0.03518518518518519, 0.03518518518518519, 0.03518518518518519, 0.03518518518518519]"	"[-0.37592592592592594, -0.37592592592592594, -0.37592592592592594, -0.37592592592592594, -0.37592592592592594, -0.37592592592592594, -0.37592592592592594, -0.37592592592592594, -0.37592592592592594, -0.37592592592592594, -0.37592592592592594, -0.37592592592592594, -0.37592592592592594, -0.37592592592592594, -0.37592592592592594, -0.37592592592592594, -0.37592592592592594, -0.37592592592592594, -0.37592592592592594, -0.37592592592592594, -0.37592592592592594, -0.37592592592592594, -0.37592592592592594, -0.37592592592592594]"	"[1, 1, 1, 1, 1, 1, 1, 1, 1, 1, 1, 1, 1, 1, 1, 1, 1, 1, 1, 1, 1, 1, 1, 1]"	"[0, 0, 0, 0, 0, 0, 0, 0, 0, 0, 0, 0, 0, 0, 0, 0, 0, 0, 0, 0, 0, 0, 0, 0]"	"[0, 0, 0, 0, 0, 0, 0, 0, 0, 0, 0, 0, 0, 0, 0, 0, 0, 0, 0, 0, 0, 0, 0, 0]"	"[0.5837604000116698, 0.8170925000013085, 1.0087822000059532, 1.2004635000048438, 1.4088411000120686, 1.5921329999982845, 2.1420337000017753, 2.333720300011919, 2.5170522999978857, 2.700428700001794, 2.900518499998725, 3.6422940000047674, 3.9004854000086198, 4.350680700008525, 4.625693699999829, 4.858889900002396, 5.125567499999306, 5.500599899998633, 5.7506403000006685, 6.017296300007729, 6.54232970000885, 6.825913599997875, 7.384218000006513, 7.659070200010319]"	24	"[0.5819177000084892, 0.8152426000015112, 1.0069342000060715, 1.1986126999981934, 1.4069937000022037, 1.5902820000046631, 2.140185800002655, 2.331872199996724, 2.5152046000002883, 2.698580900003435, 2.8986716000072192, 3.640440999995917, 3.8986315000074683, 4.348834999997052, 4.623840200001723, 4.857040900009451, 5.123727199999848, 5.498753599997144, 5.740575100004207, 6.015451100000064, 6.540474800000084, 6.824066000001039, 7.382365299999947, 7.657218200009083]"	"[0.7149949000013294, 0.898261199996341, 1.1066417999973055, 1.2900002999958815, 1.4733017999969888, 1.673336100007873, 2.1650301000045147, 2.3983843000023626, 2.5734118999971543, 2.7567356000072323, 2.9900705000036396, 3.7318001000094227, 3.9984712000004947, 4.456853099996806, 4.731890099996235, 4.948548900007154, 5.231969200001913, 5.606975500006229, 5.848628300009295, 6.131993000002694, 6.632027600004221, 6.923879699999816, 7.532057899996289, 7.757140500005335]"	513.8274166000047	513.8327810000046	515.3247572000109	515.3328485000093								29	01	2024-02-19_15h07.02.510	BART_exp	2023.2.3	120.00537623289597	2024-02-19 15h07.20.131109 +0100	
																																														515.3247934000101	515.3328485000093	515.3328485000093	528.4424500000023	space	13.106959700002335	None	29	01	2024-02-19_15h07.02.510	BART_exp	2023.2.3	120.00537623289597	2024-02-19 15h07.20.131109 +0100	
