diceImage	d_number	dice_loop.thisRepN	dice_loop.thisTrialN	dice_loop.thisN	dice_loop.thisIndex	thisRow.t	notes	Start.started	text_start.started	continue_start.started	mouse_start.started	Start.stopped	mouse_start.x	mouse_start.y	mouse_start.leftButton	mouse_start.midButton	mouse_start.rightButton	mouse_start.time	trial.started	box_dice.started	text_dice_header.started	text_gain.started	value_gain.started	text_bank.started	value_bank.started	img_dice_1.started	img_dice_2.started	img_dice_3.started	img_dice_4.started	img_dice_5.started	img_dice_6.started	img_dice_1_2.started	img_dice_3_4.started	img_dice_5_6.started	img_dice_1_2_3.started	img_dice_4_5_6.started	img_dice_1_2_3_4.started	img_dice_2_3_4_5.started	img_dice_3_4_5_6.started	text_value_header.started	text_value_1000.started	text_value_500.started	text_value_200.started	text_value_100.started	mouse_task.started	gain_sound.started	img_dice_throw_trials.started	gain_sound.stopped	img_dice_throw_trials.stopped	trial.stopped	mouse_task.x	mouse_task.y	mouse_task.leftButton	mouse_task.midButton	mouse_task.rightButton	mouse_task.time	choice	gain	loss_sound.started	End.started	text_end.started	key_end.started	End.stopped	key_end.keys	key_end.rt	key_end.duration	participant	session	date	expName	psychopyVersion	frameRate	expStart	
								0.0404493999958504	0.052328099991427734	0.052328099991427734	0.04079420000198297	26.738170399999944	[0.6638888888888889]	[-0.38796296296296295]	[1]	[0]	[0]	[26.69680019999214]																																																	13	01	2024-02-07_13h59.05.496	GDT_exp	2023.2.3	119.97211849082457	2024-02-07 13h59.14.604496 +0100	
dice_1.png	1	0	0	0	0	26.82090849999804													26.74318299999868	26.82090849999804	26.82090849999804	26.82090849999804	26.82090849999804	26.82090849999804	26.82090849999804	26.82090849999804	26.82090849999804	26.82090849999804	26.82090849999804	26.82090849999804	26.82090849999804	26.82090849999804	26.82090849999804	26.82090849999804	26.82090849999804	26.82090849999804	26.82090849999804	26.82090849999804	26.82090849999804	26.82090849999804	26.82090849999804	26.82090849999804	26.82090849999804	26.82090849999804	0.02334839999093674	3.8079768999887165	30.629508699988946	5.316453599996748	32.18812880000041	32.14907409998705	"[-0.6138888888888889, -0.6138888888888889]"	"[-0.34814814814814815, -0.34814814814814815]"	"[1, 0]"	"[0, 0]"	"[0, 1]"	"[3.6159716000111075, 3.749235100010992]"	4	100									13	01	2024-02-07_13h59.05.496	GDT_exp	2023.2.3	119.97211849082457	2024-02-07 13h59.14.604496 +0100	
dice_3.png	3	0	1	1	2	32.18812880000041													32.14999130000069	32.18812880000041	32.18812880000041	32.18812880000041	32.18812880000041	32.18812880000041	32.18812880000041	32.18812880000041	32.18812880000041	32.18812880000041	32.18812880000041	32.18812880000041	32.18812880000041	32.18812880000041	32.18812880000041	32.18812880000041	32.18812880000041	32.18812880000041	32.18812880000041	32.18812880000041	32.18812880000041	32.18812880000041	32.18812880000041	32.18812880000041	32.18812880000041	32.18812880000041	0.014867000005324371		37.13826809999591		38.69673349999357	38.64958269998897	"[-0.10555555555555556, -0.10555555555555556]"	"[-0.25462962962962965, -0.25462962962962965]"	"[1, 0]"	"[0, 0]"	"[0, 1]"	"[4.664856199990027, 4.898211899999296]"	3	-200	4.913418299998739								13	01	2024-02-07_13h59.05.496	GDT_exp	2023.2.3	119.97211849082457	2024-02-07 13h59.14.604496 +0100	
dice_6.png	6	0	2	2	5	38.69673349999357													38.65013069999986	38.69673349999357	38.69673349999357	38.69673349999357	38.69673349999357	38.69673349999357	38.69673349999357	38.69673349999357	38.69673349999357	38.69673349999357	38.69673349999357	38.69673349999357	38.69673349999357	38.69673349999357	38.69673349999357	38.69673349999357	38.69673349999357	38.69673349999357	38.69673349999357	38.69673349999357	38.69673349999357	38.69673349999357	38.69673349999357	38.69673349999357	38.69673349999357	38.69673349999357	0.01832030000514351	1.3135393999982625	40.038641199993435	2.838679799999227	41.58863980000024	41.54975899998681	"[0.02962962962962963, 0.02962962962962963]"	"[-0.35555555555555557, -0.35555555555555557]"	"[1, 0]"	"[0, 0]"	"[0, 1]"	"[0.8279124999971827, 1.2946028000005754]"	4	100									13	01	2024-02-07_13h59.05.496	GDT_exp	2023.2.3	119.97211849082457	2024-02-07 13h59.14.604496 +0100	
dice_5.png	5	0	3	3	4	41.58863980000024													41.550318900001	41.58863980000024	41.58863980000024	41.58863980000024	41.58863980000024	41.58863980000024	41.58863980000024	41.58863980000024	41.58863980000024	41.58863980000024	41.58863980000024	41.58863980000024	41.58863980000024	41.58863980000024	41.58863980000024	41.58863980000024	41.58863980000024	41.58863980000024	41.58863980000024	41.58863980000024	41.58863980000024	41.58863980000024	41.58863980000024	41.58863980000024	41.58863980000024	41.58863980000024	0.014674100006232038	1.6801898999983678	43.305428399995435	3.213667100004386	44.88046859999304	44.833026399996015	"[-0.1398148148148148, -0.1398148148148148]"	"[-0.23796296296296296, -0.23796296296296296]"	"[1, 0]"	"[0, 0]"	"[0, 1]"	"[1.2904344999988098, 1.6654314000043087]"	3	200									13	01	2024-02-07_13h59.05.496	GDT_exp	2023.2.3	119.97211849082457	2024-02-07 13h59.14.604496 +0100	
dice_2.png	2	0	4	4	1	44.88046859999304													44.83356939999794	44.88046859999304	44.88046859999304	44.88046859999304	44.88046859999304	44.88046859999304	44.88046859999304	44.88046859999304	44.88046859999304	44.88046859999304	44.88046859999304	44.88046859999304	44.88046859999304	44.88046859999304	44.88046859999304	44.88046859999304	44.88046859999304	44.88046859999304	44.88046859999304	44.88046859999304	44.88046859999304	44.88046859999304	44.88046859999304	44.88046859999304	44.88046859999304	44.88046859999304	0.017969400010770187		46.63898150000023		48.189034600000014	48.1419312999933	"[-0.26481481481481484, -0.26481481481481484]"	"[-0.15833333333333333, -0.15833333333333333]"	"[1, 0]"	"[0, 0]"	"[0, 1]"	"[1.2705946000060067, 1.7207877000037115]"	2	-500	1.7388292000105139								13	01	2024-02-07_13h59.05.496	GDT_exp	2023.2.3	119.97211849082457	2024-02-07 13h59.14.604496 +0100	
dice_4.png	4	0	5	5	3	48.189034600000014													48.14252399999532	48.189034600000014	48.189034600000014	48.189034600000014	48.189034600000014	48.189034600000014	48.189034600000014	48.189034600000014	48.189034600000014	48.189034600000014	48.189034600000014	48.189034600000014	48.189034600000014	48.189034600000014	48.189034600000014	48.189034600000014	48.189034600000014	48.189034600000014	48.189034600000014	48.189034600000014	48.189034600000014	48.189034600000014	48.189034600000014	48.189034600000014	48.189034600000014	48.189034600000014	0.018010800005868077		52.63113460000022		54.189444599993294	54.15016019999166	"[0.07962962962962963, 0.07962962962962963]"	"[-0.1675925925925926, -0.1675925925925926]"	"[1, 0]"	"[0, 0]"	"[0, 1]"	"[4.195341200000257, 4.39539559998957]"	2	-500	4.4136748000019								13	01	2024-02-07_13h59.05.496	GDT_exp	2023.2.3	119.97211849082457	2024-02-07 13h59.14.604496 +0100	
dice_1.png	1	1	0	6	0	54.189444599993294													54.15069829999993	54.189444599993294	54.189444599993294	54.189444599993294	54.189444599993294	54.189444599993294	54.189444599993294	54.189444599993294	54.189444599993294	54.189444599993294	54.189444599993294	54.189444599993294	54.189444599993294	54.189444599993294	54.189444599993294	54.189444599993294	54.189444599993294	54.189444599993294	54.189444599993294	54.189444599993294	54.189444599993294	54.189444599993294	54.189444599993294	54.189444599993294	54.189444599993294	54.189444599993294	0.01451979999546893		54.83115279999038		56.38960519999091	56.350376299989875	"[0.041666666666666664, 0.041666666666666664]"	"[-0.3425925925925926, -0.3425925925925926]"	"[1, 0]"	"[0, 0]"	"[0, 1]"	"[0.14084629999706522, 0.5910020000010263]"	4	-100	0.6055980999954045								13	01	2024-02-07_13h59.05.496	GDT_exp	2023.2.3	119.97211849082457	2024-02-07 13h59.14.604496 +0100	
dice_2.png	2	1	1	7	1	56.38960519999091													56.35090359998867	56.38960519999091	56.38960519999091	56.38960519999091	56.38960519999091	56.38960519999091	56.38960519999091	56.38960519999091	56.38960519999091	56.38960519999091	56.38960519999091	56.38960519999091	56.38960519999091	56.38960519999091	56.38960519999091	56.38960519999091	56.38960519999091	56.38960519999091	56.38960519999091	56.38960519999091	56.38960519999091	56.38960519999091	56.38960519999091	56.38960519999091	56.38960519999091	56.38960519999091	0.01494269999966491	2.2890140999952564	58.70642069999303	3.7974691999988863	60.248191799997585	60.20941089998814	"[-0.6666666666666666, -0.6666666666666666]"	"[-0.34444444444444444, -0.34444444444444444]"	"[1, 0]"	"[0, 0]"	"[0, 1]"	"[0.07532940000237431, 2.273974299998372]"	4	100									13	01	2024-02-07_13h59.05.496	GDT_exp	2023.2.3	119.97211849082457	2024-02-07 13h59.14.604496 +0100	
dice_5.png	5	1	2	8	4	60.248191799997585													60.20998339999642	60.248191799997585	60.248191799997585	60.248191799997585	60.248191799997585	60.248191799997585	60.248191799997585	60.248191799997585	60.248191799997585	60.248191799997585	60.248191799997585	60.248191799997585	60.248191799997585	60.248191799997585	60.248191799997585	60.248191799997585	60.248191799997585	60.248191799997585	60.248191799997585	60.248191799997585	60.248191799997585	60.248191799997585	60.248191799997585	60.248191799997585	60.248191799997585	60.248191799997585	0.01494930000626482	3.0052934999985155	63.29021859999921	4.522141300010844	64.84864430000016	64.80138299999817	"[-0.34074074074074073, -0.34074074074074073]"	"[-0.35648148148148145, -0.35648148148148145]"	"[1, 0]"	"[0, 0]"	"[0, 1]"	"[2.5153596000018297, 2.9903369000094244]"	4	100									13	01	2024-02-07_13h59.05.496	GDT_exp	2023.2.3	119.97211849082457	2024-02-07 13h59.14.604496 +0100	
dice_3.png	3	1	3	9	2	64.84864430000016													64.80197770000086	64.84864430000016	64.84864430000016	64.84864430000016	64.84864430000016	64.84864430000016	64.84864430000016	64.84864430000016	64.84864430000016	64.84864430000016	64.84864430000016	64.84864430000016	64.84864430000016	64.84864430000016	64.84864430000016	64.84864430000016	64.84864430000016	64.84864430000016	64.84864430000016	64.84864430000016	64.84864430000016	64.84864430000016	64.84864430000016	64.84864430000016	64.84864430000016	64.84864430000016	0.0180495999957202	2.855217399992398	67.72387059999164	4.372040999995079	69.29060599999502	69.24620879998838	"[-0.3212962962962963, -0.3212962962962963]"	"[-0.35555555555555557, -0.35555555555555557]"	"[1, 0]"	"[0, 0]"	"[0, 1]"	"[2.378461899992544, 2.8368064999958733]"	4	100									13	01	2024-02-07_13h59.05.496	GDT_exp	2023.2.3	119.97211849082457	2024-02-07 13h59.14.604496 +0100	
dice_6.png	6	1	4	10	5	69.29060599999502													69.24678909999784	69.29060599999502	69.29060599999502	69.29060599999502	69.29060599999502	69.29060599999502	69.29060599999502	69.29060599999502	69.29060599999502	69.29060599999502	69.29060599999502	69.29060599999502	69.29060599999502	69.29060599999502	69.29060599999502	69.29060599999502	69.29060599999502	69.29060599999502	69.29060599999502	69.29060599999502	69.29060599999502	69.29060599999502	69.29060599999502	69.29060599999502	69.29060599999502	69.29060599999502	0.017621999999391846		71.16552769999544		72.70738589999382	72.66825160000008	"[-0.2972222222222222, -0.2972222222222222]"	"[-0.35648148148148145, -0.35648148148148145]"	"[1, 0]"	"[0, 0]"	"[0, 1]"	"[1.2009471000055782, 1.8344489000010071]"	4	-100	1.852301199993235								13	01	2024-02-07_13h59.05.496	GDT_exp	2023.2.3	119.97211849082457	2024-02-07 13h59.14.604496 +0100	
dice_4.png	4	1	5	11	3	72.70738589999382													72.66883009999583	72.70738589999382	72.70738589999382	72.70738589999382	72.70738589999382	72.70738589999382	72.70738589999382	72.70738589999382	72.70738589999382	72.70738589999382	72.70738589999382	72.70738589999382	72.70738589999382	72.70738589999382	72.70738589999382	72.70738589999382	72.70738589999382	72.70738589999382	72.70738589999382	72.70738589999382	72.70738589999382	72.70738589999382	72.70738589999382	72.70738589999382	72.70738589999382	72.70738589999382	0.017991700005950406	0.9471002999925986	73.68247479999263	2.4722679999977117	75.24090859999706	75.20187140000053	"[-0.2361111111111111, -0.2361111111111111]"	"[-0.3509259259259259, -0.3509259259259259]"	"[1, 0]"	"[0, 0]"	"[0, 1]"	"[0.48738399999274407, 0.9288818000059109]"	4	100									13	01	2024-02-07_13h59.05.496	GDT_exp	2023.2.3	119.97211849082457	2024-02-07 13h59.14.604496 +0100	
dice_6.png	6	2	0	12	5	75.24090859999706													75.20248290000018	75.24090859999706	75.24090859999706	75.24090859999706	75.24090859999706	75.24090859999706	75.24090859999706	75.24090859999706	75.24090859999706	75.24090859999706	75.24090859999706	75.24090859999706	75.24090859999706	75.24090859999706	75.24090859999706	75.24090859999706	75.24090859999706	75.24090859999706	75.24090859999706	75.24090859999706	75.24090859999706	75.24090859999706	75.24090859999706	75.24090859999706	75.24090859999706	75.24090859999706	0.014907000004313886		76.09109469999385		77.64105359998939	77.6017087999935	"[-0.2361111111111111, -0.2361111111111111]"	"[-0.3509259259259259, -0.3509259259259259]"	"[1, 0]"	"[0, 0]"	"[0, 1]"	"[0.3982267999963369, 0.8065882999944733]"	4	-100	0.8219531000067946								13	01	2024-02-07_13h59.05.496	GDT_exp	2023.2.3	119.97211849082457	2024-02-07 13h59.14.604496 +0100	
dice_3.png	3	2	1	13	2	77.64105359998939													77.60223199999018	77.64105359998939	77.64105359998939	77.64105359998939	77.64105359998939	77.64105359998939	77.64105359998939	77.64105359998939	77.64105359998939	77.64105359998939	77.64105359998939	77.64105359998939	77.64105359998939	77.64105359998939	77.64105359998939	77.64105359998939	77.64105359998939	77.64105359998939	77.64105359998939	77.64105359998939	77.64105359998939	77.64105359998939	77.64105359998939	77.64105359998939	77.64105359998939	77.64105359998939	0.01456430001417175	1.0056876000016928	78.67445989999396	2.5391878000082215	80.24956409999868	80.21073519998754	"[-0.2388888888888889, -0.2388888888888889]"	"[-0.3509259259259259, -0.3509259259259259]"	"[1, 0]"	"[0, 0]"	"[0, 1]"	"[0.49097720001009293, 0.9907550000061747]"	4	100									13	01	2024-02-07_13h59.05.496	GDT_exp	2023.2.3	119.97211849082457	2024-02-07 13h59.14.604496 +0100	
dice_4.png	4	2	2	14	3	80.24956409999868													80.21131689999311	80.24956409999868	80.24956409999868	80.24956409999868	80.24956409999868	80.24956409999868	80.24956409999868	80.24956409999868	80.24956409999868	80.24956409999868	80.24956409999868	80.24956409999868	80.24956409999868	80.24956409999868	80.24956409999868	80.24956409999868	80.24956409999868	80.24956409999868	80.24956409999868	80.24956409999868	80.24956409999868	80.24956409999868	80.24956409999868	80.24956409999868	80.24956409999868	80.24956409999868	0.014851300002192147	1.0551310000009835	81.33289049999439	2.563622799993027	82.89141209999798	82.84424279999803	"[-0.07962962962962963, -0.07962962962962963]"	"[-0.25277777777777777, -0.2537037037037037]"	"[1, 0]"	"[0, 0]"	"[0, 1]"	"[0.6566640999953961, 1.0400406999979168]"	3	200									13	01	2024-02-07_13h59.05.496	GDT_exp	2023.2.3	119.97211849082457	2024-02-07 13h59.14.604496 +0100	
dice_1.png	1	2	3	15	0	82.89141209999798													82.84481029999733	82.89141209999798	82.89141209999798	82.89141209999798	82.89141209999798	82.89141209999798	82.89141209999798	82.89141209999798	82.89141209999798	82.89141209999798	82.89141209999798	82.89141209999798	82.89141209999798	82.89141209999798	82.89141209999798	82.89141209999798	82.89141209999798	82.89141209999798	82.89141209999798	82.89141209999798	82.89141209999798	82.89141209999798	82.89141209999798	82.89141209999798	82.89141209999798	82.89141209999798	0.018183000007411465	0.6384652999986429	83.55814109998755	2.155293100004201	85.10823569999775	85.06092469999567	"[-0.4888888888888889, -0.4888888888888889]"	"[-0.23981481481481481, -0.23981481481481481]"	"[1, 0]"	"[0, 0]"	"[0, 1]"	"[0.22852340000099503, 0.6200599000003422]"	3	200									13	01	2024-02-07_13h59.05.496	GDT_exp	2023.2.3	119.97211849082457	2024-02-07 13h59.14.604496 +0100	
dice_5.png	5	2	4	16	4	85.10823569999775													85.06150529999286	85.10823569999775	85.10823569999775	85.10823569999775	85.10823569999775	85.10823569999775	85.10823569999775	85.10823569999775	85.10823569999775	85.10823569999775	85.10823569999775	85.10823569999775	85.10823569999775	85.10823569999775	85.10823569999775	85.10823569999775	85.10823569999775	85.10823569999775	85.10823569999775	85.10823569999775	85.10823569999775	85.10823569999775	85.10823569999775	85.10823569999775	85.10823569999775	85.10823569999775	0.01788450000458397		86.76671079998778		88.3417868999968	88.30283149999741	"[-0.2833333333333333, -0.2833333333333333]"	"[-0.15185185185185185, -0.1527777777777778]"	"[1, 0]"	"[0, 0]"	"[0, 1]"	"[1.3456034999981057, 1.6205705999891507]"	2	-500	1.6386844999942696								13	01	2024-02-07_13h59.05.496	GDT_exp	2023.2.3	119.97211849082457	2024-02-07 13h59.14.604496 +0100	
dice_2.png	2	2	5	17	1	88.3417868999968													88.30344039999181	88.3417868999968	88.3417868999968	88.3417868999968	88.3417868999968	88.3417868999968	88.3417868999968	88.3417868999968	88.3417868999968	88.3417868999968	88.3417868999968	88.3417868999968	88.3417868999968	88.3417868999968	88.3417868999968	88.3417868999968	88.3417868999968	88.3417868999968	88.3417868999968	88.3417868999968	88.3417868999968	88.3417868999968	88.3417868999968	88.3417868999968	88.3417868999968	88.3417868999968	0.014713600001414306	3.238721699992311	91.61701170000015	4.763867300003767	93.14223119999224	93.1279011000006	"[-0.65, -0.65]"	"[-0.35648148148148145, -0.35648148148148145]"	"[1, 0]"	"[0, 0]"	"[0, 1]"	"[2.923982199994498, 3.223748799995519]"	4	100									13	01	2024-02-07_13h59.05.496	GDT_exp	2023.2.3	119.97211849082457	2024-02-07 13h59.14.604496 +0100	
																																																												93.12835349999659	93.14223119999224	93.14223119999224	101.40146809999715	space	8.2537483000051	None	13	01	2024-02-07_13h59.05.496	GDT_exp	2023.2.3	119.97211849082457	2024-02-07 13h59.14.604496 +0100	
