image	max_pumps	pump_loop.thisRepN	pump_loop.thisTrialN	pump_loop.thisN	pump_loop.thisIndex	thisRow.t	notes	Start.started	text_start.started	continue_start.started	mouse_start.started	Start.stopped	mouse_start.x	mouse_start.y	mouse_start.leftButton	mouse_start.midButton	mouse_start.rightButton	mouse_start.time	trials.started	stim_balloon.started	stim_balloon_burst.started	stim_balloon_burst.stopped	text_ballon_value.started	text_bank.started	mouse.started	sound_bang.started	sound_bang.stopped	button_balloon.started	trials.stopped	n_pumps	earnings	popped	mouse.x	mouse.y	mouse.leftButton	mouse.midButton	mouse.rightButton	mouse.time	button_balloon.numClicks	button_balloon.timesOn	button_balloon.timesOff	Feedback.started	text_feedback.started	Feedback.stopped	text_feedback.stopped	End.started	text_end.started	key_end.started	End.stopped	key_end.keys	key_end.rt	key_end.duration	participant	session	date	expName	psychopyVersion	frameRate	expStart	
								0.040350600000238046	0.046615200000815094	0.046615200000815094	0.04067100000247592	161.28337399999873	[0.712037037037037]	[-0.3675925925925926]	[1]	[0]	[0]	[161.24209350000092]																																			10	02	2024-02-06_16h13.56.817	BART_exp	2023.2.3	119.97024738079782	2024-02-06 16h14.13.914072 +0100	
balloon.png	105	0	0	0	24	161.3576635999998													161.29135039999892	161.3576635999998	161.3576635999998	161.3576635999998	161.3576635999998	161.3576635999998	0.009749500000907574	0.009749500000907574	0.009749500000907574	161.3576635999998	169.2430768000013	16	0.80	False	"[-0.014814814814814815, -0.014814814814814815, -0.014814814814814815, -0.014814814814814815, -0.014814814814814815, -0.014814814814814815, -0.014814814814814815, -0.014814814814814815, -0.014814814814814815, -0.014814814814814815, -0.014814814814814815, -0.014814814814814815, -0.014814814814814815, -0.014814814814814815, -0.014814814814814815, -0.014814814814814815, -0.014814814814814815]"	"[-0.4083333333333333, -0.4083333333333333, -0.4083333333333333, -0.4083333333333333, -0.4083333333333333, -0.4083333333333333, -0.4083333333333333, -0.4083333333333333, -0.4083333333333333, -0.4083333333333333, -0.4083333333333333, -0.4083333333333333, -0.4083333333333333, -0.4083333333333333, -0.4083333333333333, -0.4083333333333333, -0.4083333333333333]"	"[1, 1, 1, 1, 1, 1, 1, 1, 1, 1, 1, 1, 1, 1, 1, 1, 0]"	"[0, 0, 0, 0, 0, 0, 0, 0, 0, 0, 0, 0, 0, 0, 0, 0, 0]"	"[0, 0, 0, 0, 0, 0, 0, 0, 0, 0, 0, 0, 0, 0, 0, 0, 1]"	"[1.5671086000002106, 1.9754142999991018, 2.3838223999991897, 2.8088251000008313, 3.250629599999229, 3.5671724999992875, 3.910588300001109, 4.383970800001407, 4.758941899999627, 5.0520873999994365, 5.4342691999991075, 5.675823000001401, 5.925942199999554, 6.242511399999785, 6.800736900000629, 7.484300600001006, 7.9507931000007375]"	17	"[1.5117841999999655, 1.9200883000012254, 2.328502700001991, 2.7534997000002477, 3.1953080000021146, 3.5118480999990425, 3.8554306000005454, 4.328649800001585, 4.7036246999996365, 4.99676140000156, 5.378953499999625, 5.620504300000903, 5.870621999998548, 6.18719129999954, 6.745413100001315, 7.428978700001608, 7.895401199999469]"	"[1.603245499998593, 2.0199238999994122, 2.4366307000018423, 2.8533549000021594, 3.311697199998889, 3.5951041000007535, 3.986730600001465, 4.436797099999239, 4.828472400000464, 5.120179400000779, 5.495169400001032, 5.736837899999955, 5.953627200000483, 6.303583199998684, 6.878591100001358, 7.545342599998548, 7.89540549999947]"	169.24435359999916	169.25820050000038	170.75001920000068									10	02	2024-02-06_16h13.56.817	BART_exp	2023.2.3	119.97024738079782	2024-02-06 16h14.13.914072 +0100	
balloon.png	101	0	1	1	23	170.76664080000046													170.75020220000079	170.76664080000046	170.76664080000046	170.76664080000046	170.76664080000046	170.76664080000046	0.007085099998221267	0.007085099998221267	0.007085099998221267	170.76664080000046	176.00196109999888	17	0.85	False	"[0.001851851851851852, 0.001851851851851852, 0.001851851851851852, 0.001851851851851852, 0.001851851851851852, 0.001851851851851852, 0.001851851851851852, 0.001851851851851852, 0.001851851851851852, 0.001851851851851852, 0.001851851851851852, 0.001851851851851852, 0.001851851851851852, 0.001851851851851852, 0.001851851851851852, 0.001851851851851852, 0.001851851851851852, 0.001851851851851852]"	"[-0.38425925925925924, -0.38425925925925924, -0.38425925925925924, -0.38425925925925924, -0.38425925925925924, -0.38425925925925924, -0.38425925925925924, -0.38425925925925924, -0.38425925925925924, -0.38425925925925924, -0.38425925925925924, -0.38425925925925924, -0.38425925925925924, -0.38425925925925924, -0.38425925925925924, -0.38425925925925924, -0.38425925925925924, -0.38425925925925924]"	"[1, 1, 1, 1, 1, 1, 1, 1, 1, 1, 1, 1, 1, 1, 1, 1, 1, 0]"	"[0, 0, 0, 0, 0, 0, 0, 0, 0, 0, 0, 0, 0, 0, 0, 0, 0, 0]"	"[0, 0, 0, 0, 0, 0, 0, 0, 0, 0, 0, 0, 0, 0, 0, 0, 0, 1]"	"[0.533802599999035, 0.75063599999703, 1.0006734999988112, 1.2423223999976472, 1.5172098000002734, 1.78401699999813, 2.05906259999756, 2.459067399999185, 2.7340411999975913, 2.9674258999984886, 3.425836700000218, 3.659200199999759, 3.842497599998751, 4.2175752999974065, 4.4270646999975725, 4.617614999999205, 4.909095299997716, 5.250813999999082]"	18	"[0.5276555999989796, 0.7444873999993433, 0.9945308999995177, 1.2361719999971683, 1.5110608999966644, 1.777865499996551, 2.052918099998351, 2.452921399999468, 2.727894399999059, 2.9612767999969947, 3.4196962999994867, 3.6530568999987736, 3.8363460000000487, 4.211433399999805, 4.42108929999813, 4.611475099998643, 4.90294769999673, 5.2445962999991025]"	"[0.6191644999998971, 0.8774989999983518, 1.110847999996622, 1.3775594999970053, 1.669233799999347, 1.919298799999524, 2.1942649999982677, 2.577617499999178, 2.835981099997298, 3.061003899998468, 3.5360194999993837, 3.7611605999991298, 3.944473799998377, 4.336111099997652, 4.52786019999985, 4.719459999996616, 5.011114499997348, 5.244600599999103]"	176.00295919999917	176.00866419999875	177.50065520000135	177.5171573000007								10	02	2024-02-06_16h13.56.817	BART_exp	2023.2.3	119.97024738079782	2024-02-06 16h14.13.914072 +0100	
balloon.png	5	0	2	2	1	177.5171573000007													177.5008412999996	177.5171573000007	177.5171573000007	177.5171573000007	177.5171573000007	177.5171573000007	-0.0008985000022221357	-0.0008985000022221357	-0.0008985000022221357	177.5171573000007	179.01919970000017	6	0.25	True	"[0.001851851851851852, 0.001851851851851852, 0.001851851851851852, 0.001851851851851852, 0.001851851851851852, 0.001851851851851852]"	"[-0.38425925925925924, -0.38425925925925924, -0.38425925925925924, -0.38425925925925924, -0.38425925925925924, -0.38425925925925924]"	"[1, 1, 1, 1, 1, 1]"	"[0, 0, 0, 0, 0, 0]"	"[0, 0, 0, 0, 0, 0]"	"[0.32528280000042287, 0.5087706000012986, 0.7253259999997681, 0.9419935000005353, 1.167200200001389, 1.3921990000017104]"	6	"[0.319522900001175, 0.5030069000022195, 0.7195673000023817, 0.9362274000013713, 1.1614403000021412, 1.3864313000012771]"	"[0.4276863000013691, 0.6111135999999533, 0.8277244999990216, 1.0528329000007943, 1.2694513000024017, 1.5028076999988116]"	179.01993909999874	179.03387790000124	180.52571190000162									10	02	2024-02-06_16h13.56.817	BART_exp	2023.2.3	119.97024738079782	2024-02-06 16h14.13.914072 +0100	
balloon.png	40	0	3	3	9	180.54234650000217													180.52588359999936	180.54234650000217	180.54234650000217	180.54234650000217	180.54234650000217	180.54234650000217	0.007192799999756971	0.007192799999756971	0.007192799999756971	180.54234650000217	184.64413810000042	5	0.25	False	"[0.001851851851851852, 0.001851851851851852, 0.001851851851851852, 0.001851851851851852, 0.001851851851851852, 0.001851851851851852]"	"[-0.38425925925925924, -0.38425925925925924, -0.38425925925925924, -0.38425925925925924, -0.38425925925925924, -0.38425925925925924]"	"[1, 1, 1, 1, 1, 0]"	"[0, 0, 0, 0, 0, 0]"	"[0, 0, 0, 0, 0, 1]"	"[0.62568139999712, 1.158959299998969, 1.9925169999987702, 2.8257699999994657, 3.5591762000003655, 4.117354300000443]"	6	"[0.6152915000020585, 1.1485666000007768, 1.9821279999996477, 2.8153820000006817, 3.5487902000022586, 4.106901099999959]"	"[0.7816887000008137, 1.2983013000011852, 2.140122299999348, 2.9567313000006834, 3.706812500000524, 4.10690539999996]"	184.64482150000185	184.65092070000173	186.14291349999985	186.16769560000103								10	02	2024-02-06_16h13.56.817	BART_exp	2023.2.3	119.97024738079782	2024-02-06 16h14.13.914072 +0100	
balloon.png	36	0	4	4	8	186.16769560000103													186.1430915000019	186.16769560000103	186.16769560000103	186.16769560000103	186.16769560000103	186.16769560000103	-0.00045930000123917125	-0.00045930000123917125	-0.00045930000123917125	186.16769560000103	193.45316029999958	21	1.05	False	"[0.001851851851851852, 0.001851851851851852, 0.001851851851851852, 0.001851851851851852, 0.001851851851851852, 0.001851851851851852, 0.001851851851851852, 0.001851851851851852, 0.001851851851851852, 0.001851851851851852, 0.001851851851851852, 0.001851851851851852, 0.001851851851851852, 0.001851851851851852, 0.001851851851851852, 0.001851851851851852, 0.001851851851851852, 0.001851851851851852, 0.001851851851851852, 0.001851851851851852, 0.001851851851851852, 0.001851851851851852]"	"[-0.38425925925925924, -0.38425925925925924, -0.38425925925925924, -0.38425925925925924, -0.38425925925925924, -0.38425925925925924, -0.38425925925925924, -0.38425925925925924, -0.38425925925925924, -0.38425925925925924, -0.38425925925925924, -0.38425925925925924, -0.38425925925925924, -0.38425925925925924, -0.38425925925925924, -0.38425925925925924, -0.38425925925925924, -0.38425925925925924, -0.38425925925925924, -0.38425925925925924, -0.38425925925925924, -0.38425925925925924]"	"[1, 1, 1, 1, 1, 1, 1, 1, 1, 1, 1, 1, 1, 1, 1, 1, 1, 1, 1, 1, 1, 0]"	"[0, 0, 0, 0, 0, 0, 0, 0, 0, 0, 0, 0, 0, 0, 0, 0, 0, 0, 0, 0, 0, 0]"	"[0, 0, 0, 0, 0, 0, 0, 0, 0, 0, 0, 0, 0, 0, 0, 0, 0, 0, 0, 0, 0, 1]"	"[0.4752870999982406, 0.7505141000001458, 1.042119099998672, 1.3255094999985886, 1.633836799999699, 1.9170192999990832, 2.2172100999996474, 2.4754022999986773, 2.7422146999997494, 3.0005789999995613, 3.2424357999989297, 3.7171626999988803, 4.009134600000834, 4.234016400001565, 4.458909199998743, 4.700587100000121, 4.925556400001369, 5.333928100000776, 5.68396120000034, 6.117314700000861, 6.792515100001765, 7.309151000001293]"	22	"[0.46180010000171023, 0.7370244000012462, 1.0286372000009578, 1.3120181000012963, 1.620344800001476, 1.90352840000196, 2.203719600001932, 2.461911800000962, 2.7287170000017795, 2.9870819999996456, 3.228939700002229, 3.70366869999998, 3.9956535000019358, 4.220520400001988, 4.445415500002127, 4.687093800002913, 4.912063700001454, 5.320431600001029, 5.670465000002878, 6.103817600000184, 6.779024400002527, 7.29559060000247]"	"[0.6116278000008606, 0.8783084000024246, 1.1616587999997137, 1.4200175000005402, 1.7700723000016296, 2.028380300002027, 2.3284041000006255, 2.5784695000002102, 2.8618012000006274, 3.1117966000019806, 3.5368538000002445, 3.83695760000046, 4.095497300000716, 4.320208700002695, 4.553587100002915, 4.7703321000008145, 5.020285300000978, 5.47031600000264, 5.770316500002082, 6.228673400000844, 6.903727200002322, 7.295594800001709]"	193.45416449999902	193.45987669999886	194.95182940000086	194.96829530000105								10	02	2024-02-06_16h13.56.817	BART_exp	2023.2.3	119.97024738079782	2024-02-06 16h14.13.914072 +0100	
balloon.png	71	0	5	5	16	194.96829530000105													194.95200960000147	194.96829530000105	194.96829530000105	194.96829530000105	194.96829530000105	194.96829530000105	-0.0009046000013768207	-0.0009046000013768207	-0.0009046000013768207	194.96829530000105	206.06222740000158	33	1.65	False	"[0.001851851851851852, 0.001851851851851852, 0.001851851851851852, 0.001851851851851852, 0.001851851851851852, 0.001851851851851852, 0.001851851851851852, 0.001851851851851852, 0.001851851851851852, 0.001851851851851852, 0.001851851851851852, 0.001851851851851852, 0.001851851851851852, 0.001851851851851852, 0.001851851851851852, 0.001851851851851852, 0.001851851851851852, 0.001851851851851852, 0.001851851851851852, 0.001851851851851852, 0.001851851851851852, 0.001851851851851852, 0.001851851851851852, 0.001851851851851852, 0.001851851851851852, 0.001851851851851852, 0.001851851851851852, 0.001851851851851852, 0.001851851851851852, 0.001851851851851852, 0.001851851851851852, 0.001851851851851852, 0.001851851851851852, 0.001851851851851852]"	"[-0.38425925925925924, -0.38425925925925924, -0.38425925925925924, -0.38425925925925924, -0.38425925925925924, -0.38425925925925924, -0.38425925925925924, -0.38425925925925924, -0.38425925925925924, -0.38425925925925924, -0.38425925925925924, -0.38425925925925924, -0.38425925925925924, -0.38425925925925924, -0.38425925925925924, -0.38425925925925924, -0.38425925925925924, -0.38425925925925924, -0.38425925925925924, -0.38425925925925924, -0.38425925925925924, -0.38425925925925924, -0.38425925925925924, -0.38425925925925924, -0.38425925925925924, -0.38425925925925924, -0.38425925925925924, -0.38425925925925924, -0.38425925925925924, -0.38425925925925924, -0.38425925925925924, -0.38425925925925924, -0.38425925925925924, -0.38425925925925924]"	"[1, 1, 1, 1, 1, 1, 1, 1, 1, 1, 1, 1, 1, 1, 1, 1, 1, 1, 1, 1, 1, 1, 1, 1, 1, 1, 1, 1, 1, 1, 1, 1, 1, 0]"	"[0, 0, 0, 0, 0, 0, 0, 0, 0, 0, 0, 0, 0, 0, 0, 0, 0, 0, 0, 0, 0, 0, 0, 0, 0, 0, 0, 0, 0, 0, 0, 0, 0, 0]"	"[0, 0, 0, 0, 0, 0, 0, 0, 0, 0, 0, 0, 0, 0, 0, 0, 0, 0, 0, 0, 0, 0, 0, 0, 0, 0, 0, 0, 0, 0, 0, 0, 0, 1]"	"[0.35045549999995274, 0.6088075000006938, 0.8586775000003399, 1.2753755999983696, 1.492079299998295, 1.7005035999973188, 1.900438499997108, 2.258767799998168, 2.5672630999979447, 2.9922960000003513, 3.350670399999217, 3.6338619999987714, 3.9673685999987356, 4.184039299998403, 4.417435299998033, 4.667260300000635, 4.9007142999980715, 5.192601599999762, 5.7006449999971665, 6.075713799997175, 6.38420319999932, 6.734255100000155, 7.160660199999256, 7.467444300000352, 7.734451500000432, 8.009166699997877, 8.250832399997307, 8.659187299999758, 8.984382799997547, 9.26756629999727, 9.484237399999984, 9.75114190000022, 10.584484599999996, 11.10933759999898]"	34	"[0.34563530000014, 0.6039870999993582, 0.853847999998834, 1.2705453999988094, 1.487255299998651, 1.6956785000002128, 1.8956288000008499, 2.253937400000723, 2.562437600001431, 2.9874717999991844, 3.345845299998473, 3.629031299999042, 3.962538299998414, 4.179209199999605, 4.412604699999065, 4.662433900000906, 4.895884300000034, 5.187781600001472, 5.695815099999891, 6.070886199999222, 6.379374299998744, 6.729430300001695, 7.156003399999463, 7.462621200000285, 7.729623999999603, 8.004338999999163, 8.246005799999693, 8.654357499999605, 8.97956129999875, 9.262741099999403, 9.479408499999408, 9.746323100000154, 10.579654400000436, 11.104442500000005]"	"[0.4786521999994875, 0.7120226000006369, 0.9620278000002145, 1.3538071000002674, 1.578740299999481, 1.7870770000008633, 2.0120897999986482, 2.387163600000349, 2.670505999998568, 3.0871492000005674, 3.4623183000003337, 3.737351600000693, 4.095614800000476, 4.295646099999431, 4.528966500001843, 4.745615600000747, 5.004039100000227, 5.329008100001374, 5.812338700001419, 6.17903170000136, 6.520730600001116, 6.8791177999992215, 7.27077410000129, 7.5874777999997605, 7.8708769000004395, 8.112547600001562, 8.354192899998452, 8.787551500001427, 9.120913400001882, 9.37098319999859, 9.579269500001828, 9.904357700001128, 10.687720599999011, 11.104446699999244]"	206.06337030000213	206.06910000000062	207.56106290000025	207.57749609999883								10	02	2024-02-06_16h13.56.817	BART_exp	2023.2.3	119.97024738079782	2024-02-06 16h14.13.914072 +0100	
balloon.png	49	0	6	6	11	207.57749609999883													207.56124629999977	207.57749609999883	207.57749609999883	207.57749609999883	207.57749609999883	207.57749609999883	-0.0008773999979894143	-0.0008773999979894143	-0.0008773999979894143	207.57749609999883	217.87995800000135	41	2.05	False	"[0.001851851851851852, 0.001851851851851852, 0.001851851851851852, 0.001851851851851852, 0.001851851851851852, 0.001851851851851852, 0.001851851851851852, 0.001851851851851852, 0.001851851851851852, 0.001851851851851852, 0.001851851851851852, 0.001851851851851852, 0.001851851851851852, 0.001851851851851852, 0.001851851851851852, 0.001851851851851852, 0.001851851851851852, 0.001851851851851852, 0.001851851851851852, 0.001851851851851852, 0.001851851851851852, 0.001851851851851852, 0.001851851851851852, 0.001851851851851852, 0.001851851851851852, 0.001851851851851852, 0.001851851851851852, 0.001851851851851852, 0.001851851851851852, 0.001851851851851852, 0.001851851851851852, 0.001851851851851852, 0.001851851851851852, 0.001851851851851852, 0.001851851851851852, 0.001851851851851852, 0.001851851851851852, 0.001851851851851852, 0.001851851851851852, 0.001851851851851852, 0.001851851851851852, 0.001851851851851852]"	"[-0.38425925925925924, -0.38425925925925924, -0.38425925925925924, -0.38425925925925924, -0.38425925925925924, -0.38425925925925924, -0.38425925925925924, -0.38425925925925924, -0.38425925925925924, -0.38425925925925924, -0.38425925925925924, -0.38425925925925924, -0.38425925925925924, -0.38425925925925924, -0.38425925925925924, -0.38425925925925924, -0.38425925925925924, -0.38425925925925924, -0.38425925925925924, -0.38425925925925924, -0.38425925925925924, -0.38425925925925924, -0.38425925925925924, -0.38425925925925924, -0.38425925925925924, -0.38425925925925924, -0.38425925925925924, -0.38425925925925924, -0.38425925925925924, -0.38425925925925924, -0.38425925925925924, -0.38425925925925924, -0.38425925925925924, -0.38425925925925924, -0.38425925925925924, -0.38425925925925924, -0.38425925925925924, -0.38425925925925924, -0.38425925925925924, -0.38425925925925924, -0.38425925925925924, -0.38425925925925924]"	"[1, 1, 1, 1, 1, 1, 1, 1, 1, 1, 1, 1, 1, 1, 1, 1, 1, 1, 1, 1, 1, 1, 1, 1, 1, 1, 1, 1, 1, 1, 1, 1, 1, 1, 1, 1, 1, 1, 1, 1, 1, 0]"	"[0, 0, 0, 0, 0, 0, 0, 0, 0, 0, 0, 0, 0, 0, 0, 0, 0, 0, 0, 0, 0, 0, 0, 0, 0, 0, 0, 0, 0, 0, 0, 0, 0, 0, 0, 0, 0, 0, 0, 0, 0, 0]"	"[0, 0, 0, 0, 0, 0, 0, 0, 0, 0, 0, 0, 0, 0, 0, 0, 0, 0, 0, 0, 0, 0, 0, 0, 0, 0, 0, 0, 0, 0, 0, 0, 0, 0, 0, 0, 0, 0, 0, 0, 0, 1]"	"[0.3004158000003372, 0.5420740000008664, 0.7671934999998484, 1.041961099999753, 1.2921166000014637, 1.5588220000026922, 1.7838770000016666, 2.0170474000005925, 2.258703900002729, 2.658738000001904, 2.975581599999714, 3.275435400002607, 3.4839238000022306, 3.6756124000021373, 3.8755118000008224, 4.092156000002433, 4.293716600001062, 4.517362000002322, 4.759050300002855, 5.0007009000000835, 5.225613300000987, 5.467265200000838, 5.692421800002194, 5.91745230000015, 6.1425276000009035, 6.367592300000979, 6.692503400001442, 6.93419189999986, 7.184236900000542, 7.484120700002677, 7.717587300001469, 7.925924000002851, 8.14261439999973, 8.334277500001917, 8.567648100000952, 8.767650500001764, 8.975984300002892, 9.167677700002969, 9.417548000001261, 9.659343200000876, 9.892891999999847, 10.317783400001645]"	41	"[0.29525509999803035, 0.5369124999997439, 0.7620324999988952, 1.0367974000000686, 1.2869548999988183, 1.5536548999989463, 1.7787121000001207, 2.0118844999997236, 2.2535439999992377, 2.6535765000007814, 2.970418699998845, 3.262037500000588, 3.47876339999857, 3.6704554999996617, 3.8703451000001223, 4.288723699999537, 4.512202999998408, 4.7538850999990245, 4.995535300000483, 5.220450099997834, 5.462102599998616, 5.687258399997518, 5.912293199999112, 6.137362499997835, 6.362432899997657, 6.687336899998627, 6.929024599998229, 7.179081999998743, 7.478958699997747, 7.712423900000431, 7.920758500000375, 8.137449300000299, 8.32911619999868, 8.562486499999068, 8.762486799998442, 8.970823299998301, 9.162510800000746, 9.4123854999998, 9.654182099999161, 9.887733299998217, 10.312555900000007]"	"[0.411640800000896, 0.6450082999981532, 0.8783633999992162, 1.153325200000836, 1.4616863000010198, 1.6533481999977084, 1.8783911999998963, 2.1034297999976843, 2.3784207999997307, 2.786798400000407, 3.1368288999983633, 3.378504399999656, 3.5618243999997503, 3.786819999997533, 4.186883599999419, 4.395219899997755, 4.628566999999748, 4.870253999997658, 5.0952944999989995, 5.328755899998214, 5.5452872999994725, 5.787022699998488, 6.011975400000665, 6.237041899999895, 6.462050699999963, 6.75369850000061, 7.037050899998576, 7.245417999998608, 7.620472700000391, 7.820440699997562, 8.028786200000468, 8.262186899999506, 8.437298699998792, 8.637214499998663, 8.862317899998743, 9.070585599998594, 9.29559159999917, 9.528875600000902, 9.77897590000066, 10.003924500000721, 10.312560099999246]"	217.88139460000093	217.88653590000104	219.3785042999989	219.3866369999996								10	02	2024-02-06_16h13.56.817	BART_exp	2023.2.3	119.97024738079782	2024-02-06 16h14.13.914072 +0100	
balloon.png	10	0	7	7	2	219.3866369999996													219.37868220000018	219.3866369999996	219.3866369999996	219.3866369999996	219.3866369999996	219.3866369999996	0.0053030000017315615	0.0053030000017315615	0.0053030000017315615	219.3866369999996	221.95534150000094	11	0.50	True	"[0.001851851851851852, 0.001851851851851852, 0.001851851851851852, 0.001851851851851852, 0.001851851851851852, 0.001851851851851852, 0.001851851851851852, 0.001851851851851852, 0.001851851851851852, 0.001851851851851852, 0.001851851851851852]"	"[-0.38425925925925924, -0.38425925925925924, -0.38425925925925924, -0.38425925925925924, -0.38425925925925924, -0.38425925925925924, -0.38425925925925924, -0.38425925925925924, -0.38425925925925924, -0.38425925925925924, -0.38425925925925924]"	"[1, 1, 1, 1, 1, 1, 1, 1, 1, 1, 1]"	"[0, 0, 0, 0, 0, 0, 0, 0, 0, 0, 0]"	"[0, 0, 0, 0, 0, 0, 0, 0, 0, 0, 0]"	"[0.3087872999967658, 0.5254628000002413, 0.7422855999975582, 0.9753619999974035, 1.192029799996817, 1.425365299997793, 1.6087122999997518, 1.8087132000000565, 2.008731899997656, 2.2087646999971184, 2.4922682999967947]"	11	"[0.30692139999882784, 0.5235949999987497, 0.7404220999997051, 0.9734912999992957, 1.190166299998964, 1.4234971999976551, 1.606852799999615, 1.8068523999972967, 2.0068673999994644, 2.206894899998588, 2.490404000000126]"	"[0.423299499998393, 0.6399659999988216, 0.8483292999990226, 1.073370199999772, 1.2816762999973434, 1.4983584999972663, 1.706683599997632, 1.8983800999994855, 2.0734220999984245, 2.273417899999913, 2.5650998999990406]"	221.95612809999875	221.96185270000205	223.45381949999864	223.47024629999942								10	02	2024-02-06_16h13.56.817	BART_exp	2023.2.3	119.97024738079782	2024-02-06 16h14.13.914072 +0100	
balloon.png	97	0	8	8	22	223.47024629999942													223.45399290000205	223.47024629999942	223.47024629999942	223.47024629999942	223.47024629999942	223.47024629999942	-0.0008575000028940849	-0.0008575000028940849	-0.0008575000028940849	223.47024629999942	226.0221132000006	7	0.35	False	"[0.001851851851851852, 0.001851851851851852, 0.001851851851851852, 0.001851851851851852, 0.001851851851851852, 0.001851851851851852, 0.001851851851851852, 0.001851851851851852]"	"[-0.38425925925925924, -0.38425925925925924, -0.38425925925925924, -0.38425925925925924, -0.38425925925925924, -0.38425925925925924, -0.38425925925925924, -0.38425925925925924]"	"[1, 1, 1, 1, 1, 1, 1, 0]"	"[0, 0, 0, 0, 0, 0, 0, 0]"	"[0, 0, 0, 0, 0, 0, 0, 1]"	"[0.45043929999883403, 0.7002948999979708, 0.9169695999989926, 1.1588000999981887, 1.375573199999053, 1.7921696999983396, 2.1420561999984784, 2.567212499998277]"	8	"[0.44777560000147787, 0.6976290000020526, 0.9143011000014667, 1.1561379000013403, 1.372914800002036, 1.7895045000004757, 2.139393100002053, 2.564480700002605]"	"[0.5641888000027393, 0.7891460000028019, 1.014169000001857, 1.2475389000028372, 1.480878300000768, 1.8975456000007398, 2.206017200001952, 2.564484700000321]"	226.02284230000078	226.0287645999997	227.52071010000145	227.53719410000122								10	02	2024-02-06_16h13.56.817	BART_exp	2023.2.3	119.97024738079782	2024-02-06 16h14.13.914072 +0100	
balloon.png	27	0	9	9	6	227.53719410000122													227.52088490000096	227.53719410000122	227.53719410000122	227.53719410000122	227.53719410000122	227.53719410000122	-0.0007226999987324234	-0.0007226999987324234	-0.0007226999987324234	227.53719410000122	230.99742700000206	12	0.60	False	"[0.001851851851851852, 0.001851851851851852, 0.001851851851851852, 0.001851851851851852, 0.001851851851851852, 0.001851851851851852, 0.001851851851851852, 0.001851851851851852, 0.001851851851851852, 0.001851851851851852, 0.001851851851851852, 0.001851851851851852, 0.001851851851851852]"	"[-0.38425925925925924, -0.38425925925925924, -0.38425925925925924, -0.38425925925925924, -0.38425925925925924, -0.38425925925925924, -0.38425925925925924, -0.38425925925925924, -0.38425925925925924, -0.38425925925925924, -0.38425925925925924, -0.38425925925925924, -0.38425925925925924]"	"[1, 1, 1, 1, 1, 1, 1, 1, 1, 1, 1, 1, 0]"	"[0, 0, 0, 0, 0, 0, 0, 0, 0, 0, 0, 0, 0]"	"[0, 0, 0, 0, 0, 0, 0, 0, 0, 0, 0, 0, 1]"	"[0.317264500001329, 0.5589909000009357, 0.7588799000004656, 0.9755267000000458, 1.1756029999996827, 1.3922196999992593, 1.7589322999992874, 1.967266899999231, 2.1589347000008274, 2.525685799999337, 2.8755286000014166, 3.0838686999995844, 3.4756398999998055]"	13	"[0.3117415999986406, 0.5534866000016336, 0.7533560000010766, 0.9700013000001491, 1.1700815000003786, 1.3866961999992782, 1.7534204000003228, 1.9617450000005192, 2.153409599999577, 2.5201597000013862, 2.87000320000152, 3.0783387000010407, 3.4700505000000703]"	"[0.428026099998533, 0.6696649000004982, 0.8696985999995377, 1.0780311999988044, 1.261381899999833, 1.4614513000014995, 1.844738399999187, 2.053087600001163, 2.236525600001187, 2.636456600001111, 2.9614976000011666, 3.169847299999674, 3.4700546999993094]"	230.99907290000192	231.01243629999954	232.50423850000152									10	02	2024-02-06_16h13.56.817	BART_exp	2023.2.3	119.97024738079782	2024-02-06 16h14.13.914072 +0100	
balloon.png	14	0	10	10	3	232.52923419999934													232.50440819999858	232.52923419999934	232.52923419999934	232.52923419999934	232.52923419999934	232.52923419999934	0.006567000000359258	0.006567000000359258	0.006567000000359258	232.52923419999934	236.65645159999985	15	0.70	True	"[0.001851851851851852, 0.001851851851851852, 0.001851851851851852, 0.001851851851851852, 0.001851851851851852, 0.001851851851851852, 0.001851851851851852, 0.001851851851851852, 0.001851851851851852, 0.001851851851851852, 0.001851851851851852, 0.001851851851851852, 0.001851851851851852, 0.001851851851851852, 0.001851851851851852]"	"[-0.38425925925925924, -0.38425925925925924, -0.38425925925925924, -0.38425925925925924, -0.38425925925925924, -0.38425925925925924, -0.38425925925925924, -0.38425925925925924, -0.38425925925925924, -0.38425925925925924, -0.38425925925925924, -0.38425925925925924, -0.38425925925925924, -0.38425925925925924, -0.38425925925925924]"	"[1, 1, 1, 1, 1, 1, 1, 1, 1, 1, 1, 1, 1, 1, 1]"	"[0, 0, 0, 0, 0, 0, 0, 0, 0, 0, 0, 0, 0, 0, 0]"	"[0, 0, 0, 0, 0, 0, 0, 0, 0, 0, 0, 0, 0, 0, 0]"	"[0.3506435999988753, 0.6171829999984766, 0.8588922999988426, 1.1006446999999753, 1.3507386999990558, 1.5590426999988267, 1.7757325999991735, 2.0257010999994236, 2.2673326000003726, 2.500736499998311, 2.743896500000119, 2.967491699997481, 3.2091908999973384, 3.7425320999973337, 4.009081399999559]"	15	"[0.3383940999992774, 0.604933999999048, 0.8466429000000062, 1.088396200000716, 1.3384875000010652, 1.5467900000003283, 1.7634839999991527, 2.0134494000012637, 2.2550900999995065, 2.488485900001251, 2.7318068999993557, 2.9552398000014364, 3.1969441000001098, 3.730281300002389, 3.996833199998946]"	"[0.47142580000218004, 0.7214463999989675, 0.9549573000003875, 1.2132639000010386, 1.4464846000009857, 1.6548760000005132, 1.8632529000024078, 2.113224900000205, 2.388236400001915, 2.604896299999382, 2.8632503000008, 3.071592899999814, 3.3383565000003728, 3.871652500001801, 4.130012600002374]"	236.65724450000198	236.66285359999893	238.15481740000178	238.1796018999994								10	02	2024-02-06_16h13.56.817	BART_exp	2023.2.3	119.97024738079782	2024-02-06 16h14.13.914072 +0100	
balloon.png	18	0	11	11	4	238.1796018999994													238.15500429999884	238.1796018999994	238.1796018999994	238.1796018999994	238.1796018999994	238.1796018999994	-0.0009183000001939945	-0.0009183000001939945	-0.0009183000001939945	238.1796018999994	239.47305210000195	3	0.15	False	"[0.001851851851851852, 0.001851851851851852, 0.001851851851851852, 0.001851851851851852]"	"[-0.38425925925925924, -0.38425925925925924, -0.38425925925925924, -0.38425925925925924]"	"[1, 1, 1, 0]"	"[0, 0, 0, 0]"	"[0, 0, 0, 1]"	"[0.3087531000019226, 0.5586432999989484, 0.8182640999984869, 1.3171277000001282]"	4	"[0.29721710000012536, 0.5471063000004506, 0.8068863000007696, 1.3055315999990853]"	"[0.421930100001191, 0.6387218999989273, 0.8886057999989134, 1.305535700001201]"	239.4736324000005	239.47968350000156	240.97163010000077	240.98811900000146								10	02	2024-02-06_16h13.56.817	BART_exp	2023.2.3	119.97024738079782	2024-02-06 16h14.13.914072 +0100	
balloon.png	66	0	12	12	15	240.98811900000146													240.9718036000013	240.98811900000146	240.98811900000146	240.98811900000146	240.98811900000146	240.98811900000146	-0.0005735999984608497	-0.0005735999984608497	-0.0005735999984608497	240.98811900000146	244.78182219999871	11	0.55	False	"[0.001851851851851852, 0.001851851851851852, 0.001851851851851852, 0.001851851851851852, 0.001851851851851852, 0.001851851851851852, 0.001851851851851852, 0.001851851851851852, 0.001851851851851852, 0.001851851851851852, 0.001851851851851852, 0.001851851851851852]"	"[-0.38425925925925924, -0.38425925925925924, -0.38425925925925924, -0.38425925925925924, -0.38425925925925924, -0.38425925925925924, -0.38425925925925924, -0.38425925925925924, -0.38425925925925924, -0.38425925925925924, -0.38425925925925924, -0.38425925925925924]"	"[1, 1, 1, 1, 1, 1, 1, 1, 1, 1, 1, 0]"	"[0, 0, 0, 0, 0, 0, 0, 0, 0, 0, 0, 0]"	"[0, 0, 0, 0, 0, 0, 0, 0, 0, 0, 0, 1]"	"[0.33383300000059535, 0.6086824000012712, 0.8588349000019662, 1.0922741000031237, 1.3338921000031405, 1.7587594000033278, 1.9754936000026646, 2.3671312000005855, 2.5921619000000646, 2.9602212000027066, 3.3838640000030864, 3.8091066000015417]"	12	"[0.3292449000000488, 0.604082699999708, 0.8542328000003181, 1.0876782999985153, 1.3292956999976013, 1.7541635999987193, 1.9708972999978869, 2.3625303999979224, 2.5875597999984166, 2.9557955999989645, 3.3792670000002545, 3.8044468999978562]"	"[0.47057610000047134, 0.728933499998675, 0.9707042999980331, 1.195892100000492, 1.4206401999981608, 1.8457108000002336, 2.045677499998419, 2.4623968999985664, 2.645729500000016, 3.079086499998084, 3.4624382000001788, 3.8044511999978567]"	244.7826356000005	244.78840010000204	246.2803367000015	246.29681079999864								10	02	2024-02-06_16h13.56.817	BART_exp	2023.2.3	119.97024738079782	2024-02-06 16h14.13.914072 +0100	
balloon.png	53	0	13	13	12	246.29681079999864													246.28051720000076	246.29681079999864	246.29681079999864	246.29681079999864	246.29681079999864	246.29681079999864	-0.0008653000004414935	-0.0008653000004414935	-0.0008653000004414935	246.29681079999864	250.3990072000015	13	0.65	False	"[0.001851851851851852, 0.001851851851851852, 0.001851851851851852, 0.001851851851851852, 0.001851851851851852, 0.001851851851851852, 0.001851851851851852, 0.001851851851851852, 0.001851851851851852, 0.001851851851851852, 0.001851851851851852, 0.001851851851851852, 0.001851851851851852, 0.001851851851851852]"	"[-0.38425925925925924, -0.38425925925925924, -0.38425925925925924, -0.38425925925925924, -0.38425925925925924, -0.38425925925925924, -0.38425925925925924, -0.38425925925925924, -0.38425925925925924, -0.38425925925925924, -0.38425925925925924, -0.38425925925925924, -0.38425925925925924, -0.38425925925925924]"	"[1, 1, 1, 1, 1, 1, 1, 1, 1, 1, 1, 1, 1, 0]"	"[0, 0, 0, 0, 0, 0, 0, 0, 0, 0, 0, 0, 0, 0]"	"[0, 0, 0, 0, 0, 0, 0, 0, 0, 0, 0, 0, 0, 1]"	"[0.3004116000010981, 0.5504839999994147, 0.7838224000006448, 1.0088308000013058, 1.275493600001937, 1.5671982999992906, 1.8087923000020965, 2.075408000000607, 2.3922717000023113, 2.6754617000005965, 2.9256649000017205, 3.417197099999612, 3.7173373000005085, 4.117501900000207]"	14	"[0.2941276999990805, 0.5442016000015428, 0.7775363000000652, 1.0025501999989501, 1.2692133000018657, 1.5609163000008266, 1.8025191000015184, 2.0691193000020576, 2.385993600000802, 2.669183999998495, 2.9193799999993644, 3.4109161000014865, 3.711050800000521, 4.1111650000020745]"	"[0.42720230000122683, 0.6605525000013586, 0.8772463999994216, 1.1022441999994044, 1.3189268999994965, 1.6774265999993077, 1.8939556000004814, 2.2189938000010443, 2.510678300001018, 2.760706900000514, 3.027377099999285, 3.5357523999991827, 3.8357877000016742, 4.111169300002075]"	250.39998109999942	250.40543790000083	251.89740840000013	251.9055582000001								10	02	2024-02-06_16h13.56.817	BART_exp	2023.2.3	119.97024738079782	2024-02-06 16h14.13.914072 +0100	
balloon.png	114	0	14	14	26	251.9055582000001													251.89758939999956	251.9055582000001	251.9055582000001	251.9055582000001	251.9055582000001	251.9055582000001	0.005639200000587152	0.005639200000587152	0.005639200000587152	251.9055582000001	258.0160250000008	18	0.90	False	"[0.001851851851851852, 0.001851851851851852, 0.001851851851851852, 0.001851851851851852, 0.001851851851851852, 0.001851851851851852, 0.001851851851851852, 0.001851851851851852, 0.001851851851851852, 0.001851851851851852, 0.001851851851851852, 0.001851851851851852, 0.001851851851851852, 0.001851851851851852, 0.001851851851851852, 0.001851851851851852, 0.001851851851851852, 0.001851851851851852, 0.001851851851851852]"	"[-0.38425925925925924, -0.38425925925925924, -0.38425925925925924, -0.38425925925925924, -0.38425925925925924, -0.38425925925925924, -0.38425925925925924, -0.38425925925925924, -0.38425925925925924, -0.38425925925925924, -0.38425925925925924, -0.38425925925925924, -0.38425925925925924, -0.38425925925925924, -0.38425925925925924, -0.38425925925925924, -0.38425925925925924, -0.38425925925925924, -0.38425925925925924]"	"[1, 1, 1, 1, 1, 1, 1, 1, 1, 1, 1, 1, 1, 1, 1, 1, 1, 1, 0]"	"[0, 0, 0, 0, 0, 0, 0, 0, 0, 0, 0, 0, 0, 0, 0, 0, 0, 0, 0]"	"[0, 0, 0, 0, 0, 0, 0, 0, 0, 0, 0, 0, 0, 0, 0, 0, 0, 0, 1]"	"[0.4335974999994505, 0.6419524999982968, 0.8336242999976093, 1.058637699999963, 1.2505630999985442, 1.4670022999998764, 1.7004942999992636, 1.9255926000005275, 2.1338734999990265, 2.358872799999517, 2.700581900000543, 3.033949099997699, 3.292473699999391, 3.600792299999739, 4.000497699998959, 4.642215399999259, 4.909066199998051, 5.392275899997912, 6.117478699998173]"	19	"[0.4316914999981236, 0.6400472999994236, 0.8317162999992433, 1.0567396999977063, 1.2486580000004324, 1.4650958999991417, 1.6985894999997981, 1.923687999998947, 2.131973100000323, 2.356973599999037, 2.69867560000057, 3.032051700000011, 3.2905697999995027, 3.598888500000612, 3.9985879999985627, 4.6403167999997095, 4.907162499999686, 5.390374700000393, 6.115509299997939]"	"[0.5398973999981536, 0.7315777999974671, 0.9400867999975162, 1.1483642999992298, 1.3399562999984482, 1.5732745999994222, 1.8150238999987778, 2.031656799998018, 2.248321600000054, 2.464996399998199, 2.8150444999992033, 3.1400943999979063, 3.406723600000987, 3.7484283999983745, 4.148464800000511, 4.806882799999585, 5.03185079999821, 5.548600800000713, 6.115513299999293]"	258.01707389999865	258.02262730000075	259.5146186999991	259.5393933000014								10	02	2024-02-06_16h13.56.817	BART_exp	2023.2.3	119.97024738079782	2024-02-06 16h14.13.914072 +0100	
balloon.png	110	0	15	15	25	259.5393933000014													259.5148021999994	259.5393933000014	259.5393933000014	259.5393933000014	259.5393933000014	259.5393933000014	-0.0009934999980032444	-0.0009934999980032444	-0.0009934999980032444	259.5393933000014	266.1998875999998	24	1.20	False	"[0.001851851851851852, 0.001851851851851852, 0.001851851851851852, 0.001851851851851852, 0.001851851851851852, 0.001851851851851852, 0.001851851851851852, 0.001851851851851852, 0.001851851851851852, 0.001851851851851852, 0.001851851851851852, 0.001851851851851852, 0.001851851851851852, 0.001851851851851852, 0.001851851851851852, 0.001851851851851852, 0.001851851851851852, 0.001851851851851852, 0.001851851851851852, 0.001851851851851852, 0.001851851851851852, 0.001851851851851852, 0.001851851851851852, 0.001851851851851852, 0.001851851851851852]"	"[-0.38425925925925924, -0.38425925925925924, -0.38425925925925924, -0.38425925925925924, -0.38425925925925924, -0.38425925925925924, -0.38425925925925924, -0.38425925925925924, -0.38425925925925924, -0.38425925925925924, -0.38425925925925924, -0.38425925925925924, -0.38425925925925924, -0.38425925925925924, -0.38425925925925924, -0.38425925925925924, -0.38425925925925924, -0.38425925925925924, -0.38425925925925924, -0.38425925925925924, -0.38425925925925924, -0.38425925925925924, -0.38425925925925924, -0.38425925925925924, -0.38425925925925924]"	"[1, 1, 1, 1, 1, 1, 1, 1, 1, 1, 1, 1, 1, 1, 1, 1, 1, 1, 1, 1, 1, 1, 1, 1, 0]"	"[0, 0, 0, 0, 0, 0, 0, 0, 0, 0, 0, 0, 0, 0, 0, 0, 0, 0, 0, 0, 0, 0, 0, 0, 0]"	"[0, 0, 0, 0, 0, 0, 0, 0, 0, 0, 0, 0, 0, 0, 0, 0, 0, 0, 0, 0, 0, 0, 0, 0, 1]"	"[0.3253623999989941, 0.5669272000013734, 0.7670953999986523, 0.9586215999988781, 1.1671606000018073, 1.3669814999993832, 1.5836339000015869, 1.7919920999993337, 2.117319699998916, 2.3505149000011443, 2.542206099999021, 2.7338675999999396, 3.092269699998724, 3.3339148000013665, 3.52559520000068, 3.742330500001117, 3.96717340000032, 4.342308399998728, 4.817202599999291, 5.317388499999652, 5.608998899999278, 5.842788599999039, 6.0507491999997, 6.275807099998929, 6.684137100000953]"	25	"[0.31355919999987236, 0.5551252000004752, 0.755291199999192, 0.9468210999984876, 1.1553547000003164, 1.3551783000002615, 1.5718253999984881, 1.7801900999984355, 2.10551950000081, 2.3387059999986377, 2.530413000000408, 2.722061100001156, 3.0804657000007865, 3.32210699999996, 3.5137918000000354, 3.730525899998611, 3.955375900000945, 4.330504599998676, 4.805401800000254, 5.30558530000053, 5.597204199999396, 5.8309837999986485, 6.03894930000024, 6.2640016000004834, 6.672272100000555]"	"[0.40498200000001816, 0.6216410999986692, 0.8299995999987004, 1.0383144000006723, 1.2551587000016298, 1.4800910999983898, 1.6967083000017738, 1.8883973000010883, 2.21350750000056, 2.4218403000013495, 2.638452800001687, 2.8301600000013423, 3.2218132999987574, 3.430214200001501, 3.6134979000016756, 3.8052408000003197, 4.038530300000275, 4.430316000001767, 4.96357480000006, 5.430400900000677, 5.721974100000807, 5.897106799999165, 6.130356900001061, 6.380444999998872, 6.6722761999990325]"	266.2010561999996	266.2065915000021	267.69848790000106	267.7066181000009								10	02	2024-02-06_16h13.56.817	BART_exp	2023.2.3	119.97024738079782	2024-02-06 16h14.13.914072 +0100	
balloon.png	44	0	16	16	10	267.7066181000009													267.69866470000125	267.7066181000009	267.7066181000009	267.7066181000009	267.7066181000009	267.7066181000009	0.005623500001092907	0.005623500001092907	0.005623500001092907	267.7066181000009	276.66709679999985	32	1.60	False	"[0.001851851851851852, 0.001851851851851852, 0.001851851851851852, 0.001851851851851852, 0.001851851851851852, 0.001851851851851852, 0.001851851851851852, 0.001851851851851852, 0.001851851851851852, 0.001851851851851852, 0.001851851851851852, 0.001851851851851852, 0.001851851851851852, 0.001851851851851852, 0.001851851851851852, 0.001851851851851852, 0.001851851851851852, 0.001851851851851852, 0.001851851851851852, 0.001851851851851852, 0.001851851851851852, 0.001851851851851852, 0.001851851851851852, 0.001851851851851852, 0.001851851851851852, 0.001851851851851852, 0.001851851851851852, 0.001851851851851852, 0.001851851851851852, 0.001851851851851852, 0.001851851851851852, 0.001851851851851852, 0.001851851851851852]"	"[-0.38425925925925924, -0.38425925925925924, -0.38425925925925924, -0.38425925925925924, -0.38425925925925924, -0.38425925925925924, -0.38425925925925924, -0.38425925925925924, -0.38425925925925924, -0.38425925925925924, -0.38425925925925924, -0.38425925925925924, -0.38425925925925924, -0.38425925925925924, -0.38425925925925924, -0.38425925925925924, -0.38425925925925924, -0.38425925925925924, -0.38425925925925924, -0.38425925925925924, -0.38425925925925924, -0.38425925925925924, -0.38425925925925924, -0.38425925925925924, -0.38425925925925924, -0.38425925925925924, -0.38425925925925924, -0.38425925925925924, -0.38425925925925924, -0.38425925925925924, -0.38425925925925924, -0.38425925925925924, -0.38425925925925924]"	"[1, 1, 1, 1, 1, 1, 1, 1, 1, 1, 1, 1, 1, 1, 1, 1, 1, 1, 1, 1, 1, 1, 1, 1, 1, 1, 1, 1, 1, 1, 1, 1, 0]"	"[0, 0, 0, 0, 0, 0, 0, 0, 0, 0, 0, 0, 0, 0, 0, 0, 0, 0, 0, 0, 0, 0, 0, 0, 0, 0, 0, 0, 0, 0, 0, 0, 0]"	"[0, 0, 0, 0, 0, 0, 0, 0, 0, 0, 0, 0, 0, 0, 0, 0, 0, 0, 0, 0, 0, 0, 0, 0, 0, 0, 0, 0, 0, 0, 0, 0, 1]"	"[0.2838926000003994, 0.5254820000009204, 0.7088113000027079, 0.8921652999997605, 1.0921800000032817, 1.3005919000024733, 1.508906200000638, 1.7255628000020806, 1.925587200003065, 2.100703500000236, 2.308962099999917, 2.5506349000024784, 2.750788100001955, 3.1256628000010096, 3.392190100003063, 3.600552300002164, 3.8088716000020213, 4.000549300002604, 4.383958400001575, 4.675757100001647, 4.884103500000492, 5.117458400000032, 5.3424790000026405, 5.74252880000131, 6.075887300001341, 6.350726800003031, 6.625722900000255, 7.017484600000898, 7.36745560000054, 7.809143100002984, 8.167531700000836, 8.551007100002607, 8.967546300002141]"	33	"[0.2820446000005177, 0.5236293999987538, 0.7069630000005418, 0.8903174000006402, 1.090326699999423, 1.2987396999997145, 1.5070545999988099, 1.7237117000004218, 1.9237365999979374, 2.0988622000004398, 2.30710629999885, 2.5487845999996352, 2.74893560000055, 3.1238118000001123, 3.3903408000005584, 3.598700499998813, 3.8070206999982474, 3.998703999997815, 4.3821051999984775, 4.673910900000919, 4.882255699998495, 5.1156114999976126, 5.3406274000008125, 5.740680200000497, 6.074032399999851, 6.348872599999595, 6.62386719999995, 7.0156347999982245, 7.365603700000065, 7.807293599998957, 8.165680300000531, 8.549155199998495, 8.96562989999802]"	"[0.398318499999732, 0.6066358999996737, 0.798330800000258, 0.9984062000003178, 1.1733700999975554, 1.3984290000007604, 1.6067153999974835, 1.8151771999982884, 2.006788599999709, 2.2234552999980224, 2.43180239999856, 2.61512319999747, 2.840146700000332, 3.2403000999984215, 3.4818526999988535, 3.6985265000002983, 3.865205399997649, 4.106923799998185, 4.490247899997485, 4.765280199997505, 4.998656399999163, 5.2153268000001844, 5.448659699999553, 5.848708999998053, 6.173724599997513, 6.465417899999011, 6.715405200000532, 7.140440399998624, 7.457183099999384, 7.940474700000777, 8.265580799998133, 8.691991699997743, 8.965634100000898]"	276.6682574000006	276.67393079999965	278.1658620999988	278.1823699999986								10	02	2024-02-06_16h13.56.817	BART_exp	2023.2.3	119.97024738079782	2024-02-06 16h14.13.914072 +0100	
balloon.png	23	0	17	17	5	278.1823699999986													278.1660455000019	278.1823699999986	278.1823699999986	278.1823699999986	278.1823699999986	278.1823699999986	-0.0009486000017204788	-0.0009486000017204788	-0.0009486000017204788	278.1823699999986	284.2097290999991	24	1.15	True	"[0.001851851851851852, 0.001851851851851852, 0.001851851851851852, 0.001851851851851852, 0.001851851851851852, 0.001851851851851852, 0.001851851851851852, 0.001851851851851852, 0.001851851851851852, 0.001851851851851852, 0.001851851851851852, 0.001851851851851852, 0.001851851851851852, 0.001851851851851852, 0.001851851851851852, 0.001851851851851852, 0.001851851851851852, 0.001851851851851852, 0.001851851851851852, 0.001851851851851852, 0.001851851851851852, 0.001851851851851852, 0.001851851851851852, 0.001851851851851852]"	"[-0.38425925925925924, -0.38425925925925924, -0.38425925925925924, -0.38425925925925924, -0.38425925925925924, -0.38425925925925924, -0.38425925925925924, -0.38425925925925924, -0.38425925925925924, -0.38425925925925924, -0.38425925925925924, -0.38425925925925924, -0.38425925925925924, -0.38425925925925924, -0.38425925925925924, -0.38425925925925924, -0.38425925925925924, -0.38425925925925924, -0.38425925925925924, -0.38425925925925924, -0.38425925925925924, -0.38425925925925924, -0.38425925925925924, -0.38425925925925924]"	"[1, 1, 1, 1, 1, 1, 1, 1, 1, 1, 1, 1, 1, 1, 1, 1, 1, 1, 1, 1, 1, 1, 1, 1]"	"[0, 0, 0, 0, 0, 0, 0, 0, 0, 0, 0, 0, 0, 0, 0, 0, 0, 0, 0, 0, 0, 0, 0, 0]"	"[0, 0, 0, 0, 0, 0, 0, 0, 0, 0, 0, 0, 0, 0, 0, 0, 0, 0, 0, 0, 0, 0, 0, 0]"	"[0.28364069999952335, 0.5170446999982232, 0.7086736999990535, 0.9003257999975176, 1.133756600000197, 1.3587700999996741, 1.5838188999987324, 1.800583000000188, 2.0089302999986103, 2.2339488999969035, 2.817137099998945, 3.1254630999974324, 3.3338422999986506, 3.5590241999998398, 3.7423122999971383, 3.958966499998496, 4.192366699997365, 4.425757999997586, 4.650746399998752, 4.892393099999026, 5.292280499998014, 5.533960199998546, 5.700669799996831, 5.9423260999974445]"	24	"[0.2733364999985497, 0.506735099999787, 0.6983607000001939, 0.8900186999999278, 1.1234605999998166, 1.348461399997177, 1.5735093000002962, 1.7902756000003137, 1.9986237999983132, 2.2236491999974533, 2.8068243999987317, 3.1151528999980655, 3.323530399997253, 3.5487192000000505, 3.7320000999970944, 3.94865949999803, 4.182059200000367, 4.415451799999573, 4.640439799997694, 4.8820888999980525, 5.281967299997632, 5.523647499998333, 5.690366999999242, 5.93201869999757]"	"[0.3814948999970511, 0.573167899998225, 0.7648459999982151, 1.014866699999402, 1.214952499998617, 1.4648906999973406, 1.6733668999986548, 1.8982766999979503, 2.1232886999969196, 2.3399508999973477, 2.9316617000004044, 3.198435199999949, 3.4401913000001514, 3.656863099997281, 3.8484922999996343, 4.056763299999147, 4.265129199997318, 4.498448099999223, 4.74929549999797, 4.9902156999996805, 5.390159799997491, 5.590174199998728, 5.79019469999912, 6.0235823999973945]"	284.21087669999906	284.21615419999944	285.7080446	285.71618189999936								10	02	2024-02-06_16h13.56.817	BART_exp	2023.2.3	119.97024738079782	2024-02-06 16h14.13.914072 +0100	
balloon.png	62	0	18	18	14	285.71618189999936													285.70821870000145	285.71618189999936	285.71618189999936	285.71618189999936	285.71618189999936	285.71618189999936	0.005364299999200739			285.71618189999936	288.818097899999	12	0.60	False	"[0.001851851851851852, 0.001851851851851852, 0.001851851851851852, 0.001851851851851852, 0.001851851851851852, 0.001851851851851852, 0.001851851851851852, 0.001851851851851852, 0.001851851851851852, 0.001851851851851852, 0.001851851851851852, 0.001851851851851852, 0.001851851851851852]"	"[-0.38425925925925924, -0.38425925925925924, -0.38425925925925924, -0.38425925925925924, -0.38425925925925924, -0.38425925925925924, -0.38425925925925924, -0.38425925925925924, -0.38425925925925924, -0.38425925925925924, -0.38425925925925924, -0.38425925925925924, -0.38425925925925924]"	"[1, 1, 1, 1, 1, 1, 1, 1, 1, 1, 1, 1, 0]"	"[0, 0, 0, 0, 0, 0, 0, 0, 0, 0, 0, 0, 0]"	"[0, 0, 0, 0, 0, 0, 0, 0, 0, 0, 0, 0, 1]"	"[0.31703510000079405, 0.5589065999993181, 0.7836658999985957, 1.0005065999976068, 1.200407099997392, 1.4255465999995067, 1.6339657999997144, 1.82563079999818, 2.0256626999980654, 2.2422488999982306, 2.4506172000001243, 2.6922861999992165, 3.108967299998767]"	13	"[0.3151536999976088, 0.5570256999999401, 0.781779999997525, 0.9986210999995819, 1.1985252999984368, 1.4236633999971673, 1.632079099999828, 1.82374770000024, 2.0237769999985176, 2.240366499998345, 2.448729799998546, 2.690403699998569, 3.1070174999986193]"	"[0.4149281999998493, 0.6401819999991858, 0.8816552999996929, 1.0733585999987554, 1.2817402000000584, 1.5066862999992736, 1.723393299998861, 1.9233672999980627, 2.1567503999976907, 2.3484620999988692, 2.5650781000003917, 2.7817761999976938, 3.107021599997097]"	288.81884999999966	288.82473240000036	290.31669110000075	290.3331928000007								10	02	2024-02-06_16h13.56.817	BART_exp	2023.2.3	119.97024738079782	2024-02-06 16h14.13.914072 +0100	
balloon.png	75	0	19	19	17	290.3331928000007													290.3168680999988	290.3331928000007	290.3331928000007	290.3331928000007	290.3331928000007	290.3331928000007	-0.0007355999987339601	-0.0007355999987339601	-0.0007355999987339601	290.3331928000007	298.9354506000018	21	1.05	False	"[0.001851851851851852, 0.001851851851851852, 0.001851851851851852, 0.001851851851851852, 0.001851851851851852, 0.001851851851851852, 0.001851851851851852, 0.001851851851851852, 0.001851851851851852, 0.001851851851851852, 0.001851851851851852, 0.001851851851851852, 0.001851851851851852, 0.001851851851851852, 0.001851851851851852, 0.001851851851851852, 0.001851851851851852, 0.001851851851851852, 0.001851851851851852, 0.001851851851851852, 0.001851851851851852, 0.001851851851851852]"	"[-0.38425925925925924, -0.38425925925925924, -0.38425925925925924, -0.38425925925925924, -0.38425925925925924, -0.38425925925925924, -0.38425925925925924, -0.38425925925925924, -0.38425925925925924, -0.38425925925925924, -0.38425925925925924, -0.38425925925925924, -0.38425925925925924, -0.38425925925925924, -0.38425925925925924, -0.38425925925925924, -0.38425925925925924, -0.38425925925925924, -0.38425925925925924, -0.38425925925925924, -0.38425925925925924, -0.38425925925925924]"	"[1, 1, 1, 1, 1, 1, 1, 1, 1, 1, 1, 1, 1, 1, 1, 1, 1, 1, 1, 1, 1, 0]"	"[0, 0, 0, 0, 0, 0, 0, 0, 0, 0, 0, 0, 0, 0, 0, 0, 0, 0, 0, 0, 0, 0]"	"[0, 0, 0, 0, 0, 0, 0, 0, 0, 0, 0, 0, 0, 0, 0, 0, 0, 0, 0, 0, 0, 1]"	"[0.3253413000020373, 0.5503091999999015, 0.7503866000006383, 0.9336749000030977, 1.142027699999744, 1.3253793000003498, 1.5503852000001643, 1.7670981000010215, 1.9670815000026778, 2.2172417000001587, 2.500656300002447, 2.733798900000693, 2.9921513000008417, 3.5018479000027583, 4.042407200002344, 4.917295600000216, 5.417509099999734, 6.000886400001036, 6.534063700000843, 7.167698200002633, 7.750923499999772, 8.617684900000313]"	22	"[0.31567789999826346, 0.5406470999987505, 0.7407253999990644, 0.9240094999986468, 1.1323618999995233, 1.3157185999989451, 1.54071969999859, 1.7574324999986857, 1.9574149000000034, 2.207582099999854, 2.4909936000003654, 2.724138999998104, 2.9824912999974913, 3.4923491999979888, 4.032741799997893, 4.907634399998642, 5.407849699997314, 5.991223999997601, 6.524402899998677, 7.158032299998013, 7.741270599999552, 8.607956600000762]"	"[0.45716510000056587, 0.6322142999997595, 0.8323388999997405, 1.0155701999974553, 1.190546899997571, 1.4238967999990564, 1.6238952999992762, 1.832256800000323, 2.0656228000007104, 2.315630400000373, 2.582334999999148, 2.807367499997781, 3.0990582999984326, 3.6240699000009045, 4.199075699998502, 5.0658010999977705, 5.574173299999529, 6.13257639999938, 6.632597100000567, 7.26600580000013, 7.832678099999612, 8.60796069999924]"	298.93641769999886	298.94209319999936	300.43404550000196	300.45052600000054								10	02	2024-02-06_16h13.56.817	BART_exp	2023.2.3	119.97024738079782	2024-02-06 16h14.13.914072 +0100	
balloon.png	57	0	20	20	13	300.45052600000054													300.43423379999876	300.45052600000054	300.45052600000054	300.45052600000054	300.45052600000054	300.45052600000054	-0.0009152999991783872	-0.0009152999991783872	-0.0009152999991783872	300.45052600000054	309.57770919999894	25	1.25	False	"[0.001851851851851852, 0.001851851851851852, 0.001851851851851852, 0.001851851851851852, 0.001851851851851852, 0.001851851851851852, 0.001851851851851852, 0.001851851851851852, 0.001851851851851852, 0.001851851851851852, 0.001851851851851852, 0.001851851851851852, 0.001851851851851852, 0.001851851851851852, 0.001851851851851852, 0.001851851851851852, 0.001851851851851852, 0.001851851851851852, 0.001851851851851852, 0.001851851851851852, 0.001851851851851852, 0.001851851851851852, 0.001851851851851852, 0.001851851851851852, 0.001851851851851852, 0.001851851851851852]"	"[-0.38425925925925924, -0.38425925925925924, -0.38425925925925924, -0.38425925925925924, -0.38425925925925924, -0.38425925925925924, -0.38425925925925924, -0.38425925925925924, -0.38425925925925924, -0.38425925925925924, -0.38425925925925924, -0.38425925925925924, -0.38425925925925924, -0.38425925925925924, -0.38425925925925924, -0.38425925925925924, -0.38425925925925924, -0.38425925925925924, -0.38425925925925924, -0.38425925925925924, -0.38425925925925924, -0.38425925925925924, -0.38425925925925924, -0.38425925925925924, -0.38425925925925924, -0.38425925925925924]"	"[1, 1, 1, 1, 1, 1, 1, 1, 1, 1, 1, 1, 1, 1, 1, 1, 1, 1, 1, 1, 1, 1, 1, 1, 1, 0]"	"[0, 0, 0, 0, 0, 0, 0, 0, 0, 0, 0, 0, 0, 0, 0, 0, 0, 0, 0, 0, 0, 0, 0, 0, 0, 0]"	"[0, 0, 0, 0, 0, 0, 0, 0, 0, 0, 0, 0, 0, 0, 0, 0, 0, 0, 0, 0, 0, 0, 0, 0, 0, 1]"	"[0.2922426999975869, 0.6336386999973911, 0.8838510999994469, 1.2003536999982316, 1.4922583999978087, 1.7589214999970864, 2.0421929999974964, 2.4671183999998902, 2.783800599998358, 3.142302500000369, 3.5090071999984502, 3.8840391999983694, 4.175584599997819, 4.550745299999107, 4.8840909999998985, 5.250625199998467, 5.675953899997694, 6.084207299998525, 6.442495499999495, 6.81740340000033, 7.200767199999973, 7.559229499998764, 7.900965699998778, 8.27696179999839, 8.58421939999971, 9.142528599997604]"	26	"[0.28979640000034124, 0.6311959000013303, 0.8814122000003408, 1.1979084000013245, 1.4898190999992948, 1.7564731999991636, 2.039757800001098, 2.4646744999990915, 2.781361500001367, 3.139858300000924, 3.5065606999996817, 3.881599600001209, 4.173140700000658, 4.548297699999239, 4.8816477000000305, 5.24817400000029, 5.673528600000282, 6.081765499999165, 6.4400515999986965, 6.814964599998348, 7.198320700001204, 7.556785699998727, 7.8985272999998415, 8.274686500000826, 8.581772300000011, 9.140019099999336]"	"[0.4060322000004817, 0.7143783999999869, 0.9977322000013373, 1.3060699999987264, 1.614509499999258, 1.8727976999980456, 2.1728237999996054, 2.556165999998484, 2.8979102999983297, 3.248122400000284, 3.6062827999994624, 3.9979448999984015, 4.297951799999282, 4.6729793999984395, 5.006335900001432, 5.389810799999395, 5.806430199998431, 6.2314492000004975, 6.581450000001496, 6.956483699999808, 7.306491999999707, 7.656555300000036, 8.014874000000418, 8.38158040000053, 8.706632400000672, 9.140023399999336]"	309.57877409999855	309.5844958999987	311.0764648000004	311.09298789999957								10	02	2024-02-06_16h13.56.817	BART_exp	2023.2.3	119.97024738079782	2024-02-06 16h14.13.914072 +0100	
balloon.png	127	0	21	21	29	311.09298789999957													311.07664659999864	311.09298789999957	311.09298789999957	311.09298789999957	311.09298789999957	311.09298789999957	-0.0008431999995082151	-0.0008431999995082151	-0.0008431999995082151	311.09298789999957	319.62005729999873	27	1.35	False	"[0.001851851851851852, 0.001851851851851852, 0.001851851851851852, 0.001851851851851852, 0.001851851851851852, 0.001851851851851852, 0.001851851851851852, 0.001851851851851852, 0.001851851851851852, 0.001851851851851852, 0.001851851851851852, 0.001851851851851852, 0.001851851851851852, 0.001851851851851852, 0.001851851851851852, 0.001851851851851852, 0.001851851851851852, 0.001851851851851852, 0.001851851851851852, 0.001851851851851852, 0.001851851851851852, 0.001851851851851852, 0.001851851851851852, 0.001851851851851852, 0.001851851851851852, 0.001851851851851852, 0.001851851851851852, 0.001851851851851852]"	"[-0.38425925925925924, -0.38425925925925924, -0.38425925925925924, -0.38425925925925924, -0.38425925925925924, -0.38425925925925924, -0.38425925925925924, -0.38425925925925924, -0.38425925925925924, -0.38425925925925924, -0.38425925925925924, -0.38425925925925924, -0.38425925925925924, -0.38425925925925924, -0.38425925925925924, -0.38425925925925924, -0.38425925925925924, -0.38425925925925924, -0.38425925925925924, -0.38425925925925924, -0.38425925925925924, -0.38425925925925924, -0.38425925925925924, -0.38425925925925924, -0.38425925925925924, -0.38425925925925924, -0.38425925925925924, -0.38425925925925924]"	"[1, 1, 1, 1, 1, 1, 1, 1, 1, 1, 1, 1, 1, 1, 1, 1, 1, 1, 1, 1, 1, 1, 1, 1, 1, 1, 1, 0]"	"[0, 0, 0, 0, 0, 0, 0, 0, 0, 0, 0, 0, 0, 0, 0, 0, 0, 0, 0, 0, 0, 0, 0, 0, 0, 0, 0, 0]"	"[0, 0, 0, 0, 0, 0, 0, 0, 0, 0, 0, 0, 0, 0, 0, 0, 0, 0, 0, 0, 0, 0, 0, 0, 0, 0, 0, 1]"	"[0.46715079999921727, 0.7169867999982671, 0.9503440000007686, 1.2256587999982003, 1.4506077000005462, 1.6920510999989347, 1.9254360000013548, 2.1921685000015714, 2.592344699998648, 2.9006289999997534, 3.125479300000734, 3.3839518999993743, 3.667339700001321, 3.9006883000001835, 4.317234300000564, 4.643873599998187, 5.009099800001422, 5.242452200000116, 5.467452400000184, 5.859159200001159, 6.15907480000169, 6.467532899998332, 6.792432599999302, 7.109351600000082, 7.400911600001564, 7.702155700000731, 8.017682599998807, 8.542507800000749]"	28	"[0.45769250000012107, 0.7075193999990006, 0.9408819000018411, 1.2161923999992723, 1.4411452999993344, 1.6825878999989072, 1.9159687999999733, 2.1742928999992728, 2.582887500000652, 2.891166000001249, 3.116015999999945, 3.3744922000005317, 3.657872200001293, 3.8912230000023555, 4.307766599999013, 4.634578299999703, 4.999632400002156, 5.232990900000004, 5.4579879000011715, 5.8496933000024, 6.1496111000014935, 6.458068899999489, 6.782968499999697, 7.09990050000124, 7.391445100001874, 7.692971100001159, 8.008225500001572, 8.53298519999953]"	"[0.5824047999994946, 0.7907075000002806, 1.049038000001019, 1.3158015000008163, 1.5574291000011726, 1.799115100002382, 2.015793400001712, 2.290856100000383, 2.6741683000000194, 3.007562800001324, 3.2408632000006037, 3.491022400001384, 3.7659070000008796, 4.015966499999195, 4.390943700000207, 4.715982100002293, 5.091147499999352, 5.332695000000967, 5.53282659999968, 5.957788399999117, 6.274431599998934, 6.599483000001783, 6.899471700002323, 7.182814200001303, 7.516157400001248, 7.81622520000019, 8.141394000002038, 8.532989300001645]"	319.6211414999998	319.6268678000015	321.1188436000011	321.1352899000012								10	02	2024-02-06_16h13.56.817	BART_exp	2023.2.3	119.97024738079782	2024-02-06 16h14.13.914072 +0100	
balloon.png	84	0	22	22	19	321.1352899000012													321.1190229999993	321.1352899000012	321.1352899000012	321.1352899000012	321.1352899000012	321.1352899000012	-0.0008463999984087422	-0.0008463999984087422	-0.0008463999984087422	321.1352899000012	327.254052100001	20	1.00	False	"[0.001851851851851852, 0.001851851851851852, 0.001851851851851852, 0.001851851851851852, 0.001851851851851852, 0.001851851851851852, 0.001851851851851852, 0.001851851851851852, 0.001851851851851852, 0.001851851851851852, 0.001851851851851852, 0.001851851851851852, 0.001851851851851852, 0.001851851851851852, 0.001851851851851852, 0.001851851851851852, 0.001851851851851852, 0.001851851851851852, 0.001851851851851852, 0.001851851851851852, 0.001851851851851852]"	"[-0.38425925925925924, -0.38425925925925924, -0.38425925925925924, -0.38425925925925924, -0.38425925925925924, -0.38425925925925924, -0.38425925925925924, -0.38425925925925924, -0.38425925925925924, -0.38425925925925924, -0.38425925925925924, -0.38425925925925924, -0.38425925925925924, -0.38425925925925924, -0.38425925925925924, -0.38425925925925924, -0.38425925925925924, -0.38425925925925924, -0.38425925925925924, -0.38425925925925924, -0.38425925925925924]"	"[1, 1, 1, 1, 1, 1, 1, 1, 1, 1, 1, 1, 1, 1, 1, 1, 1, 1, 1, 1, 0]"	"[0, 0, 0, 0, 0, 0, 0, 0, 0, 0, 0, 0, 0, 0, 0, 0, 0, 0, 0, 0, 0]"	"[0, 0, 0, 0, 0, 0, 0, 0, 0, 0, 0, 0, 0, 0, 0, 0, 0, 0, 0, 0, 1]"	"[0.291937499998312, 0.5921324000009918, 0.8171383000008063, 1.075346499997977, 1.333662999997614, 1.567205899998953, 1.8421758000004047, 2.1253627999976743, 2.3505048000006354, 2.617235800000344, 2.8670863999977882, 3.1254474999986996, 3.350597000000562, 3.567407300000923, 3.8921716999975615, 4.167339299998275, 4.409017899997707, 4.683882199999061, 5.0755993999991915, 5.459051999998337, 6.134103000000323]"	21	"[0.28462690000014845, 0.5848200000000361, 0.8098300000019663, 1.068031599999813, 1.3263506000002963, 1.5598952000000281, 1.8348838000019896, 2.118054700000357, 2.3431892000007792, 2.6099200999997265, 2.85977080000157, 3.1181321000003663, 3.3432818000001134, 3.5601007000004756, 3.88486069999999, 4.1600290999995195, 4.401703800001997, 4.676566699999967, 5.068285400000605, 5.451742200002627, 6.126725500002067]"	"[0.44278440000198316, 0.6928186000004644, 0.934482399999979, 1.1928683000005549, 1.4345347000016773, 1.7012574000000313, 1.9595369000016944, 2.2346341000011307, 2.4763091999993776, 2.72629009999946, 2.9846524999993562, 3.236056500001723, 3.467985100000078, 3.693037799999729, 3.9930406999992556, 4.251381000001857, 4.5097356000005675, 4.818106599999737, 5.176480699999956, 5.5681580000018585, 6.126729499999783]"	327.25497480000195	327.2607011	328.75265990000116	328.7774688999998								10	02	2024-02-06_16h13.56.817	BART_exp	2023.2.3	119.97024738079782	2024-02-06 16h14.13.914072 +0100	
balloon.png	79	0	23	23	18	328.7774688999998													328.7528378999996	328.7774688999998	328.7774688999998	328.7774688999998	328.7774688999998	328.7774688999998	-0.0008794999994279351	-0.0008794999994279351	-0.0008794999994279351	328.7774688999998	333.81272190000163	18	0.90	False	"[0.001851851851851852, 0.001851851851851852, 0.001851851851851852, 0.001851851851851852, 0.001851851851851852, 0.001851851851851852, 0.001851851851851852, 0.001851851851851852, 0.001851851851851852, 0.001851851851851852, 0.001851851851851852, 0.001851851851851852, 0.001851851851851852, 0.001851851851851852, 0.001851851851851852, 0.001851851851851852, 0.001851851851851852, 0.001851851851851852, 0.001851851851851852]"	"[-0.38425925925925924, -0.38425925925925924, -0.38425925925925924, -0.38425925925925924, -0.38425925925925924, -0.38425925925925924, -0.38425925925925924, -0.38425925925925924, -0.38425925925925924, -0.38425925925925924, -0.38425925925925924, -0.38425925925925924, -0.38425925925925924, -0.38425925925925924, -0.38425925925925924, -0.38425925925925924, -0.38425925925925924, -0.38425925925925924, -0.38425925925925924]"	"[1, 1, 1, 1, 1, 1, 1, 1, 1, 1, 1, 1, 1, 1, 1, 1, 1, 1, 0]"	"[0, 0, 0, 0, 0, 0, 0, 0, 0, 0, 0, 0, 0, 0, 0, 0, 0, 0, 0]"	"[0, 0, 0, 0, 0, 0, 0, 0, 0, 0, 0, 0, 0, 0, 0, 0, 0, 0, 1]"	"[0.27529819999836036, 0.5587876999998116, 0.7588285999991058, 0.9922044000013557, 1.225362799999857, 1.4420721999995294, 1.6420417000008456, 1.8753825999992841, 2.0921806000005745, 2.300557200000185, 2.535353800001758, 2.767356299998937, 2.9756096999990405, 3.233816100000695, 3.450493500000448, 3.717411199999333, 4.109019899999112, 4.433919399998558, 5.058936099998391]"	19	"[0.2614884000031452, 0.5449727000013809, 0.7450496000019484, 0.9783909000034328, 1.2115413000028639, 1.4282559000021138, 1.6282182000031753, 1.8615602000027138, 2.0783695000027365, 2.2867474000013317, 2.521537200002058, 2.7535499000005075, 2.96179210000264, 3.219993800001248, 3.4366731000009167, 3.7035991000011563, 4.095204600002035, 4.420106500001566, 5.045056900002237]"	"[0.39468090000082157, 0.6363296000017726, 0.8697034000033455, 1.0780467000004137, 1.3113868000000366, 1.528313500002696, 1.7615248000001884, 1.9530878000005032, 2.1614357000034943, 2.4031173000003037, 2.6031689000010374, 2.8115252000025066, 3.061497500002588, 3.286615500001062, 3.536525300001813, 3.853228300002229, 4.186581100002513, 4.528279200003453, 5.0450612000022375]"	333.8135736000004	333.8194982999994	335.3114366000009	335.3279274999986								10	02	2024-02-06_16h13.56.817	BART_exp	2023.2.3	119.97024738079782	2024-02-06 16h14.13.914072 +0100	
balloon.png	118	0	24	24	27	335.3279274999986													335.3116159000019	335.3279274999986	335.3279274999986	335.3279274999986	335.3279274999986	335.3279274999986	-0.0007216999983938877	-0.0007216999983938877	-0.0007216999983938877	335.3279274999986	345.78018169999996	28	1.40	False	"[0.001851851851851852, 0.001851851851851852, 0.001851851851851852, 0.001851851851851852, 0.001851851851851852, 0.001851851851851852, 0.001851851851851852, 0.001851851851851852, 0.001851851851851852, 0.001851851851851852, 0.001851851851851852, 0.001851851851851852, 0.001851851851851852, 0.001851851851851852, 0.001851851851851852, 0.001851851851851852, 0.001851851851851852, 0.001851851851851852, 0.001851851851851852, 0.001851851851851852, 0.001851851851851852, 0.001851851851851852, 0.001851851851851852, 0.001851851851851852, 0.001851851851851852, 0.001851851851851852, 0.001851851851851852, 0.001851851851851852, 0.001851851851851852]"	"[-0.38425925925925924, -0.38425925925925924, -0.38425925925925924, -0.38425925925925924, -0.38425925925925924, -0.38425925925925924, -0.38425925925925924, -0.38425925925925924, -0.38425925925925924, -0.38425925925925924, -0.38425925925925924, -0.38425925925925924, -0.38425925925925924, -0.38425925925925924, -0.38425925925925924, -0.38425925925925924, -0.38425925925925924, -0.38425925925925924, -0.38425925925925924, -0.38425925925925924, -0.38425925925925924, -0.38425925925925924, -0.38425925925925924, -0.38425925925925924, -0.38425925925925924, -0.38425925925925924, -0.38425925925925924, -0.38425925925925924, -0.38425925925925924]"	"[1, 1, 1, 1, 1, 1, 1, 1, 1, 1, 1, 1, 1, 1, 1, 1, 1, 1, 1, 1, 1, 1, 1, 1, 1, 1, 1, 1, 0]"	"[0, 0, 0, 0, 0, 0, 0, 0, 0, 0, 0, 0, 0, 0, 0, 0, 0, 0, 0, 0, 0, 0, 0, 0, 0, 0, 0, 0, 0]"	"[0, 0, 0, 0, 0, 0, 0, 0, 0, 0, 0, 0, 0, 0, 0, 0, 0, 0, 0, 0, 0, 0, 0, 0, 0, 0, 0, 0, 1]"	"[0.2670723999981419, 0.5336702999993577, 0.7421865999967849, 0.9839051999988442, 1.2339209999990999, 1.4504087999994226, 1.7170742999987851, 1.9507557999968412, 2.208934499998577, 2.442164399999456, 2.7089372999980696, 3.042189399999188, 3.375700599997799, 3.8255724999980885, 4.359144499998365, 4.9091010999982245, 5.384189199998218, 5.842371899998398, 6.325863099998969, 6.867473999998765, 7.2674702999975125, 7.67582869999751, 7.926027499997872, 8.134371299998747, 8.592722999997932, 8.95110979999663, 9.367788199997449, 10.017792499998905, 10.467676199998095]"	29	"[0.2625807000003988, 0.5291775000005146, 0.7376992999998038, 0.9794183999983943, 1.2294392999974662, 1.445915899999818, 1.7125820999972348, 1.9462681000004523, 2.2044435999996495, 2.437668399998074, 2.7044427000000724, 3.037695499999245, 3.3712118999974336, 3.821084499999415, 4.3546515999987605, 4.904608499997266, 5.379698299999291, 5.837878199999977, 6.321372200000042, 6.862981999998738, 7.262975999998162, 7.6713331999999355, 7.921538799997506, 8.129878299998381, 8.588234700000612, 8.946615900000324, 9.363300199998775, 10.013305699998455, 10.463121199998568]"	"[0.3956746999974712, 0.6207164000006742, 0.8540532999977586, 1.087404099998821, 1.3207335000006424, 1.5707518999988679, 1.8207857999987027, 2.062651799999003, 2.3125201999973797, 2.570843599998625, 2.820862099997612, 3.145874300000287, 3.5043476999999257, 3.9625828999996884, 4.470974600000773, 5.0293788999988465, 5.496041499998682, 5.937761999997747, 6.437770799999271, 6.962875699999131, 7.32953759999873, 7.796191899997211, 8.004660499998863, 8.237907399998221, 8.6962812999991, 9.046452399998088, 9.487973799998144, 10.129733599998872, 10.463125300000684]"	345.7812217999999	345.7869709000006	347.27899400000024	347.29541320000135								10	02	2024-02-06_16h13.56.817	BART_exp	2023.2.3	119.97024738079782	2024-02-06 16h14.13.914072 +0100	
balloon.png	88	0	25	25	20	347.29541320000135													347.2791803	347.29541320000135	347.29541320000135	347.29541320000135	347.29541320000135	347.29541320000135	-0.0007775000012770761	-0.0007775000012770761	-0.0007775000012770761	347.29541320000135	358.27286660000027	32	1.60	False	"[0.001851851851851852, 0.001851851851851852, 0.001851851851851852, 0.001851851851851852, 0.001851851851851852, 0.001851851851851852, 0.001851851851851852, 0.001851851851851852, 0.001851851851851852, 0.001851851851851852, 0.001851851851851852, 0.001851851851851852, 0.001851851851851852, 0.001851851851851852, 0.001851851851851852, 0.001851851851851852, 0.001851851851851852, 0.001851851851851852, 0.001851851851851852, 0.001851851851851852, 0.001851851851851852, 0.001851851851851852, 0.001851851851851852, 0.001851851851851852, 0.001851851851851852, 0.001851851851851852, 0.001851851851851852, 0.001851851851851852, 0.001851851851851852, 0.001851851851851852, 0.001851851851851852, 0.001851851851851852, 0.001851851851851852]"	"[-0.38425925925925924, -0.38425925925925924, -0.38425925925925924, -0.38425925925925924, -0.38425925925925924, -0.38425925925925924, -0.38425925925925924, -0.38425925925925924, -0.38425925925925924, -0.38425925925925924, -0.38425925925925924, -0.38425925925925924, -0.38425925925925924, -0.38425925925925924, -0.38425925925925924, -0.38425925925925924, -0.38425925925925924, -0.38425925925925924, -0.38425925925925924, -0.38425925925925924, -0.38425925925925924, -0.38425925925925924, -0.38425925925925924, -0.38425925925925924, -0.38425925925925924, -0.38425925925925924, -0.38425925925925924, -0.38425925925925924, -0.38425925925925924, -0.38425925925925924, -0.38425925925925924, -0.38425925925925924, -0.38425925925925924]"	"[1, 1, 1, 1, 1, 1, 1, 1, 1, 1, 1, 1, 1, 1, 1, 1, 1, 1, 1, 1, 1, 1, 1, 1, 1, 1, 1, 1, 1, 1, 1, 1, 0]"	"[0, 0, 0, 0, 0, 0, 0, 0, 0, 0, 0, 0, 0, 0, 0, 0, 0, 0, 0, 0, 0, 0, 0, 0, 0, 0, 0, 0, 0, 0, 0, 0, 0]"	"[0, 0, 0, 0, 0, 0, 0, 0, 0, 0, 0, 0, 0, 0, 0, 0, 0, 0, 0, 0, 0, 0, 0, 0, 0, 0, 0, 0, 0, 0, 0, 0, 1]"	"[0.24202299999888055, 0.4752845000002708, 0.683636400000978, 0.8836317999994208, 1.133834799999022, 1.4338228000015079, 1.7253148999989207, 1.9754910000010568, 2.3003582999990613, 2.558892000000924, 2.8089179000016884, 3.033904399999301, 3.3004361999992398, 3.6172622999984014, 3.8921534000000975, 4.142274599998927, 4.375832699999592, 4.867280800001026, 5.217418899999757, 5.675681299999269, 5.975763300000835, 6.342640899998514, 6.567609699999593, 6.934126100000867, 7.309024700000009, 7.625893399999768, 8.250764699998399, 8.517513800001325, 8.82775269999911, 9.500857999999425, 9.71753979999994, 10.109413099999074, 10.992763099999138]"	33	"[0.23512710000068182, 0.46838260000004084, 0.6767354000003252, 0.876736999998684, 1.1269447000013315, 1.426923800001532, 1.718418100001145, 1.9685874999995576, 2.293453900001623, 2.5519920000006096, 2.8020170999989205, 3.027006500000425, 3.2935336000009556, 3.6103838000017276, 3.885248300000967, 4.135374699999375, 4.368934999998601, 4.860391499998514, 5.210529600000882, 5.66879870000048, 5.968859000000521, 6.335740999998961, 6.5607100000015635, 6.927226200001314, 7.302126400001725, 7.6189916000002995, 8.243876399999863, 8.510617299998557, 8.821023199998308, 9.493955599999026, 9.710635899999033, 10.102515499998844, 10.985798199999408]"	"[0.35149879999880795, 0.5431835999988834, 0.7765255000012985, 1.0266288999991957, 1.251573500001541, 1.5932457000017166, 1.8349362000008114, 2.1182942999985244, 2.4016945000003034, 2.6683475999998336, 2.876671999998507, 3.151716500000475, 3.4183703000016976, 3.7601049000004423, 4.018425099999149, 4.243424299998878, 4.560118699999293, 4.976809499999945, 5.3185722999987775, 5.7852152999985265, 6.076892599998246, 6.451913799999602, 6.643603000000439, 7.077052199998434, 7.38531409999996, 7.735338099999353, 8.352167400000326, 8.568855299999996, 8.92710409999927, 9.560688300000038, 9.75214330000017, 10.21917079999912, 10.985802300001524]"	358.2740354000016	358.2795277000005	359.7714750000014	359.7796230999993								10	02	2024-02-06_16h13.56.817	BART_exp	2023.2.3	119.97024738079782	2024-02-06 16h14.13.914072 +0100	
balloon.png	1	0	26	26	0	359.7796230999993													359.77165629999945	359.7796230999993	359.7796230999993	359.7796230999993	359.7796230999993	359.7796230999993	0.0056488000009267125	0.0056488000009267125	0.0056488000009267125	359.7796230999993	360.39000790000136	2	0.05	True	"[0.001851851851851852, 0.001851851851851852]"	"[-0.38425925925925924, -0.38425925925925924]"	"[1, 1]"	"[0, 0]"	"[0, 0]"	"[0.3005111999991641, 0.5420195999977295]"	2	"[0.29865410000275006, 0.540160399999877]"	"[0.3982964999995602, 0.6066520000022138]"	360.3906050000005	360.39631089999966	361.88830320000125	361.9047395000016								10	02	2024-02-06_16h13.56.817	BART_exp	2023.2.3	119.97024738079782	2024-02-06 16h14.13.914072 +0100	
balloon.png	92	0	27	27	21	361.9047395000016													361.88848580000194	361.9047395000016	361.9047395000016	361.9047395000016	361.9047395000016	361.9047395000016	-0.0007839999998395797	-0.0007839999998395797	-0.0007839999998395797	361.9047395000016	365.98171210000146	6	0.30	False	"[0.001851851851851852, 0.001851851851851852, 0.001851851851851852, 0.001851851851851852, 0.001851851851851852, 0.001851851851851852, 0.001851851851851852]"	"[-0.38425925925925924, -0.38425925925925924, -0.38425925925925924, -0.38425925925925924, -0.38425925925925924, -0.38425925925925924, -0.38425925925925924]"	"[1, 1, 1, 1, 1, 1, 0]"	"[0, 0, 0, 0, 0, 0, 0]"	"[0, 0, 0, 0, 0, 0, 1]"	"[0.4670433999999659, 0.8586318000016036, 1.458656200000405, 2.1088094000006095, 2.6253853000016534, 3.167251300001226, 4.092291299999488]"	6	"[0.4592341000025044, 0.8508175999995728, 1.450849200002267, 2.1010038999993412, 2.6175731000002997, 3.1594407000011415]"	"[0.6006209000006493, 1.0006740000026184, 1.5756805000019085, 2.267588099999557, 2.7757708999997703, 4.0844102000010025]"	365.9823381999995	365.9883759000004	367.4803147999992	367.4967942000003								10	02	2024-02-06_16h13.56.817	BART_exp	2023.2.3	119.97024738079782	2024-02-06 16h14.13.914072 +0100	
balloon.png	31	0	28	28	7	367.4967942000003													367.4804903000004	367.4967942000003	367.4967942000003	367.4967942000003	367.4967942000003	367.4967942000003	-0.000594900000578491	-0.000594900000578491	-0.000594900000578491	367.4967942000003	375.782439300001	24	1.20	False	"[0.001851851851851852, 0.001851851851851852, 0.001851851851851852, 0.001851851851851852, 0.001851851851851852, 0.001851851851851852, 0.001851851851851852, 0.001851851851851852, 0.001851851851851852, 0.001851851851851852, 0.001851851851851852, 0.001851851851851852, 0.001851851851851852, 0.001851851851851852, 0.001851851851851852, 0.001851851851851852, 0.001851851851851852, 0.001851851851851852, 0.001851851851851852, 0.001851851851851852, 0.001851851851851852, 0.001851851851851852, 0.001851851851851852, 0.001851851851851852, 0.001851851851851852]"	"[-0.38425925925925924, -0.38425925925925924, -0.38425925925925924, -0.38425925925925924, -0.38425925925925924, -0.38425925925925924, -0.38425925925925924, -0.38425925925925924, -0.38425925925925924, -0.38425925925925924, -0.38425925925925924, -0.38425925925925924, -0.38425925925925924, -0.38425925925925924, -0.38425925925925924, -0.38425925925925924, -0.38425925925925924, -0.38425925925925924, -0.38425925925925924, -0.38425925925925924, -0.38425925925925924, -0.38425925925925924, -0.38425925925925924, -0.38425925925925924, -0.38425925925925924]"	"[1, 1, 1, 1, 1, 1, 1, 1, 1, 1, 1, 1, 1, 1, 1, 1, 1, 1, 1, 1, 1, 1, 1, 1, 0]"	"[0, 0, 0, 0, 0, 0, 0, 0, 0, 0, 0, 0, 0, 0, 0, 0, 0, 0, 0, 0, 0, 0, 0, 0, 0]"	"[0, 0, 0, 0, 0, 0, 0, 0, 0, 0, 0, 0, 0, 0, 0, 0, 0, 0, 0, 0, 0, 0, 0, 0, 1]"	"[0.46699330000046757, 0.750493200001074, 1.0004976999989594, 1.2337302999985695, 1.492322800000693, 1.7339031000010436, 1.9673695999990741, 2.709043599999859, 3.3007861000005505, 3.56735000000117, 3.7923565999990387, 4.075568000000203, 4.3007007999985944, 4.542418199998792, 4.759129099998972, 5.100751900001342, 5.367477300002065, 5.550918600001751, 5.775828699999693, 5.9842018999988795, 6.434063000000606, 6.884087300000829, 7.184405100000731, 7.576007300001947, 8.301038400000834]"	25	"[0.4607474000004004, 0.7442459999983839, 0.9942482000005839, 1.2274875000002794, 1.4860791999999492, 1.7276627999999619, 1.961136300000362, 2.702798199999961, 3.2945733000015025, 3.561100399998395, 3.7861069999999017, 4.069320899998274, 4.294454700000642, 4.5361809999994875, 4.752880699998059, 5.094506199999159, 5.36122880000039, 5.5446766999994, 5.769581900000048, 5.9779511999986426, 6.427815499999269, 6.877845099999831, 7.17817389999982, 7.569763899999089, 8.294726000000082]"	"[0.5855805999999575, 0.8689388999991934, 1.0939526000001933, 1.3439752000012959, 1.5773447999999917, 1.8190353999998479, 2.0690152999995917, 3.0690864999996847, 3.444164600001386, 3.6525249000005715, 3.910867899998266, 4.1775459999989835, 4.4192173999981605, 4.627540500001487, 4.869224400001258, 5.210950600001524, 5.419268599998759, 5.635974699998769, 5.869282600000588, 6.08598979999806, 6.5194473000010476, 7.027712999999494, 7.302726099998836, 7.69443450000108, 8.29473009999856]"	375.7837925999993	375.7890530000004	377.2810032999987	377.289168700001								10	02	2024-02-06_16h13.56.817	BART_exp	2023.2.3	119.97024738079782	2024-02-06 16h14.13.914072 +0100	
balloon.png	123	0	29	29	28	377.289168700001													377.2811892999998	377.289168700001	377.289168700001	377.289168700001	377.289168700001	377.289168700001	0.00543649999963236	0.00543649999963236	0.00543649999963236	377.289168700001	389.3165181000004	33	1.65	False	"[0.001851851851851852, 0.001851851851851852, 0.001851851851851852, 0.001851851851851852, 0.001851851851851852, 0.001851851851851852, 0.001851851851851852, 0.001851851851851852, 0.001851851851851852, 0.001851851851851852, 0.001851851851851852, 0.001851851851851852, 0.001851851851851852, 0.001851851851851852, 0.001851851851851852, 0.001851851851851852, 0.001851851851851852, 0.001851851851851852, 0.001851851851851852, 0.001851851851851852, 0.001851851851851852, 0.001851851851851852, 0.001851851851851852, 0.001851851851851852, 0.001851851851851852, 0.001851851851851852, 0.001851851851851852, 0.001851851851851852, 0.001851851851851852, 0.001851851851851852, 0.001851851851851852, 0.001851851851851852, 0.001851851851851852, 0.001851851851851852]"	"[-0.38425925925925924, -0.38425925925925924, -0.38425925925925924, -0.38425925925925924, -0.38425925925925924, -0.38425925925925924, -0.38425925925925924, -0.38425925925925924, -0.38425925925925924, -0.38425925925925924, -0.38425925925925924, -0.38425925925925924, -0.38425925925925924, -0.38425925925925924, -0.38425925925925924, -0.38425925925925924, -0.38425925925925924, -0.38425925925925924, -0.38425925925925924, -0.38425925925925924, -0.38425925925925924, -0.38425925925925924, -0.38425925925925924, -0.38425925925925924, -0.38425925925925924, -0.38425925925925924, -0.38425925925925924, -0.38425925925925924, -0.38425925925925924, -0.38425925925925924, -0.38425925925925924, -0.38425925925925924, -0.38425925925925924, -0.38425925925925924]"	"[1, 1, 1, 1, 1, 1, 1, 1, 1, 1, 1, 1, 1, 1, 1, 1, 1, 1, 1, 1, 1, 1, 1, 1, 1, 1, 1, 1, 1, 1, 1, 1, 1, 0]"	"[0, 0, 0, 0, 0, 0, 0, 0, 0, 0, 0, 0, 0, 0, 0, 0, 0, 0, 0, 0, 0, 0, 0, 0, 0, 0, 0, 0, 0, 0, 0, 0, 0, 0]"	"[0, 0, 0, 0, 0, 0, 0, 0, 0, 0, 0, 0, 0, 0, 0, 0, 0, 0, 0, 0, 0, 0, 0, 0, 0, 0, 0, 0, 0, 0, 0, 0, 0, 1]"	"[0.45028670000101556, 0.8170132000013837, 1.167165400001977, 1.5838657000022067, 1.8170357000017248, 2.034220900000946, 2.2920639000003575, 2.5255788000031316, 2.8673253000015393, 3.2254821000024094, 3.467170400002942, 3.6754945000029693, 3.8755656000030285, 4.100669500003278, 4.325735900001746, 4.58411740000156, 5.042246400000295, 5.34243410000272, 5.567437800000334, 5.92582460000267, 6.442427000001771, 6.775867700001982, 7.059053800003312, 7.509227100003045, 7.993873900002654, 8.259206400001858, 8.492666600002849, 9.234249300003285, 9.484528500001034, 9.66769970000314, 10.109436900002038, 10.51779340000212, 11.184361100000388, 12.034409800002322]"	34	"[0.44843480000054114, 0.8151623000012478, 1.165317099999811, 1.5820165000004636, 1.815185700001166, 2.032500000001164, 2.290209999999206, 2.523731500001304, 2.865509600000223, 3.2236355999993975, 3.4653193000012834, 3.6654149999994843, 3.8737173000008625, 4.098827499998151, 4.32388649999848, 4.58227160000024, 5.040401700000075, 5.34059089999937, 5.565589300000283, 5.923978099999658, 6.44058479999876, 6.774018100000831, 7.057200499999453, 7.507378499998595, 7.992178199998307, 8.257359499999438, 8.490820399998483, 9.232401799999934, 9.482676999999967, 9.665846899999451, 10.107584599998518, 10.515946200001054, 11.18250899999839, 12.03249429999778]"	"[0.540031699998508, 0.8733126999977685, 1.265009700000519, 1.6984494999996969, 1.923405300000013, 2.173412600001029, 2.3651098999980604, 2.6151026999978058, 3.0067987000002177, 3.348465999999462, 3.5734884000012244, 3.781893899998977, 3.973627600000327, 4.206978899997921, 4.465207299999747, 4.715253999998822, 5.156984599998395, 5.448610499999631, 5.64028739999776, 6.048670000000129, 6.565594100000453, 6.898708400000032, 7.223860999998578, 7.640446699999302, 8.11547359999895, 8.357151199998043, 8.573843400001351, 9.332225300000573, 9.565639699998428, 9.773929999999382, 10.22393749999901, 10.615691999999399, 11.257370600000286, 12.032498500000656]"	389.3177241000012	389.3233321000007	390.8152422000021	390.82339259999935								10	02	2024-02-06_16h13.56.817	BART_exp	2023.2.3	119.97024738079782	2024-02-06 16h14.13.914072 +0100	
																																														390.81529819999923	390.82339259999935	390.82339259999935	403.21641340000133	space	12.389750999998796	None	10	02	2024-02-06_16h13.56.817	BART_exp	2023.2.3	119.97024738079782	2024-02-06 16h14.13.914072 +0100	
