image	max_pumps	pump_loop.thisRepN	pump_loop.thisTrialN	pump_loop.thisN	pump_loop.thisIndex	thisRow.t	notes	Start.started	text_start.started	continue_start.started	mouse_start.started	Start.stopped	mouse_start.x	mouse_start.y	mouse_start.leftButton	mouse_start.midButton	mouse_start.rightButton	mouse_start.time	trials.started	stim_balloon.started	stim_balloon_burst.started	stim_balloon_burst.stopped	text_ballon_value.started	text_bank.started	mouse.started	sound_bang.started	sound_bang.stopped	button_balloon.started	trials.stopped	n_pumps	earnings	popped	mouse.x	mouse.y	mouse.leftButton	mouse.midButton	mouse.rightButton	mouse.time	button_balloon.numClicks	button_balloon.timesOn	button_balloon.timesOff	Feedback.started	text_feedback.started	Feedback.stopped	text_feedback.stopped	End.started	text_end.started	key_end.started	End.stopped	key_end.keys	key_end.rt	key_end.duration	participant	session	date	expName	psychopyVersion	frameRate	expStart	
								0.03810590005014092	0.04323199996724725	0.04323199996724725	0.038484000018797815	49.23711650003679	[0.6583333333333333]	[-0.38981481481481484]	[1]	[0]	[0]	[49.19795169995632]																																			34	03	2024-02-27_11h25.32.990	BART_exp	2023.2.3	122.44758024077403	2024-02-27 11h25.41.675587 +0100	
balloon.png	71	0	0	0	16	49.30311079998501													49.24947559996508	49.30311079998501	49.30311079998501	49.30311079998501	49.30311079998501	49.30311079998501	0.014216999989002943	0.014216999989002943	0.014216999989002943	49.30311079998501	53.8715428999858	14	0.70	False	"[-0.04537037037037037, -0.04537037037037037, -0.04537037037037037, -0.04537037037037037, -0.04537037037037037, -0.04537037037037037, -0.04537037037037037, -0.04537037037037037, -0.04537037037037037, -0.04537037037037037, -0.04537037037037037, -0.04537037037037037, -0.04537037037037037, -0.04537037037037037, -0.04537037037037037]"	"[-0.3851851851851852, -0.3851851851851852, -0.3851851851851852, -0.3851851851851852, -0.3851851851851852, -0.3851851851851852, -0.3851851851851852, -0.3851851851851852, -0.3851851851851852, -0.3851851851851852, -0.3851851851851852, -0.3851851851851852, -0.3851851851851852, -0.3851851851851852, -0.3851851851851852]"	"[1, 1, 1, 1, 1, 1, 1, 1, 1, 1, 1, 1, 1, 1, 0]"	"[0, 0, 0, 0, 0, 0, 0, 0, 0, 0, 0, 0, 0, 0, 0]"	"[0, 0, 0, 0, 0, 0, 0, 0, 0, 0, 0, 0, 0, 0, 1]"	"[1.3707752000773326, 1.7623717000242323, 1.9290787000209093, 2.145866799983196, 2.4129108000779524, 2.58755990001373, 2.7639125999994576, 2.987535999971442, 3.1541433000238612, 3.345947799971327, 3.563113300013356, 4.020815300056711, 4.179416200029664, 4.3460520000662655, 4.620901199989021]"	15	"[1.3233151999302208, 1.7148823000025004, 1.8815937999170274, 2.098394599976018, 2.365430900012143, 2.5400935999350622, 2.716423299978487, 2.940056399907917, 3.1066641999641433, 3.298486699932255, 3.515696399961598, 3.9733286999398842, 4.132193299941719, 4.298773099901155, 4.573347499943338]"	"[1.4229329999070615, 1.7896407999796793, 1.9648599999491125, 2.1730292999418452, 2.4396874000085518, 2.606321599916555, 2.815216699964367, 3.031846300000325, 3.1730615999549627, 3.373037999961525, 3.614858499960974, 4.048234899993986, 4.2148165999678895, 4.38147509994451, 4.573351799976081]"	53.872887399978936	53.882561999955215	55.37981319997925									34	03	2024-02-27_11h25.32.990	BART_exp	2023.2.3	122.44758024077403	2024-02-27 11h25.41.675587 +0100	
balloon.png	92	0	1	1	21	55.39194919995498													55.3800893999869	55.39194919995498	55.39194919995498	55.39194919995498	55.39194919995498	55.39194919995498	0.009923100005835295	0.009923100005835295	0.009923100005835295	55.39194919995498	59.43023820000235	21	1.05	False	"[-0.05, -0.05, -0.05, -0.05, -0.05, -0.05, -0.05, -0.05, -0.05, -0.05, -0.05, -0.05, -0.05, -0.05, -0.05, -0.05, -0.05, -0.05, -0.05, -0.05, -0.05, -0.05]"	"[-0.41388888888888886, -0.41388888888888886, -0.41388888888888886, -0.41388888888888886, -0.41388888888888886, -0.41388888888888886, -0.41388888888888886, -0.41388888888888886, -0.41388888888888886, -0.41388888888888886, -0.41388888888888886, -0.41388888888888886, -0.41388888888888886, -0.41388888888888886, -0.41388888888888886, -0.41388888888888886, -0.41388888888888886, -0.41388888888888886, -0.41388888888888886, -0.41388888888888886, -0.41388888888888886, -0.41388888888888886]"	"[1, 1, 1, 1, 1, 1, 1, 1, 1, 1, 1, 1, 1, 1, 1, 1, 1, 1, 1, 1, 1, 0]"	"[0, 0, 0, 0, 0, 0, 0, 0, 0, 0, 0, 0, 0, 0, 0, 0, 0, 0, 0, 0, 0, 0]"	"[0, 0, 0, 0, 0, 0, 0, 0, 0, 0, 0, 0, 0, 0, 0, 0, 0, 0, 0, 0, 0, 1]"	"[0.2569247999927029, 0.4235953000606969, 0.5483976000687107, 0.6903923000209033, 0.8235925000626594, 0.9736020000418648, 1.1150829000398517, 1.257163800066337, 1.3984110000310466, 1.5651103999698535, 1.748447100049816, 1.890414600027725, 2.090480800019577, 2.2653664000099525, 2.4320239999797195, 2.615403600037098, 2.815183800063096, 3.0071707000024617, 3.1986263999715447, 3.4572308000642806, 3.632161800051108, 4.048820600030012]"	22	"[0.2504130000015721, 0.41708220005966723, 0.5418824000516906, 0.683874599984847, 0.8170814999612048, 0.9670788999646902, 1.1085576000623405, 1.250678600044921, 1.391896600020118, 1.5585870000068098, 1.7419271999970078, 1.8839067000662908, 2.0839697000337765, 2.258850899990648, 2.4255193000426516, 2.608909900067374, 2.808656599954702, 3.0006690999725834, 3.1921037000138313, 3.4507330000633374, 3.6256586000090465, 4.042229000013322]"	"[0.32498060003854334, 0.49171840003691614, 0.6416886000661179, 0.7916961000300944, 0.9002189000602812, 1.033582799951546, 1.175026800017804, 1.3084134999662638, 1.4502687000203878, 1.6251983999973163, 1.8084626999916509, 1.9752301999833435, 2.1585020000347868, 2.3585684000281617, 2.53365700005088, 2.717015700065531, 2.9003587999613956, 3.0670621000463143, 3.2586215999908745, 3.5420355000533164, 3.683787200017832, 4.042233100044541]"	59.43130559998099	59.43654190003872	60.92883670004085	60.94217130006291								34	03	2024-02-27_11h25.32.990	BART_exp	2023.2.3	122.44758024077403	2024-02-27 11h25.41.675587 +0100	
balloon.png	5	0	2	2	1	60.94217130006291													60.92905110004358	60.94217130006291	60.94217130006291	60.94217130006291	60.94217130006291	60.94217130006291	-0.0007815000135451555	-0.0007815000135451555	-0.0007815000135451555	60.94217130006291	62.339643600047566	6	0.25	True	"[-0.041666666666666664, -0.041666666666666664, -0.041666666666666664, -0.041666666666666664, -0.041666666666666664, -0.041666666666666664]"	"[-0.4111111111111111, -0.4111111111111111, -0.4111111111111111, -0.4111111111111111, -0.4111111111111111, -0.4111111111111111]"	"[1, 1, 1, 1, 1, 1]"	"[0, 0, 0, 0, 0, 0]"	"[0, 0, 0, 0, 0, 0]"	"[0.3169104000553489, 0.5001591000473127, 0.7255518999882042, 0.8669018000364304, 1.066882700077258, 1.2762265000492334]"	6	"[0.30898059997707605, 0.49222339992411435, 0.7176631999900565, 0.858964099898003, 1.0589491999708116, 1.2683295999886468]"	"[0.4085658999392763, 0.5839488999918103, 0.7919663999928162, 0.9919756999006495, 1.175410799914971, 1.391992999939248]"	62.34039170003962	62.34740860003512	63.84545310004614									34	03	2024-02-27_11h25.32.990	BART_exp	2023.2.3	122.44758024077403	2024-02-27 11h25.41.675587 +0100	
balloon.png	118	0	3	3	27	63.86238169996068													63.84568080003373	63.86238169996068	63.86238169996068	63.86238169996068	63.86238169996068	63.86238169996068	0.006704899948090315	0.006704899948090315	0.006704899948090315	63.86238169996068	69.06449580006301	12	0.60	False	"[-0.03981481481481482, -0.03981481481481482, -0.03981481481481482, -0.03981481481481482, -0.03981481481481482, -0.03981481481481482, -0.03981481481481482, -0.03981481481481482, -0.03981481481481482, -0.03981481481481482, -0.03981481481481482, -0.03981481481481482, -0.03981481481481482]"	"[-0.4074074074074074, -0.4074074074074074, -0.4074074074074074, -0.4074074074074074, -0.4074074074074074, -0.4074074074074074, -0.4074074074074074, -0.4074074074074074, -0.4074074074074074, -0.4074074074074074, -0.4074074074074074, -0.4074074074074074, -0.4074074074074074]"	"[1, 1, 1, 1, 1, 1, 1, 1, 1, 1, 1, 1, 0]"	"[0, 0, 0, 0, 0, 0, 0, 0, 0, 0, 0, 0, 0]"	"[0, 0, 0, 0, 0, 0, 0, 0, 0, 0, 0, 0, 1]"	"[0.39415700000245124, 0.6503702000482008, 1.142100799945183, 1.6523579000495374, 2.150637499988079, 2.3756833999650553, 2.625599000020884, 2.8838020999683067, 3.1340567000443116, 3.600781899993308, 3.875480500049889, 4.250648200046271, 5.217660399968736]"	13	"[0.383239799994044, 0.6389559999806806, 1.1306889000115916, 1.6409582999767736, 2.1392415000591427, 2.3642878000391647, 2.6141815000446513, 2.872436700039543, 3.12267900002189, 3.589386000065133, 3.864060900057666, 4.239229000057094, 5.206195099977776]"	"[0.4888498999644071, 0.7221432999940589, 1.2304549999535084, 1.7407931999769062, 2.2403636999661103, 2.4804972000420094, 2.72234340000432, 2.9472211999818683, 3.2390290000475943, 3.689067200059071, 3.94730180001352, 4.314073399989866, 5.206199400010519]"	69.06535279995296	69.07097230001818	70.56317219999619	70.5718020000495								34	03	2024-02-27_11h25.32.990	BART_exp	2023.2.3	122.44758024077403	2024-02-27 11h25.41.675587 +0100	
balloon.png	62	0	4	4	14	70.5718020000495													70.56361549999565	70.5718020000495	70.5718020000495	70.5718020000495	70.5718020000495	70.5718020000495	8.309993427246809e-05	8.309993427246809e-05	8.309993427246809e-05	70.5718020000495	73.98968140000943	16	0.80	False	"[-0.040740740740740744, -0.040740740740740744, -0.040740740740740744, -0.040740740740740744, -0.040740740740740744, -0.040740740740740744, -0.040740740740740744, -0.040740740740740744, -0.04259259259259259, -0.04259259259259259, -0.04259259259259259, -0.04259259259259259, -0.04259259259259259, -0.04259259259259259, -0.04259259259259259, -0.04259259259259259, -0.04259259259259259]"	"[-0.4009259259259259, -0.4009259259259259, -0.4009259259259259, -0.4009259259259259, -0.4009259259259259, -0.4009259259259259, -0.4009259259259259, -0.4009259259259259, -0.4009259259259259, -0.4009259259259259, -0.4009259259259259, -0.4009259259259259, -0.4009259259259259, -0.4009259259259259, -0.4009259259259259, -0.4009259259259259, -0.4009259259259259]"	"[1, 1, 1, 1, 1, 1, 1, 1, 1, 1, 1, 1, 1, 1, 1, 1, 0]"	"[0, 0, 0, 0, 0, 0, 0, 0, 0, 0, 0, 0, 0, 0, 0, 0, 0]"	"[0, 0, 0, 0, 0, 0, 0, 0, 0, 0, 0, 0, 0, 0, 0, 0, 1]"	"[0.2413223999319598, 0.42449290002696216, 0.5827916000271216, 0.9409508999669924, 1.1326648000394925, 1.31594589992892, 1.4911897999700159, 1.6412236000178382, 1.824655000003986, 2.0079031999921426, 2.192964499932714, 2.3493243999546394, 2.6413233999628574, 2.841255599982105, 3.0829155000392348, 3.199562900001183, 3.424736100016162]"	17	"[0.23862680001184344, 0.42174729995895177, 0.5801874999888241, 0.9382104000542313, 1.1299586000386626, 1.313236300018616, 1.488446700037457, 1.6384814999764785, 1.8219363000243902, 2.005174900055863, 2.190232799970545, 2.346575599978678, 2.6385946000227705, 2.838508400018327, 3.0801623000297695, 3.196815300034359, 3.4219292999478057]"	"[0.3465684000402689, 0.54656199994497, 0.8548055000137538, 1.046451500034891, 1.2381029999814928, 1.4131677000550553, 1.5963808000087738, 1.754823400056921, 1.91311309998855, 2.096457800013013, 2.2797607999527827, 2.4131125999847427, 2.7215538000455126, 3.0549100999487564, 3.163173699984327, 3.2798457000171766, 3.421933799982071]"	73.99057530006394	73.99585489998572	75.48817460006103	75.50202490005177								34	03	2024-02-27_11h25.32.990	BART_exp	2023.2.3	122.44758024077403	2024-02-27 11h25.41.675587 +0100	
balloon.png	127	0	5	5	29	75.50202490005177													75.48838610004168	75.50202490005177	75.50202490005177	75.50202490005177	75.50202490005177	75.50202490005177	-0.0005583000602200627	-0.0005583000602200627	-0.0005583000602200627	75.50202490005177	78.94083870004397	18	0.90	False	"[-0.04814814814814815, -0.04814814814814815, -0.04814814814814815, -0.04814814814814815, -0.04814814814814815, -0.04814814814814815, -0.04814814814814815, -0.04814814814814815, -0.04814814814814815, -0.04814814814814815, -0.04814814814814815, -0.04814814814814815, -0.04814814814814815, -0.04814814814814815, -0.04814814814814815, -0.04814814814814815, -0.04814814814814815, -0.04814814814814815, -0.049074074074074076]"	"[-0.4, -0.4, -0.4, -0.4, -0.4, -0.4, -0.4, -0.4, -0.4, -0.4, -0.4, -0.4, -0.4, -0.4, -0.4, -0.4, -0.4, -0.4, -0.4]"	"[1, 1, 1, 1, 1, 1, 1, 1, 1, 1, 1, 1, 1, 1, 1, 1, 1, 1, 0]"	"[0, 0, 0, 0, 0, 0, 0, 0, 0, 0, 0, 0, 0, 0, 0, 0, 0, 0, 0]"	"[0, 0, 0, 0, 0, 0, 0, 0, 0, 0, 0, 0, 0, 0, 0, 0, 0, 0, 1]"	"[0.2334582000039518, 0.4000942000420764, 0.5670625000493601, 0.7336792000569403, 0.8752457000082359, 1.04172620002646, 1.1750635000644252, 1.4752327000023797, 1.6502518999623135, 1.958632200025022, 2.1504090999951586, 2.3338432000018656, 2.5338707000482827, 2.6085186999989673, 2.7750517000677064, 2.9174617000389844, 3.034094800008461, 3.158695499994792, 3.4512046000454575]"	19	"[0.22522179991938174, 0.3918481000000611, 0.5588574999710545, 0.7254561999579892, 0.8670107999350876, 1.0334970999974757, 1.1668215999379754, 1.4669929000083357, 1.6420143999857828, 1.9503903000149876, 2.142177899950184, 2.325624499935657, 2.525635699974373, 2.600276799988933, 2.766819400014356, 2.9092230999376625, 3.0258510999847203, 3.1504563000053167, 3.4429498999379575]"	"[0.3083870999980718, 0.48338539991527796, 0.6586455999640748, 0.8333559000166133, 0.9833745999494568, 1.1333374999230728, 1.416692700004205, 1.5500743999145925, 1.8834319999441504, 2.066793999983929, 2.2501839000033215, 2.4001328999875113, 2.5501722999615595, 2.7001593000022694, 2.8667969999369234, 3.000137099996209, 3.0924049000022933, 3.2089994999114424, 3.442955299979076]"	78.94182029995136	78.9469421999529	80.43852500000503	80.45191920001525								34	03	2024-02-27_11h25.32.990	BART_exp	2023.2.3	122.44758024077403	2024-02-27 11h25.41.675587 +0100	
balloon.png	57	0	6	6	13	80.45191920001525													80.43874749995302	80.45191920001525	80.45191920001525	80.45191920001525	80.45191920001525	80.45191920001525	-0.0008904000278562307	-0.0008904000278562307	-0.0008904000278562307	80.45191920001525	84.80059090000577	19	0.95	False	"[-0.05092592592592592, -0.05092592592592592, -0.05092592592592592, -0.05092592592592592, -0.05185185185185185, -0.05185185185185185, -0.05185185185185185, -0.05185185185185185, -0.05185185185185185, -0.05185185185185185, -0.05277777777777778, -0.05277777777777778, -0.05277777777777778, -0.05277777777777778, -0.05277777777777778, -0.05277777777777778, -0.05277777777777778, -0.05277777777777778, -0.05277777777777778, -0.05277777777777778]"	"[-0.4, -0.4, -0.4, -0.4, -0.4, -0.4, -0.4, -0.4, -0.4, -0.4, -0.4, -0.4, -0.4, -0.4, -0.4, -0.4, -0.4, -0.4, -0.4, -0.4]"	"[1, 1, 1, 1, 1, 1, 1, 1, 1, 1, 1, 1, 1, 1, 1, 1, 1, 1, 1, 0]"	"[0, 0, 0, 0, 0, 0, 0, 0, 0, 0, 0, 0, 0, 0, 0, 0, 0, 0, 0, 0]"	"[0, 0, 0, 0, 0, 0, 0, 0, 0, 0, 0, 0, 0, 0, 0, 0, 0, 0, 0, 1]"	"[0.45823820005171, 0.6664863999467343, 0.8665338000282645, 1.0082444000290707, 1.336125500034541, 1.5585404000012204, 1.7252221000380814, 1.9334429999580607, 2.116833599982783, 2.2916798000223935, 2.5000048000365496, 2.683289899956435, 2.8417432999704033, 3.0333442999981344, 3.225157000008039, 3.4085375999566168, 3.592044800054282, 3.7587123999837786, 3.9336220000404865, 4.36065469996538]"	20	"[0.4503211999544874, 0.6585856999736279, 0.8586177999386564, 1.0003260999219492, 1.3282525999238715, 1.5506277999375015, 1.7173215999500826, 1.925525699974969, 2.1091041000327095, 2.283795499941334, 2.492087599937804, 2.675370099954307, 2.8338259999873117, 3.0254204999655485, 3.2172613999573514, 3.400636099977419, 3.584151800023392, 3.7508032999467105, 3.925711899995804, 4.352674399968237]"	"[0.5751834999537095, 0.7585313000017777, 0.9169054999947548, 1.2503641999792308, 1.4335987999802455, 1.6669461999554187, 1.8467574999667704, 2.02521260001231, 2.2086032999213785, 2.4170889999950305, 2.593629900016822, 2.7585719999624416, 2.941925899940543, 3.1419740000274032, 3.3253295000176877, 3.500438899965957, 3.6753607999999076, 3.834052099962719, 4.075401799986139, 4.352678499999456]"	84.8015546000097	84.8055104999803	86.29727590002585	86.30561320006382								34	03	2024-02-27_11h25.32.990	BART_exp	2023.2.3	122.44758024077403	2024-02-27 11h25.41.675587 +0100	
balloon.png	31	0	7	7	7	86.30561320006382													86.29748830001336	86.30561320006382	86.30561320006382	86.30561320006382	86.30561320006382	86.30561320006382	0.00413230003323406	0.00413230003323406	0.00413230003323406	86.30561320006382	90.5073816999793	22	1.10	False	"[-0.05648148148148148, -0.05648148148148148, -0.05648148148148148, -0.05648148148148148, -0.05648148148148148, -0.05648148148148148, -0.05648148148148148, -0.05648148148148148, -0.05648148148148148, -0.05648148148148148, -0.05648148148148148, -0.05648148148148148, -0.05648148148148148, -0.05648148148148148, -0.05648148148148148, -0.05648148148148148, -0.05648148148148148, -0.05648148148148148, -0.05648148148148148, -0.05648148148148148, -0.05648148148148148, -0.05648148148148148]"	"[-0.40185185185185185, -0.40185185185185185, -0.40185185185185185, -0.40185185185185185, -0.40185185185185185, -0.40185185185185185, -0.40185185185185185, -0.40185185185185185, -0.40185185185185185, -0.40185185185185185, -0.40185185185185185, -0.40185185185185185, -0.40185185185185185, -0.40185185185185185, -0.40185185185185185, -0.40185185185185185, -0.40185185185185185, -0.40185185185185185, -0.40185185185185185, -0.40185185185185185, -0.40185185185185185, -0.40185185185185185]"	"[1, 1, 1, 1, 1, 1, 1, 1, 1, 1, 1, 1, 1, 1, 1, 1, 1, 1, 1, 1, 1, 0]"	"[0, 0, 0, 0, 0, 0, 0, 0, 0, 0, 0, 0, 0, 0, 0, 0, 0, 0, 0, 0, 0, 0]"	"[0, 0, 0, 0, 0, 0, 0, 0, 0, 0, 0, 0, 0, 0, 0, 0, 0, 0, 0, 0, 0, 1]"	"[0.15825950005091727, 0.3251737999962643, 0.49181869998574257, 0.6585886999964714, 0.8752052000490949, 1.2338208000874147, 1.4004926000488922, 1.5583428000099957, 1.7417404000880197, 1.934002700028941, 2.125288200099021, 2.325288400053978, 2.47530180006288, 2.668432200094685, 2.8587200000183657, 3.050461500068195, 3.2518399000400677, 3.4504029999952763, 3.6085813000099733, 3.791892100009136, 3.958676300011575, 4.20875850005541]"	22	"[0.15575979999266565, 0.32269319996703416, 0.48931879992596805, 0.6560993000166491, 0.8727183999726549, 1.2313258999492973, 1.3980067999800667, 1.5558451999677345, 1.7392372000031173, 1.9315423999214545, 2.1227974999928847, 2.3227907000109553, 2.4728086999384686, 2.666109499987215, 2.856229499913752, 3.0481932999100536, 3.2495873000007123, 3.4479856999823824, 3.6060855999821797, 3.7893908999394625, 3.9561776999616995, 4.206198200001381]"	"[0.25571459997445345, 0.43087009992450476, 0.58905379998032, 0.7642546999268234, 1.1390834000194445, 1.331263699918054, 1.4982075999723747, 1.655938799958676, 1.8164206999354064, 2.0145345999626443, 2.214518899912946, 2.405854200012982, 2.580993999959901, 2.7725184999872, 2.9477274999953806, 3.114261099952273, 3.3392108000116423, 3.53092419996392, 3.6976019999710843, 3.847710600006394, 4.039348699967377, 4.206202699919231]"	90.50845890003256	90.51367250003386	92.00598370004445	92.02197670005262								34	03	2024-02-27_11h25.32.990	BART_exp	2023.2.3	122.44758024077403	2024-02-27 11h25.41.675587 +0100	
balloon.png	18	0	8	8	4	92.02197670005262													92.00620880001225	92.02197670005262	92.02197670005262	92.02197670005262	92.02197670005262	92.02197670005262	-0.0006637999322265387	-0.0006637999322265387	-0.0006637999322265387	92.02197670005262	94.96605309995357	11	0.55	False	"[-0.06944444444444445, -0.06851851851851852, -0.06851851851851852, -0.06851851851851852, -0.06851851851851852, -0.06851851851851852, -0.06851851851851852, -0.06851851851851852, -0.06851851851851852, -0.06574074074074074, -0.06574074074074074, -0.06574074074074074]"	"[-0.39444444444444443, -0.39444444444444443, -0.39444444444444443, -0.39444444444444443, -0.39444444444444443, -0.39444444444444443, -0.39444444444444443, -0.39444444444444443, -0.39444444444444443, -0.39444444444444443, -0.39444444444444443, -0.39444444444444443]"	"[1, 1, 1, 1, 1, 1, 1, 1, 1, 1, 1, 0]"	"[0, 0, 0, 0, 0, 0, 0, 0, 0, 0, 0, 0]"	"[0, 0, 0, 0, 0, 0, 0, 0, 0, 0, 0, 1]"	"[0.2999161999905482, 0.464473900035955, 0.6002964000217617, 0.9752354000229388, 1.1585847000824288, 1.3752531000645831, 1.525133699993603, 1.7752762000309303, 1.9586441999999806, 2.217077000066638, 2.4502700000302866, 2.958703299984336]"	11	"[0.28969769994728267, 0.45428219996392727, 0.5900752999586985, 0.9650252000428736, 1.1483581999782473, 1.3650212000356987, 1.7650601000059396, 1.9484211000381038, 2.2068569000111893, 2.4400415000272915, 2.9484201000304893]"	"[0.39406389999203384, 0.5645934999920428, 0.9064508000155911, 1.031378599931486, 1.2897832000162452, 1.6898856000043452, 1.8232104999478906, 2.1065652000252157, 2.3315277999499813, 2.5233273999765515, 2.948424599948339]"	94.96690590004437	94.9724026999902	96.46463069994934	96.48211810004432								34	03	2024-02-27_11h25.32.990	BART_exp	2023.2.3	122.44758024077403	2024-02-27 11h25.41.675587 +0100	
balloon.png	53	0	9	9	12	96.48211810004432													96.46484599995892	96.48211810004432	96.48211810004432	96.48211810004432	96.48211810004432	96.48211810004432	-0.0006167000392451882	-0.0006167000392451882	-0.0006167000392451882	96.48211810004432	100.57472110004164	20	1.00	False	"[-0.06574074074074074, -0.06574074074074074, -0.06574074074074074, -0.06574074074074074, -0.06574074074074074, -0.06574074074074074, -0.06574074074074074, -0.06574074074074074, -0.06574074074074074, -0.06574074074074074, -0.06574074074074074, -0.06574074074074074, -0.06666666666666667, -0.06666666666666667, -0.06666666666666667, -0.06666666666666667, -0.06666666666666667, -0.06666666666666667, -0.06666666666666667, -0.06759259259259259, -0.07037037037037037]"	"[-0.39537037037037037, -0.39537037037037037, -0.39537037037037037, -0.39537037037037037, -0.39537037037037037, -0.39537037037037037, -0.39537037037037037, -0.39537037037037037, -0.39537037037037037, -0.39537037037037037, -0.39537037037037037, -0.39537037037037037, -0.39537037037037037, -0.39537037037037037, -0.39537037037037037, -0.39537037037037037, -0.39537037037037037, -0.39537037037037037, -0.39537037037037037, -0.39537037037037037, -0.3962962962962963]"	"[1, 1, 1, 1, 1, 1, 1, 1, 1, 1, 1, 1, 1, 1, 1, 1, 1, 1, 1, 1, 0]"	"[0, 0, 0, 0, 0, 0, 0, 0, 0, 0, 0, 0, 0, 0, 0, 0, 0, 0, 0, 0, 0]"	"[0, 0, 0, 0, 0, 0, 0, 0, 0, 0, 0, 0, 0, 0, 0, 0, 0, 0, 0, 0, 1]"	"[0.3258678000420332, 0.4758243999676779, 0.6592395999468863, 0.8419976000441238, 1.0087758000008762, 1.1833928000414744, 1.3421138999983668, 1.5091804000549018, 1.6837023999541998, 1.8500732999527827, 2.033457300043665, 2.2168041999684647, 2.3917931000469252, 2.5750533000100404, 2.7504804000491276, 2.93372970004566, 3.1004013000056148, 3.300398600054905, 3.4168638000264764, 3.5502463000593707, 4.108749800012447]"	21	"[0.3138182999100536, 0.4637841999065131, 0.6472404999658465, 0.8299252999713644, 0.9967336999252439, 1.1713148999260738, 1.3302031999919564, 1.4971916999202222, 1.6716354999225587, 1.8379967999644578, 2.021380399935879, 2.2047207999275997, 2.379753499990329, 2.5629915999015793, 2.7384143999079242, 2.921655199956149, 3.088322399999015, 3.288323499960825, 3.404812699998729, 3.5381713999668136, 4.096604899968952]"	"[0.4210986999096349, 0.5799277999904007, 0.7545681999763474, 0.9299592999741435, 1.0964046999579296, 1.27120289998129, 1.4545252999523655, 1.6129606999456882, 1.7632136999163777, 1.946298799943179, 2.112925099907443, 2.2879630000097677, 2.4879875999176875, 2.6629144999897107, 2.829561399994418, 3.021434499998577, 3.1796077999752015, 3.3380186998983845, 3.4713682999135926, 3.6629351999145, 4.096609000000171]"	100.57586560002528	100.58101500000339	102.07334710005671	102.08191910001915								34	03	2024-02-27_11h25.32.990	BART_exp	2023.2.3	122.44758024077403	2024-02-27 11h25.41.675587 +0100	
balloon.png	40	0	10	10	9	102.08191910001915													102.07358389999717	102.08191910001915	102.08191910001915	102.08191910001915	102.08191910001915	102.08191910001915	-0.0008359999628737569	-0.0008359999628737569	-0.0008359999628737569	102.08191910001915	106.53422220004722	23	1.15	False	"[-0.07314814814814814, -0.07314814814814814, -0.07407407407407407, -0.07407407407407407, -0.07407407407407407, -0.07407407407407407, -0.07407407407407407, -0.07407407407407407, -0.07407407407407407, -0.075, -0.075, -0.07592592592592592, -0.07592592592592592, -0.07592592592592592, -0.07592592592592592, -0.07592592592592592, -0.07592592592592592, -0.07592592592592592, -0.07592592592592592, -0.07592592592592592, -0.07592592592592592, -0.07592592592592592, -0.07592592592592592, -0.07685185185185185]"	"[-0.3925925925925926, -0.3925925925925926, -0.3925925925925926, -0.3925925925925926, -0.3925925925925926, -0.3925925925925926, -0.3925925925925926, -0.3925925925925926, -0.3925925925925926, -0.3925925925925926, -0.3925925925925926, -0.39351851851851855, -0.39351851851851855, -0.39351851851851855, -0.39351851851851855, -0.39351851851851855, -0.39351851851851855, -0.39351851851851855, -0.39351851851851855, -0.39351851851851855, -0.39351851851851855, -0.39351851851851855, -0.39351851851851855, -0.39444444444444443]"	"[1, 1, 1, 1, 1, 1, 1, 1, 1, 1, 1, 1, 1, 1, 1, 1, 1, 1, 1, 1, 1, 1, 1, 0]"	"[0, 0, 0, 0, 0, 0, 0, 0, 0, 0, 0, 0, 0, 0, 0, 0, 0, 0, 0, 0, 0, 0, 0, 0]"	"[0, 0, 0, 0, 0, 0, 0, 0, 0, 0, 0, 0, 0, 0, 0, 0, 0, 0, 0, 0, 0, 0, 0, 1]"	"[0.2668358999071643, 0.45003449998330325, 0.5999891000101343, 0.750022399937734, 0.8920931000029668, 1.058615899994038, 1.233511499944143, 1.4334379999199882, 1.6000812000129372, 1.8085728000150993, 2.033459799946286, 2.208568900008686, 2.416779499966651, 2.6001360999653116, 2.7753119999542832, 2.9754052999196574, 3.158814699971117, 3.342316299909726, 3.5271732999244705, 3.6926180999726057, 3.8268192999530584, 3.9923375999787822, 4.208973199944012, 4.459246099926531]"	24	"[0.26392960001248866, 0.44711730000562966, 0.5970678000012413, 0.7471006000414491, 0.889207600033842, 1.0557116999989375, 1.2305921000661328, 1.4305568999843672, 1.597157399985008, 1.8058194000041112, 2.030540900072083, 2.205648500006646, 2.4138703000498936, 2.597208600025624, 2.7723922000732273, 2.97248470003251, 3.1559013000223786, 3.3394048999762163, 3.524408800061792, 3.6897152999881655, 3.8240590000059456, 3.989439700031653, 4.206074299989268, 4.456301100086421]"	"[0.3636412000050768, 0.5053063000086695, 0.6721658000024036, 0.8220805000746623, 0.9984963000752032, 1.1469881000230089, 1.305475400062278, 1.4888258000137284, 1.6722342000575736, 1.9555715000024065, 2.122191800037399, 2.3137468000641093, 2.480441200081259, 2.663765300065279, 2.8637494000140578, 3.072521400055848, 3.255932500003837, 3.4226572000188753, 3.5972239000257105, 3.7559936000034213, 3.9227650000248104, 4.1394693000474945, 4.322565000038594, 4.456305500003509]"	106.53527490003034	106.53974439995363	108.03202819998842	108.04216519999318								34	03	2024-02-27_11h25.32.990	BART_exp	2023.2.3	122.44758024077403	2024-02-27 11h25.41.675587 +0100	
balloon.png	27	0	11	11	6	108.04216519999318													108.03225200006273	108.04216519999318	108.04216519999318	108.04216519999318	108.04216519999318	108.04216519999318	-0.0008432000176981091	-0.0008432000176981091	-0.0008432000176981091	108.04216519999318	113.22572560003027	27	1.35	False	"[-0.0712962962962963, -0.0712962962962963, -0.0712962962962963, -0.0712962962962963, -0.0712962962962963, -0.0712962962962963, -0.0712962962962963, -0.0712962962962963, -0.0712962962962963, -0.0712962962962963, -0.0712962962962963, -0.0712962962962963, -0.0712962962962963, -0.0712962962962963, -0.0712962962962963, -0.0712962962962963, -0.07222222222222222, -0.07222222222222222, -0.07222222222222222, -0.07222222222222222, -0.07222222222222222, -0.07222222222222222, -0.07222222222222222, -0.07222222222222222, -0.07222222222222222, -0.07314814814814814, -0.07314814814814814, -0.07314814814814814]"	"[-0.39351851851851855, -0.39351851851851855, -0.39351851851851855, -0.39351851851851855, -0.39351851851851855, -0.39444444444444443, -0.39444444444444443, -0.39444444444444443, -0.39444444444444443, -0.39444444444444443, -0.39444444444444443, -0.39444444444444443, -0.39444444444444443, -0.39444444444444443, -0.39444444444444443, -0.39444444444444443, -0.39444444444444443, -0.39444444444444443, -0.39444444444444443, -0.39444444444444443, -0.39444444444444443, -0.39444444444444443, -0.39444444444444443, -0.39444444444444443, -0.39444444444444443, -0.39444444444444443, -0.39444444444444443, -0.39537037037037037]"	"[1, 1, 1, 1, 1, 1, 1, 1, 1, 1, 1, 1, 1, 1, 1, 1, 1, 1, 1, 1, 1, 1, 1, 1, 1, 1, 1, 0]"	"[0, 0, 0, 0, 0, 0, 0, 0, 0, 0, 0, 0, 0, 0, 0, 0, 0, 0, 0, 0, 0, 0, 0, 0, 0, 0, 0, 0]"	"[0, 0, 0, 0, 0, 0, 0, 0, 0, 0, 0, 0, 0, 0, 0, 0, 0, 0, 0, 0, 0, 0, 0, 0, 0, 0, 0, 1]"	"[0.30860410002060235, 0.47519209992606193, 0.6583440999966115, 0.8250321999657899, 1.0250526999589056, 1.216639899997972, 1.400001300033182, 1.5751194999320433, 1.7502600000007078, 1.942011500010267, 2.100218700012192, 2.2753711999394, 2.483398500015028, 2.6585142000112683, 2.8252358000027016, 3.0085075999377295, 3.200176200014539, 3.350391799933277, 3.5172916000010446, 3.6335540999425575, 3.8002795999636874, 3.9504184999968857, 4.233600899926387, 4.392064000014216, 4.58358540001791, 4.792079699924216, 4.966949800029397, 5.19228740001563]"	28	"[0.3040436999872327, 0.47062020003795624, 0.6537656999425963, 0.820464099990204, 1.0204747000243515, 1.2120581000344828, 1.3954170999350026, 1.5705401999875903, 1.745684799971059, 1.937451699981466, 2.0956450999947265, 2.270816099946387, 2.4788187999511138, 2.653950299951248, 2.820658199954778, 3.0039325000252575, 3.195596699952148, 3.345810899976641, 3.512762099970132, 3.6289792000316083, 3.7957081999629736, 3.9458362000295892, 4.229022099985741, 4.387490599998273, 4.579000600031577, 4.787503100000322, 4.962368599954061, 5.187644100049511]"	"[0.41191519994754344, 0.5786367999389768, 0.745259299990721, 0.9285992999793962, 1.1120316999731585, 1.3203522999538109, 1.487063099979423, 1.670432799961418, 1.8370728000300005, 2.0205620999913663, 2.1871765999821946, 2.37870570004452, 2.562114499974996, 2.7371338999364525, 2.9288171000080183, 3.087274199933745, 3.262187200016342, 3.4288370000431314, 3.570619700010866, 3.6954958999995142, 3.845564499963075, 4.103965200018138, 4.312223499990068, 4.47888279997278, 4.662252499954775, 4.862247599987313, 5.087417699978687, 5.187648499966599]"	113.22684410004877	113.23186880000867	114.72485020000022	114.74200800003018								34	03	2024-02-27_11h25.32.990	BART_exp	2023.2.3	122.44758024077403	2024-02-27 11h25.41.675587 +0100	
balloon.png	88	0	12	12	20	114.74200800003018													114.72506520000752	114.74200800003018	114.74200800003018	114.74200800003018	114.74200800003018	114.74200800003018	-0.00024419999681413174	-0.00024419999681413174	-0.00024419999681413174	114.74200800003018	120.74399270000868	28	1.40	False	"[-0.025, -0.025, -0.025, -0.025, -0.025, -0.025, -0.025, -0.025, -0.025, -0.025, -0.025, -0.025, -0.025, -0.025, -0.025, -0.025, -0.025, -0.025, -0.025, -0.025, -0.025, -0.025, -0.025, -0.025, -0.025, -0.025, -0.025, -0.025925925925925925, -0.025925925925925925]"	"[-0.38796296296296295, -0.38796296296296295, -0.38796296296296295, -0.38796296296296295, -0.38796296296296295, -0.38796296296296295, -0.38796296296296295, -0.38796296296296295, -0.38796296296296295, -0.38796296296296295, -0.38796296296296295, -0.38796296296296295, -0.38796296296296295, -0.38796296296296295, -0.38796296296296295, -0.38796296296296295, -0.38796296296296295, -0.38796296296296295, -0.38796296296296295, -0.38796296296296295, -0.38796296296296295, -0.38796296296296295, -0.38796296296296295, -0.38796296296296295, -0.38796296296296295, -0.38796296296296295, -0.38796296296296295, -0.38796296296296295, -0.38796296296296295]"	"[1, 1, 1, 1, 1, 1, 1, 1, 1, 1, 1, 1, 1, 1, 1, 1, 1, 1, 1, 1, 1, 1, 1, 1, 1, 1, 1, 1, 0]"	"[0, 0, 0, 0, 0, 0, 0, 0, 0, 0, 0, 0, 0, 0, 0, 0, 0, 0, 0, 0, 0, 0, 0, 0, 0, 0, 0, 0, 0]"	"[0, 0, 0, 0, 0, 0, 0, 0, 0, 0, 0, 0, 0, 0, 0, 0, 0, 0, 0, 0, 0, 0, 0, 0, 0, 0, 0, 0, 1]"	"[0.5497846000362188, 0.7746351000387222, 0.9662011000327766, 1.1500563999870792, 1.2994762000162154, 1.491095499950461, 1.691114200046286, 1.8745285000186414, 2.0579908000072464, 2.2413507000310346, 2.4414021000266075, 2.5830943000037223, 2.8080521000083536, 2.9914208999834955, 3.157876900047995, 3.3495077999541536, 3.532925199950114, 3.7328866999596357, 3.932843100046739, 4.108045500004664, 4.291350799961947, 4.458232200006023, 4.633130099973641, 4.8249167000176385, 5.091338800033554, 5.258195000002161, 5.46659520000685, 5.6499073000159115, 6.017887299996801]"	29	"[0.5383933999110013, 0.7632253000047058, 0.9548638999694958, 1.1388383000157773, 1.288129199994728, 1.4796725999331102, 1.6796918999170884, 1.8631053999997675, 2.0465665999799967, 2.229928500019014, 2.429995600017719, 2.5717109999386594, 2.796633999911137, 2.9800091999350116, 3.14645819994621, 3.33808539994061, 3.5214992999099195, 3.721469799987972, 3.9214353999122977, 4.096640500007197, 4.279936200007796, 4.446823099977337, 4.621708499966189, 4.813497000024654, 5.079920299933292, 5.246772199985571, 5.455197399947792, 5.638486100011505, 6.0063987999456]"	"[0.6462409999221563, 0.8547666999511421, 1.0628679000074044, 1.250136399990879, 1.396256599924527, 1.604715499910526, 1.7713039999362081, 1.971259200014174, 2.137928699958138, 2.329638499999419, 2.504580399952829, 2.6796830999664962, 2.9130007999483496, 3.07970389991533, 3.237946999957785, 3.438007600023411, 3.621330499998294, 3.813103499938734, 4.029802699922584, 4.196515899966471, 4.363169300020672, 4.546490699984133, 4.713202900020406, 4.979900999926031, 5.188190900022164, 5.346562399994582, 5.58817869995255, 5.829951599938795, 6.006403099978343]"	120.74519619997591	120.75108880002517	122.24942220002413									34	03	2024-02-27_11h25.32.990	BART_exp	2023.2.3	122.44758024077403	2024-02-27 11h25.41.675587 +0100	
balloon.png	97	0	13	13	22	122.26159909996204													122.24964669998735	122.26159909996204	122.26159909996204	122.26159909996204	122.26159909996204	122.26159909996204	0.005859699915163219	0.005859699915163219	0.005859699915163219	122.26159909996204	125.76835909998044	19	0.95	False	"[-0.03796296296296296, -0.037037037037037035, -0.037037037037037035, -0.03611111111111111, -0.03611111111111111, -0.03611111111111111, -0.03611111111111111, -0.03611111111111111, -0.03611111111111111, -0.03611111111111111, -0.03611111111111111, -0.03611111111111111, -0.03611111111111111, -0.03611111111111111, -0.03611111111111111, -0.03611111111111111, -0.03611111111111111, -0.03611111111111111, -0.03611111111111111, -0.03611111111111111]"	"[-0.38796296296296295, -0.3888888888888889, -0.3888888888888889, -0.3888888888888889, -0.3888888888888889, -0.3888888888888889, -0.3888888888888889, -0.3888888888888889, -0.3888888888888889, -0.3888888888888889, -0.3888888888888889, -0.3888888888888889, -0.3888888888888889, -0.3888888888888889, -0.3888888888888889, -0.3888888888888889, -0.3888888888888889, -0.3888888888888889, -0.3888888888888889, -0.3888888888888889]"	"[1, 1, 1, 1, 1, 1, 1, 1, 1, 1, 1, 1, 1, 1, 1, 1, 1, 1, 1, 0]"	"[0, 0, 0, 0, 0, 0, 0, 0, 0, 0, 0, 0, 0, 0, 0, 0, 0, 0, 0, 0]"	"[0, 0, 0, 0, 0, 0, 0, 0, 0, 0, 0, 0, 0, 0, 0, 0, 0, 0, 0, 1]"	"[0.033957600011490285, 0.2253389999968931, 0.4086626999778673, 0.5838987999595702, 0.7672477999003604, 0.9507677999790758, 1.1421498999698088, 1.3177162999054417, 1.5011906999861822, 1.7020048999693245, 1.892321199993603, 2.0756416999502108, 2.292348699993454, 2.467948899953626, 2.6590063999174163, 2.842376499902457, 3.0004613999044523, 3.175516999908723, 3.3340835999697447, 3.5173421999206766]"	20	"[0.027282399940304458, 0.21862349996808916, 0.4019422000274062, 0.577183699933812, 0.7605321999872103, 0.9440505999373272, 1.1354443000163883, 1.3110085999360308, 1.4945143000222743, 1.6953971999464557, 1.885616899933666, 2.068950999993831, 2.285639000008814, 2.4612991999601945, 2.6523035999853164, 2.8356641000136733, 2.9937910999869928, 3.1687959999544546, 3.327422700007446, 3.5105947999982163]"	"[0.11839369998779148, 0.31028440000955015, 0.49362329998984933, 0.6771589999552816, 0.8684949999442324, 1.0440506000304595, 1.2184766000136733, 1.418528400012292, 1.6018968999851495, 1.8104051999980584, 2.0019441000185907, 2.2107510999776423, 2.385264699929394, 2.560558500001207, 2.744088500039652, 2.918628399958834, 3.0852887999499217, 3.2353688000002876, 3.435341199976392, 3.510599400033243]"	125.77010239998344	125.77444359997753	127.26847260002978	127.28163270000368								34	03	2024-02-27_11h25.32.990	BART_exp	2023.2.3	122.44758024077403	2024-02-27 11h25.41.675587 +0100	
balloon.png	79	0	14	14	18	127.28163270000368													127.26872419996653	127.28163270000368	127.28163270000368	127.28163270000368	127.28163270000368	127.28163270000368	0.0012830999912694097	0.0012830999912694097	0.0012830999912694097	127.28163270000368	129.69362000003457	12	0.60	False	"[-0.03333333333333333, -0.03148148148148148, -0.030555555555555555, -0.030555555555555555, -0.030555555555555555, -0.030555555555555555, -0.030555555555555555, -0.030555555555555555, -0.030555555555555555, -0.030555555555555555, -0.030555555555555555, -0.030555555555555555, -0.030555555555555555]"	"[-0.38796296296296295, -0.38796296296296295, -0.38796296296296295, -0.38796296296296295, -0.38796296296296295, -0.38796296296296295, -0.38796296296296295, -0.38796296296296295, -0.38796296296296295, -0.38796296296296295, -0.38796296296296295, -0.38796296296296295, -0.38796296296296295]"	"[1, 1, 1, 1, 1, 1, 1, 1, 1, 1, 1, 1, 0]"	"[0, 0, 0, 0, 0, 0, 0, 0, 0, 0, 0, 0, 0]"	"[0, 0, 0, 0, 0, 0, 0, 0, 0, 0, 0, 0, 1]"	"[0.23966880002990365, 0.4233224999625236, 0.6143760000122711, 0.7895420000422746, 0.9644250000128523, 1.1395809999667108, 1.306057299952954, 1.4897466000402346, 1.7145089999539778, 1.8980353999650106, 2.056544400053099, 2.248329999973066, 2.4232799999881536]"	13	"[0.23234829993452877, 0.4160344999982044, 0.6070503999944776, 0.7822198999347165, 0.9570961999706924, 1.1322531999321654, 1.2987376999808475, 1.4824252999387681, 1.7071866999613121, 1.8907175000058487, 2.0492273999843746, 2.2410351999569684, 2.4159001999069005]"	"[0.34029969992116094, 0.506933799944818, 0.6987611999502406, 0.8821339999558404, 1.0569703999208286, 1.2155018999474123, 1.3737379999365658, 1.6154879999812692, 1.7904404000146315, 1.965540700010024, 2.1738086999394, 2.3404507000232115, 2.4159043999388814]"	129.69446230004542	129.69969060004223	131.1920332000591	131.2019138999749								34	03	2024-02-27_11h25.32.990	BART_exp	2023.2.3	122.44758024077403	2024-02-27 11h25.41.675587 +0100	
balloon.png	23	0	15	15	5	131.2019138999749													131.19225249998271	131.2019138999749	131.2019138999749	131.2019138999749	131.2019138999749	131.2019138999749	-0.0006798000540584326	-0.0006798000540584326	-0.0006798000540584326	131.2019138999749	136.35266410000622	24	1.15	True	"[-0.02962962962962963, -0.02962962962962963, -0.02962962962962963, -0.02962962962962963, -0.02962962962962963, -0.02962962962962963, -0.02962962962962963, -0.02962962962962963, -0.02962962962962963, -0.02962962962962963, -0.02962962962962963, -0.02962962962962963, -0.02962962962962963, -0.02962962962962963, -0.02962962962962963, -0.02962962962962963, -0.02962962962962963, -0.02962962962962963, -0.02962962962962963, -0.02962962962962963, -0.02962962962962963, -0.02962962962962963, -0.02962962962962963, -0.02962962962962963]"	"[-0.38796296296296295, -0.38796296296296295, -0.38796296296296295, -0.38796296296296295, -0.38796296296296295, -0.38796296296296295, -0.38796296296296295, -0.38796296296296295, -0.38796296296296295, -0.38796296296296295, -0.38796296296296295, -0.38796296296296295, -0.38796296296296295, -0.38796296296296295, -0.38796296296296295, -0.38796296296296295, -0.38796296296296295, -0.38796296296296295, -0.38796296296296295, -0.38796296296296295, -0.38796296296296295, -0.38796296296296295, -0.38796296296296295, -0.38796296296296295]"	"[1, 1, 1, 1, 1, 1, 1, 1, 1, 1, 1, 1, 1, 1, 1, 1, 1, 1, 1, 1, 1, 1, 1, 1]"	"[0, 0, 0, 0, 0, 0, 0, 0, 0, 0, 0, 0, 0, 0, 0, 0, 0, 0, 0, 0, 0, 0, 0, 0]"	"[0, 0, 0, 0, 0, 0, 0, 0, 0, 0, 0, 0, 0, 0, 0, 0, 0, 0, 0, 0, 0, 0, 0, 0]"	"[0.24165760003961623, 0.43348010000772774, 0.624971600016579, 0.8083860999904573, 1.0083052000263706, 1.1916932000312954, 1.3916740000713617, 1.5916588000254706, 1.7841557000065222, 1.9750624999869615, 2.317314299987629, 2.508574700099416, 2.6919564000563696, 2.8835285000968724, 3.083935600006953, 3.266874200082384, 3.467113899998367, 3.8168403999879956, 4.0252941000508144, 4.191911800066009, 4.492143500014208, 4.700420000008307, 4.883719100034796, 5.058605400030501]"	24	"[0.2371653999434784, 0.42899159993976355, 0.6204741999972612, 0.8038900999817997, 1.0038036999758333, 1.187197000021115, 1.3871710000094026, 1.587157699977979, 1.7797256999183446, 1.9705667999805883, 2.312874599942006, 2.5040749999461696, 2.687455700011924, 2.87908919993788, 3.0796891999198124, 3.262454899959266, 3.4626925999764353, 3.8123399999458343, 4.020797899924219, 4.187413499923423, 4.487655199947767, 4.695927699911408, 4.87922050000634, 5.054105299990624]"	"[0.3455206999788061, 0.5289049999555573, 0.7123203999362886, 0.903747099917382, 1.1037279999582097, 1.3037621999392286, 1.4959757999749854, 1.7037246000254527, 1.8792927999747917, 2.0791391999227926, 2.428969500004314, 2.6204992999555543, 2.812368799932301, 2.989453300018795, 3.18727300001774, 3.3789303000085056, 3.570582399959676, 3.9206325999693945, 4.112231699982658, 4.412250299938023, 4.612273399950936, 4.770707899937406, 4.962319899932481, 5.145625800010748]"	136.3537129999604	136.35845639999025	137.85076259996276	137.85963600000832								34	03	2024-02-27_11h25.32.990	BART_exp	2023.2.3	122.44758024077403	2024-02-27 11h25.41.675587 +0100	
balloon.png	36	0	16	16	8	137.85963600000832													137.85097659996245	137.85963600000832	137.85963600000832	137.85963600000832	137.85963600000832	137.85963600000832	0.0059964999090880156			137.85963600000832	142.8205564999953	24	1.20	False	"[-0.014814814814814815, -0.013888888888888888, -0.014814814814814815, -0.018518518518518517, -0.022222222222222223, -0.023148148148148147, -0.023148148148148147, -0.023148148148148147, -0.023148148148148147, -0.023148148148148147, -0.023148148148148147, -0.023148148148148147, -0.023148148148148147, -0.023148148148148147, -0.023148148148148147, -0.023148148148148147, -0.023148148148148147, -0.023148148148148147, -0.023148148148148147, -0.023148148148148147, -0.023148148148148147, -0.023148148148148147, -0.023148148148148147, -0.023148148148148147, -0.023148148148148147]"	"[-0.36944444444444446, -0.36944444444444446, -0.37037037037037035, -0.3712962962962963, -0.37222222222222223, -0.37222222222222223, -0.37222222222222223, -0.37222222222222223, -0.37222222222222223, -0.37222222222222223, -0.37222222222222223, -0.37222222222222223, -0.37222222222222223, -0.37222222222222223, -0.37222222222222223, -0.37222222222222223, -0.37222222222222223, -0.37222222222222223, -0.37222222222222223, -0.37222222222222223, -0.37222222222222223, -0.3712962962962963, -0.3712962962962963, -0.3712962962962963, -0.3712962962962963]"	"[1, 1, 1, 1, 1, 1, 1, 1, 1, 1, 1, 1, 1, 1, 1, 1, 1, 1, 1, 1, 1, 1, 1, 1, 0]"	"[0, 0, 0, 0, 0, 0, 0, 0, 0, 0, 0, 0, 0, 0, 0, 0, 0, 0, 0, 0, 0, 0, 0, 0, 0]"	"[0, 0, 0, 0, 0, 0, 0, 0, 0, 0, 0, 0, 0, 0, 0, 0, 0, 0, 0, 0, 0, 0, 0, 0, 1]"	"[0.4711676000151783, 0.6253308000741526, 0.8169261000584811, 0.9918012999696657, 1.1835509999655187, 1.3669016000349075, 1.5669501000083983, 1.7669435000279918, 1.9418258999940008, 2.092028700048104, 2.2838610999751836, 2.4672060000011697, 2.642113900044933, 2.833986800047569, 3.017409099964425, 3.2007304000435397, 3.400915600010194, 3.5753073999658227, 3.925307900062762, 4.091948300017975, 4.251093600061722, 4.442261900054291, 4.618486299994402, 4.808660999988206, 4.968566299998201]"	25	"[0.4686835999600589, 0.6228559999726713, 0.8144593000179157, 0.9893230999587104, 1.181066400022246, 1.3644139999523759, 1.5644798000575975, 1.7644546000519767, 1.9393459999701008, 2.089540399960242, 2.2813887000083923, 2.4647336000343785, 2.6396515000378713, 2.8315245000412688, 3.014968300005421, 3.1982591999694705, 3.3984530000016093, 3.5728184999898076, 3.9228149000555277, 4.089468599995598, 4.248674100032076, 4.439798700041138, 4.616162599995732, 4.806172200012952, 4.966007799957879]"	"[0.5640753000043333, 0.7391701999586076, 0.9143657999811694, 1.0976030000019819, 1.2976685999892652, 1.4725499999476597, 1.6725293999770656, 1.8643929000245407, 2.047690200037323, 2.197748800041154, 2.3892692000372335, 2.564396100002341, 2.7477819999912754, 2.9478708000387996, 3.1312454999424517, 3.3327592000132427, 3.533323199953884, 3.839356999960728, 4.015263500041328, 4.189355000038631, 4.3654661000473425, 4.556063800002448, 4.716592899989337, 4.931462500011548, 4.966011799988337]"	142.8216065999586	142.82758749998175	144.3199811000377	144.33165189996362								34	03	2024-02-27_11h25.32.990	BART_exp	2023.2.3	122.44758024077403	2024-02-27 11h25.41.675587 +0100	
balloon.png	14	0	17	17	3	144.33165189996362													144.32043500000145	144.33165189996362	144.33165189996362	144.33165189996362	144.33165189996362	144.33165189996362	0.0010272999061271548	0.0010272999061271548	0.0010272999061271548	144.33165189996362	147.01974170003086	15	0.70	True	"[-0.028703703703703703, -0.028703703703703703, -0.028703703703703703, -0.028703703703703703, -0.028703703703703703, -0.028703703703703703, -0.028703703703703703, -0.028703703703703703, -0.028703703703703703, -0.028703703703703703, -0.028703703703703703, -0.028703703703703703, -0.028703703703703703, -0.028703703703703703]"	"[-0.3712962962962963, -0.3712962962962963, -0.3712962962962963, -0.3712962962962963, -0.3712962962962963, -0.3712962962962963, -0.3712962962962963, -0.3712962962962963, -0.3712962962962963, -0.3712962962962963, -0.3712962962962963, -0.3712962962962963, -0.3712962962962963, -0.3712962962962963]"	"[1, 1, 1, 1, 1, 1, 1, 1, 1, 1, 1, 1, 1, 1]"	"[0, 0, 0, 0, 0, 0, 0, 0, 0, 0, 0, 0, 0, 0]"	"[0, 0, 0, 0, 0, 0, 0, 0, 0, 0, 0, 0, 0, 0]"	"[0.1223677999805659, 0.3055576999904588, 0.5055480999872088, 0.6889085000148043, 0.8889079999644309, 1.0805093999952078, 1.272332499967888, 1.447174199973233, 1.6305240999208763, 1.8305690999841318, 1.9974709999514744, 2.197423000005074, 2.3726192999165505, 2.5642197999404743]"	14	"[0.11692579998634756, 0.3001028000144288, 0.5000992999412119, 0.6834539999254048, 0.8834526999853551, 1.0750542999012396, 1.2668831999180838, 1.4417151999659836, 1.6250692999456078, 1.8251098999753594, 1.992024299921468, 2.19196819991339, 2.367166099953465, 2.5587816999759525]"	"[0.2248411999316886, 0.40002860000822693, 0.5931092000100762, 0.8082303999690339, 0.9749027999350801, 1.174935899907723, 1.3415919999824837, 1.5334630999714136, 1.7249600999057293, 1.9416885999962687, 2.1001851999899372, 2.3001885999692604, 2.4835236999206245, 2.6834975999081507]"	147.02065550000407	147.02589419996366	148.51817739999387	148.53180620004423								34	03	2024-02-27_11h25.32.990	BART_exp	2023.2.3	122.44758024077403	2024-02-27 11h25.41.675587 +0100	
balloon.png	84	0	18	18	19	148.53180620004423													148.51840559998527	148.53180620004423	148.53180620004423	148.53180620004423	148.53180620004423	148.53180620004423	-0.0007293999660760164	-0.0007293999660760164	-0.0007293999660760164	148.53180620004423	151.67001959995832	16	0.80	False	"[-0.03796296296296296, -0.03796296296296296, -0.03796296296296296, -0.03796296296296296, -0.03796296296296296, -0.03796296296296296, -0.03796296296296296, -0.03796296296296296, -0.03796296296296296, -0.03796296296296296, -0.03796296296296296, -0.03796296296296296, -0.03796296296296296, -0.03796296296296296, -0.03796296296296296, -0.03796296296296296, -0.037037037037037035]"	"[-0.375, -0.375, -0.375, -0.375, -0.375, -0.375, -0.375, -0.375, -0.375, -0.375, -0.375, -0.375, -0.375, -0.375, -0.375, -0.375, -0.37407407407407406]"	"[1, 1, 1, 1, 1, 1, 1, 1, 1, 1, 1, 1, 1, 1, 1, 1, 0]"	"[0, 0, 0, 0, 0, 0, 0, 0, 0, 0, 0, 0, 0, 0, 0, 0, 0]"	"[0, 0, 0, 0, 0, 0, 0, 0, 0, 0, 0, 0, 0, 0, 0, 0, 1]"	"[0.027108999900519848, 0.2086587999947369, 0.40022559999488294, 0.6002341998973861, 0.7835537999635562, 0.9754185999045148, 1.1597323999740183, 1.3422184999799356, 1.5170219999272376, 1.708892299910076, 1.8923441999359056, 2.0667735999450088, 2.259001199970953, 2.425632799975574, 2.6423938999651, 2.850407699937932, 3.1505025000078604]"	17	"[0.018855600035749376, 0.20040850003715605, 0.3919581000227481, 0.5919544999487698, 0.7752867999952286, 0.9671747999964282, 1.1516276999609545, 1.3339570000534877, 1.5087605000007898, 1.7006210000254214, 1.8840757999569178, 2.0585008000489324, 2.250746399979107, 2.4173863000469282, 2.634165900060907, 2.842140799970366, 3.142165399971418]"	"[0.11682450002990663, 0.3083051999565214, 0.5083464999916032, 0.7001530999550596, 0.8837200000416487, 1.083546799956821, 1.266918099950999, 1.4417245000367984, 1.625094100018032, 1.8006059000035748, 1.9751074999803677, 2.1507869999622926, 2.3507529000053182, 2.5338521000230685, 2.750507100019604, 2.9007097999565303, 3.1421699000056833]"	151.6710154999746	151.6762898999732	153.1684689000249	153.18146230001003								34	03	2024-02-27_11h25.32.990	BART_exp	2023.2.3	122.44758024077403	2024-02-27 11h25.41.675587 +0100	
balloon.png	114	0	19	19	26	153.18146230001003													153.16868740005884	153.18146230001003	153.18146230001003	153.18146230001003	153.18146230001003	153.18146230001003	-0.000821000081487	-0.000821000081487	-0.000821000081487	153.18146230001003	157.2117138999747	20	1.00	False	"[-0.03796296296296296, -0.03796296296296296, -0.03796296296296296, -0.03796296296296296, -0.03796296296296296, -0.03796296296296296, -0.03796296296296296, -0.03796296296296296, -0.03796296296296296, -0.03796296296296296, -0.03796296296296296, -0.03796296296296296, -0.03796296296296296, -0.03796296296296296, -0.03796296296296296, -0.03796296296296296, -0.03796296296296296, -0.03796296296296296, -0.03796296296296296, -0.03796296296296296, -0.03796296296296296]"	"[-0.37407407407407406, -0.37407407407407406, -0.37407407407407406, -0.37407407407407406, -0.37407407407407406, -0.37407407407407406, -0.37407407407407406, -0.37407407407407406, -0.37407407407407406, -0.37407407407407406, -0.37407407407407406, -0.37407407407407406, -0.37407407407407406, -0.37407407407407406, -0.37407407407407406, -0.37407407407407406, -0.37407407407407406, -0.37407407407407406, -0.37407407407407406, -0.37407407407407406, -0.37407407407407406]"	"[1, 1, 1, 1, 1, 1, 1, 1, 1, 1, 1, 1, 1, 1, 1, 1, 1, 1, 1, 1, 0]"	"[0, 0, 0, 0, 0, 0, 0, 0, 0, 0, 0, 0, 0, 0, 0, 0, 0, 0, 0, 0, 0]"	"[0, 0, 0, 0, 0, 0, 0, 0, 0, 0, 0, 0, 0, 0, 0, 0, 0, 0, 0, 0, 1]"	"[0.30032509996090084, 0.4501135000027716, 0.6249869000166655, 0.8001334000146016, 0.9678608999820426, 1.1336710000177845, 1.3419356000376865, 1.4919030000455678, 1.6586545000318438, 1.8689319000113755, 2.0502738000359386, 2.241754899965599, 2.4335810999618843, 2.6252138999989256, 2.808573600021191, 3.0171645999653265, 3.200358600006439, 3.383730600005947, 3.583793899975717, 3.7919723000377417, 4.041992999962531]"	21	"[0.2928109000204131, 0.44258480006828904, 0.6174518000334501, 0.792598900035955, 0.9605973999714479, 1.1261430999729782, 1.3344054999761283, 1.4843744999961928, 1.6511654000496492, 1.8614223999902606, 2.042740200064145, 2.2342366999946535, 2.4260497000068426, 2.6176817000377923, 2.8010394000448287, 3.0096351000247523, 3.192827600054443, 3.3762019000714645, 3.5762725999811664, 3.7844363000476733, 4.034400100004859]"	"[0.3590743000386283, 0.5424525999696925, 0.6840110999764875, 0.8507187999784946, 1.050738799967803, 1.2340455000521615, 1.409255800070241, 1.6007500999839976, 1.7759723999770358, 1.967446899972856, 2.1426467000273988, 2.3258784000063315, 2.5176732999971136, 2.717625300050713, 2.9093693000031635, 3.1009549000300467, 3.284418600029312, 3.4594265000196174, 3.659457099973224, 3.834324200055562, 4.034404400037602]"	157.21291070000734	157.21831589995418	158.71053909999318	158.7221212000586								34	03	2024-02-27_11h25.32.990	BART_exp	2023.2.3	122.44758024077403	2024-02-27 11h25.41.675587 +0100	
balloon.png	10	0	20	20	2	158.7221212000586													158.7107546000043	158.7221212000586	158.7221212000586	158.7221212000586	158.7221212000586	158.7221212000586	-0.0006454999092966318	-0.0006454999092966318	-0.0006454999092966318	158.7221212000586	160.8045795999933	11	0.50	True	"[-0.03796296296296296, -0.03796296296296296, -0.03796296296296296, -0.03796296296296296, -0.03796296296296296, -0.03796296296296296, -0.03796296296296296, -0.03796296296296296, -0.03796296296296296, -0.03796296296296296, -0.03796296296296296]"	"[-0.37407407407407406, -0.37407407407407406, -0.37407407407407406, -0.37407407407407406, -0.37407407407407406, -0.37407407407407406, -0.37407407407407406, -0.37407407407407406, -0.37407407407407406, -0.37407407407407406, -0.37407407407407406]"	"[1, 1, 1, 1, 1, 1, 1, 1, 1, 1, 1]"	"[0, 0, 0, 0, 0, 0, 0, 0, 0, 0, 0]"	"[0, 0, 0, 0, 0, 0, 0, 0, 0, 0, 0]"	"[0.018795000039972365, 0.22529279999434948, 0.39996850001625717, 0.5923613000195473, 0.7925399000523612, 0.9924931999994442, 1.1925081999506801, 1.375681799952872, 1.5836537999566644, 1.783419799990952, 1.9836505999555811]"	11	"[0.013196199899539351, 0.21967009990476072, 0.39434199989773333, 0.5867379999253899, 0.7869281999301165, 0.9869096999755129, 1.1869574999436736, 1.3701006999472156, 1.578037399915047, 1.7777910999720916, 1.9780190999154001]"	"[0.08613729989156127, 0.3196184999542311, 0.5197684000013396, 0.7110281999921426, 0.8943096000002697, 1.0699424999766052, 1.2866195999085903, 1.471330099971965, 1.6776490999618545, 1.877743799937889, 2.0777199999429286]"	160.8054735000478	160.81014269997831	162.30251139996108	162.3219144999748								34	03	2024-02-27_11h25.32.990	BART_exp	2023.2.3	122.44758024077403	2024-02-27 11h25.41.675587 +0100	
balloon.png	75	0	21	21	17	162.3219144999748													162.3027260999661	162.3219144999748	162.3219144999748	162.3219144999748	162.3219144999748	162.3219144999748	0.00016549997963011265	0.00016549997963011265	0.00016549997963011265	162.3219144999748	165.13721900002565	12	0.60	False	"[-0.03796296296296296, -0.03796296296296296, -0.03796296296296296, -0.03796296296296296, -0.03796296296296296, -0.03796296296296296, -0.03796296296296296, -0.03796296296296296, -0.03796296296296296, -0.03796296296296296, -0.03796296296296296, -0.03796296296296296]"	"[-0.37407407407407406, -0.37407407407407406, -0.37407407407407406, -0.37407407407407406, -0.37407407407407406, -0.37407407407407406, -0.37407407407407406, -0.37407407407407406, -0.37407407407407406, -0.37407407407407406, -0.37407407407407406, -0.37407407407407406]"	"[1, 1, 1, 1, 1, 1, 1, 1, 1, 1, 1, 0]"	"[0, 0, 0, 0, 0, 0, 0, 0, 0, 0, 0, 0]"	"[0, 0, 0, 0, 0, 0, 0, 0, 0, 0, 0, 1]"	"[0.216732700006105, 0.44166299991775304, 0.6416846999200061, 0.8250090000219643, 1.0102605000138283, 1.358656800002791, 1.550165000022389, 1.7334978999570012, 1.9420343999518082, 2.116923699970357, 2.533610299928114, 2.8334520999342203]"	12	"[0.20293090003542602, 0.42785470001399517, 0.6278720999835059, 0.8111945999553427, 0.9964817999862134, 1.3448533000191674, 1.5363477999344468, 1.7196893999353051, 1.9282305999659002, 2.1031150999478996, 2.519800000009127, 2.819570899941027]"	"[0.31107069994322956, 0.5110729000298306, 0.7111273999325931, 0.9193407000275329, 1.086023599957116, 1.4445092999376357, 1.6360477999551222, 1.8193331999937072, 2.036116100032814, 2.2112314000260085, 2.6112248999997973, 2.8195751999737695]"	165.13806280004792	165.14378649997525	166.63607130001765	166.65154210000765								34	03	2024-02-27_11h25.32.990	BART_exp	2023.2.3	122.44758024077403	2024-02-27 11h25.41.675587 +0100	
balloon.png	1	0	22	22	0	166.65154210000765													166.6362841000082	166.65154210000765	166.65154210000765	166.65154210000765	166.65154210000765	166.65154210000765	-0.00024530000519007444	-0.00024530000519007444	-0.00024530000519007444	166.65154210000765	167.17961999995168	2	0.05	True	"[-0.03796296296296296, -0.03796296296296296]"	"[-0.37407407407407406, -0.37407407407407406]"	"[1, 1]"	"[0, 0]"	"[0, 0]"	"[0.2502565000904724, 0.4169895000522956]"	2	"[0.2401835999917239, 0.40690850000828505]"	"[0.3398765000747517, 0.5232279000338167]"	167.18027959996834	167.18561299995054	168.6785745000234	168.69161119998898								34	03	2024-02-27_11h25.32.990	BART_exp	2023.2.3	122.44758024077403	2024-02-27 11h25.41.675587 +0100	
balloon.png	123	0	23	23	28	168.69161119998898													168.67879559996072	168.69161119998898	168.69161119998898	168.69161119998898	168.69161119998898	168.69161119998898	0.00027089996729046106	0.00027089996729046106	0.00027089996729046106	168.69161119998898	173.18797810003161	14	0.70	False	"[-0.03796296296296296, -0.03796296296296296, -0.03796296296296296, -0.03796296296296296, -0.03796296296296296, -0.03796296296296296, -0.03796296296296296, -0.03796296296296296, -0.03796296296296296, -0.03796296296296296, -0.03796296296296296, -0.03796296296296296, -0.03796296296296296, -0.03796296296296296, -0.03796296296296296]"	"[-0.37407407407407406, -0.37407407407407406, -0.37407407407407406, -0.37407407407407406, -0.37407407407407406, -0.37407407407407406, -0.37407407407407406, -0.37407407407407406, -0.37407407407407406, -0.37407407407407406, -0.37407407407407406, -0.37407407407407406, -0.37407407407407406, -0.37407407407407406, -0.37407407407407406]"	"[1, 1, 1, 1, 1, 1, 1, 1, 1, 1, 1, 1, 1, 1, 0]"	"[0, 0, 0, 0, 0, 0, 0, 0, 0, 0, 0, 0, 0, 0, 0]"	"[0, 0, 0, 0, 0, 0, 0, 0, 0, 0, 0, 0, 0, 0, 1]"	"[0.29096829995978624, 0.7500613000011072, 0.9162683000322431, 1.1246242000488564, 1.341305200010538, 1.5579188000410795, 1.8327639000490308, 2.0244842000538483, 2.466100799967535, 2.81628999998793, 3.224550800048746, 3.85796679998748, 4.024771900032647, 4.249537799973041, 4.50804710004013]"	15	"[0.2833669000538066, 0.7424919999903068, 0.9087944000493735, 1.117001899983734, 1.3336941000306979, 1.5502901000436395, 1.8251904000062495, 2.016862799995579, 2.4584767000051215, 2.8086857999442145, 3.216926399967633, 3.8503579000243917, 4.017159500042908, 4.241911899996921, 4.500356800039299]"	"[0.3586378999752924, 0.84498649998568, 1.0254744000267237, 1.2333874000469223, 1.4333309000357985, 1.6499808999942616, 1.9250648999586701, 2.1168600999517366, 2.6083619999699295, 2.928160800016485, 3.3001766999950632, 3.9169557000277564, 4.125108600012027, 4.308442399953492, 4.500361199956387]"	173.18910680001136	173.19434609997552	174.68668799998704	174.7018812999595								34	03	2024-02-27_11h25.32.990	BART_exp	2023.2.3	122.44758024077403	2024-02-27 11h25.41.675587 +0100	
balloon.png	66	0	24	24	15	174.7018812999595													174.6869020999875	174.7018812999595	174.7018812999595	174.7018812999595	174.7018812999595	174.7018812999595	-0.0007026999955996871	-0.0007026999955996871	-0.0007026999955996871	174.7018812999595	178.43011890002526	17	0.85	False	"[-0.03796296296296296, -0.03796296296296296, -0.03796296296296296, -0.03796296296296296, -0.03796296296296296, -0.03796296296296296, -0.03796296296296296, -0.03796296296296296, -0.03796296296296296, -0.03796296296296296, -0.03796296296296296, -0.03796296296296296, -0.03796296296296296, -0.03796296296296296, -0.03796296296296296, -0.03796296296296296, -0.03796296296296296, -0.03796296296296296]"	"[-0.37407407407407406, -0.37407407407407406, -0.37407407407407406, -0.37407407407407406, -0.37407407407407406, -0.37407407407407406, -0.37407407407407406, -0.37407407407407406, -0.37407407407407406, -0.37407407407407406, -0.37407407407407406, -0.37407407407407406, -0.37407407407407406, -0.37407407407407406, -0.37407407407407406, -0.37407407407407406, -0.37407407407407406, -0.37407407407407406]"	"[1, 1, 1, 1, 1, 1, 1, 1, 1, 1, 1, 1, 1, 1, 1, 1, 1, 0]"	"[0, 0, 0, 0, 0, 0, 0, 0, 0, 0, 0, 0, 0, 0, 0, 0, 0, 0]"	"[0, 0, 0, 0, 0, 0, 0, 0, 0, 0, 0, 0, 0, 0, 0, 0, 0, 1]"	"[0.24162899993825704, 0.43341349996626377, 0.6334315999411047, 0.8002877000253648, 1.0085557999555022, 1.2167475000023842, 1.416836499935016, 1.591905300039798, 1.7919703000225127, 1.9919684999622405, 2.208440199960023, 2.40844729996752, 2.5675366999348626, 2.7842951000202447, 3.0084626999450848, 3.217258599936031, 3.367375100031495, 3.7420839000260457]"	18	"[0.231769600068219, 0.423586199991405, 0.6235747000901029, 0.7904471000656486, 0.9986885000253096, 1.206885699997656, 1.4069817999843508, 1.5820510999765247, 1.7821182999759912, 1.9821042000548914, 2.1985686999978498, 2.3985818000510335, 2.557679000077769, 2.774444999988191, 2.9985995000461116, 3.2074101000325754, 3.357542400015518, 3.732157599995844]"	"[0.29834089998621494, 0.49839199997950345, 0.7237246000440791, 0.8984083000104874, 1.0984332000371069, 1.2984534000279382, 1.4817488000262529, 1.67359690007288, 1.8818169999867678, 2.081881600082852, 2.290502700023353, 2.4572019000770524, 2.650009599979967, 2.829463900066912, 3.065178700024262, 3.3071517000207677, 3.4405539000872523, 3.732161800027825]"	178.4310884999577	178.43640660005622	179.92869910004083	179.94179609999992								34	03	2024-02-27_11h25.32.990	BART_exp	2023.2.3	122.44758024077403	2024-02-27 11h25.41.675587 +0100	
balloon.png	110	0	25	25	25	179.94179609999992													179.92891649995	179.94179609999992	179.94179609999992	179.94179609999992	179.94179609999992	179.94179609999992	-0.0006845000898465514	-0.0006845000898465514	-0.0006845000898465514	179.94179609999992	184.8388924000319	24	1.20	False	"[-0.03796296296296296, -0.03796296296296296, -0.03796296296296296, -0.03796296296296296, -0.03796296296296296, -0.03796296296296296, -0.03796296296296296, -0.03796296296296296, -0.03796296296296296, -0.03796296296296296, -0.03796296296296296, -0.03796296296296296, -0.03796296296296296, -0.03796296296296296, -0.03796296296296296, -0.03796296296296296, -0.03796296296296296, -0.03796296296296296, -0.03796296296296296, -0.03796296296296296, -0.03796296296296296, -0.03796296296296296, -0.03796296296296296, -0.03796296296296296, -0.03796296296296296]"	"[-0.37407407407407406, -0.37407407407407406, -0.37407407407407406, -0.37407407407407406, -0.37407407407407406, -0.37407407407407406, -0.37407407407407406, -0.37407407407407406, -0.37407407407407406, -0.37407407407407406, -0.37407407407407406, -0.37407407407407406, -0.37407407407407406, -0.37407407407407406, -0.37407407407407406, -0.37407407407407406, -0.37407407407407406, -0.37407407407407406, -0.37407407407407406, -0.37407407407407406, -0.37407407407407406, -0.37407407407407406, -0.37407407407407406, -0.37407407407407406, -0.37407407407407406]"	"[1, 1, 1, 1, 1, 1, 1, 1, 1, 1, 1, 1, 1, 1, 1, 1, 1, 1, 1, 1, 1, 1, 1, 1, 0]"	"[0, 0, 0, 0, 0, 0, 0, 0, 0, 0, 0, 0, 0, 0, 0, 0, 0, 0, 0, 0, 0, 0, 0, 0, 0]"	"[0, 0, 0, 0, 0, 0, 0, 0, 0, 0, 0, 0, 0, 0, 0, 0, 0, 0, 0, 0, 0, 0, 0, 0, 1]"	"[0.27510650001931936, 0.4416480000363663, 0.6249493999639526, 0.8083402999909595, 0.9916793999727815, 1.1916947000427172, 1.400092100026086, 1.5917395999422297, 1.791729399934411, 1.991785499965772, 2.19180409994442, 2.4169056999962777, 2.5752323999768123, 2.766886799945496, 2.950369199970737, 3.1421227999962866, 3.317145299981348, 3.517183499992825, 3.733827600022778, 3.9421073000412434, 4.0715470999712124, 4.271332300035283, 4.431662400020286, 4.625373200047761, 4.908868900034577]"	25	"[0.2674622000195086, 0.4340201000450179, 0.6173245999962091, 0.8006953001022339, 0.9840270000277087, 1.184045200003311, 1.3924447000026703, 1.5841079000383615, 1.784161000046879, 1.9841311000054702, 2.184156300034374, 2.4092568000778556, 2.5675941000226885, 2.7592335999943316, 2.9427237000782043, 3.134487700066529, 3.309498800081201, 3.5095519000897184, 3.7261977000162005, 3.9344678000779822, 4.063898700056598, 4.263681899989024, 4.424335599993356, 4.61772820004262, 4.901152600068599]"	"[0.3675656000850722, 0.5339487000601366, 0.7005631000502035, 0.9005693000508472, 1.092322300071828, 1.2922985000768676, 1.4923217000905424, 1.6839932000730187, 1.8839574999874458, 2.0757586000254378, 2.2840232000453398, 2.450758200022392, 2.650755500071682, 2.842433200101368, 3.0507887999992818, 3.242411500075832, 3.434134100098163, 3.625886099995114, 3.8175435001030564, 3.9885960000101477, 4.172021400067024, 4.3645429000025615, 4.592744200024754, 4.7259978000074625, 4.901160100009292]"	184.84001250006258	184.84521599998698	186.33741849998478	186.35169260005932								34	03	2024-02-27_11h25.32.990	BART_exp	2023.2.3	122.44758024077403	2024-02-27 11h25.41.675587 +0100	
balloon.png	101	0	26	26	23	186.35169260005932													186.33763099997304	186.35169260005932	186.35169260005932	186.35169260005932	186.35169260005932	186.35169260005932	-0.0008258000016212463	-0.0008258000016212463	-0.0008258000016212463	186.35169260005932	190.89732620003633	22	1.10	False	"[-0.037037037037037035, -0.037037037037037035, -0.037037037037037035, -0.037037037037037035, -0.037037037037037035, -0.037037037037037035, -0.037037037037037035, -0.037037037037037035, -0.037037037037037035, -0.037037037037037035, -0.037037037037037035, -0.037037037037037035, -0.037037037037037035, -0.037037037037037035, -0.037037037037037035, -0.037037037037037035, -0.037037037037037035, -0.037037037037037035, -0.037037037037037035, -0.037037037037037035, -0.037037037037037035, -0.037037037037037035, -0.037037037037037035]"	"[-0.37407407407407406, -0.37407407407407406, -0.37407407407407406, -0.37407407407407406, -0.37407407407407406, -0.37407407407407406, -0.37407407407407406, -0.37407407407407406, -0.37407407407407406, -0.37407407407407406, -0.37407407407407406, -0.37407407407407406, -0.37407407407407406, -0.37407407407407406, -0.37407407407407406, -0.37407407407407406, -0.37407407407407406, -0.37407407407407406, -0.37407407407407406, -0.37407407407407406, -0.37407407407407406, -0.37407407407407406, -0.37407407407407406]"	"[1, 1, 1, 1, 1, 1, 1, 1, 1, 1, 1, 1, 1, 1, 1, 1, 1, 1, 1, 1, 1, 1, 0]"	"[0, 0, 0, 0, 0, 0, 0, 0, 0, 0, 0, 0, 0, 0, 0, 0, 0, 0, 0, 0, 0, 0, 0]"	"[0, 0, 0, 0, 0, 0, 0, 0, 0, 0, 0, 0, 0, 0, 0, 0, 0, 0, 0, 0, 0, 0, 1]"	"[0.10914780001621693, 0.27577000006567687, 0.4502620999701321, 0.6427697000326589, 0.8253907000180334, 1.0002692000707611, 1.2001295000081882, 1.433480600011535, 1.6084728999994695, 1.825120700057596, 2.016861299984157, 2.242028300068341, 2.458677400019951, 2.6670937000308186, 2.8837878999765962, 3.0837989000137895, 3.3004128000466153, 3.508731000008993, 3.7087542000226676, 3.8922616000054404, 4.0921357000479475, 4.350400299998, 4.558626200072467]"	23	"[0.10031810007058084, 0.26694740005768836, 0.44140300003346056, 0.6339712000917643, 0.8165790000930429, 0.991423700004816, 1.1912695000646636, 1.4246400000993162, 1.599675300065428, 1.8163032000884414, 2.0080049000680447, 2.233224300085567, 2.449867300107144, 2.658260300057009, 2.8749348000856116, 3.074943600106053, 3.2915560000110418, 3.499868700047955, 3.6998987999977544, 3.8834231999935582, 4.083278500009328, 4.341546300100163, 4.549698100076057]"	"[0.1744930000277236, 0.35781600000336766, 0.5498732000123709, 0.7410756000317633, 0.9163714000023901, 1.0829543001018465, 1.2744563000742346, 1.4996063000289723, 1.6662025999976322, 1.874494899995625, 2.110063900006935, 2.3494840000057593, 2.5746790000703186, 2.7828888000221923, 3.00795310002286, 3.1829109000973403, 3.39956930000335, 3.5995901999995112, 3.7913350000744686, 3.9996515000239015, 4.149626000085846, 4.416281900019385, 4.549702399992384]"	190.8983956000302	190.9039087999845	192.3962757999543	192.41206220001914								34	03	2024-02-27_11h25.32.990	BART_exp	2023.2.3	122.44758024077403	2024-02-27 11h25.41.675587 +0100	
balloon.png	105	0	27	27	24	192.41206220001914													192.3965223999694	192.41206220001914	192.41206220001914	192.41206220001914	192.41206220001914	192.41206220001914	-0.00018370000179857016	-0.00018370000179857016	-0.00018370000179857016	192.41206220001914	196.9233508000616	21	1.05	False	"[-0.037037037037037035, -0.037037037037037035, -0.037037037037037035, -0.037037037037037035, -0.037037037037037035, -0.037037037037037035, -0.037037037037037035, -0.037037037037037035, -0.037037037037037035, -0.037037037037037035, -0.037037037037037035, -0.037037037037037035, -0.037037037037037035, -0.037037037037037035, -0.037037037037037035, -0.037037037037037035, -0.037037037037037035, -0.037037037037037035, -0.037037037037037035, -0.037037037037037035, -0.037037037037037035, -0.037037037037037035]"	"[-0.37407407407407406, -0.37407407407407406, -0.37407407407407406, -0.37407407407407406, -0.37407407407407406, -0.37407407407407406, -0.37407407407407406, -0.37407407407407406, -0.37407407407407406, -0.37407407407407406, -0.37407407407407406, -0.37407407407407406, -0.37407407407407406, -0.37407407407407406, -0.37407407407407406, -0.37407407407407406, -0.37407407407407406, -0.37407407407407406, -0.37407407407407406, -0.37407407407407406, -0.37407407407407406, -0.37407407407407406]"	"[1, 1, 1, 1, 1, 1, 1, 1, 1, 1, 1, 1, 1, 1, 1, 1, 1, 1, 1, 1, 1, 0]"	"[0, 0, 0, 0, 0, 0, 0, 0, 0, 0, 0, 0, 0, 0, 0, 0, 0, 0, 0, 0, 0, 0]"	"[0, 0, 0, 0, 0, 0, 0, 0, 0, 0, 0, 0, 0, 0, 0, 0, 0, 0, 0, 0, 0, 1]"	"[0.19194180006161332, 0.35834890010301024, 0.5332864000229165, 0.7251209000824019, 0.9083617000142112, 1.0917798000155017, 1.2917102000210434, 1.6585842000786215, 1.8501343000680208, 2.042048000032082, 2.2669799000723287, 2.442190800094977, 2.6590200000209734, 2.8921820000978187, 3.1000853000441566, 3.2667411000002176, 3.483401200035587, 3.683471200056374, 3.883423599996604, 4.066821000073105, 4.233656399999745, 4.525217500049621]"	22	"[0.18169270001817495, 0.3480802000267431, 0.5230093999998644, 0.7148536000167951, 0.8980890000239015, 1.0815062000183389, 1.2814345000078902, 1.6483168000122532, 1.8398722000420094, 2.0318381000543013, 2.2567134000128135, 2.4319302999647334, 2.648753699962981, 2.8819133000215515, 3.089811100042425, 3.2564649999840185, 3.4731310000643134, 3.6731990000698715, 3.8731503000017256, 4.056597399991006, 4.223375800065696, 4.514917199965566]"	"[0.23953030002303421, 0.44793140003457665, 0.61462260002736, 0.7980454000644386, 0.9979840000160038, 1.1812832000432536, 1.3813789000269026, 1.7480733999982476, 1.9396795000648126, 2.1315391999669373, 2.3230199000099674, 2.5483378999633715, 2.7563512000488117, 2.9897255999967456, 3.182119100005366, 3.3563589999685064, 3.5565917000640184, 3.7730441000312567, 3.9817196000367403, 4.148354200064205, 4.3064815000398085, 4.514922000002116]"	196.9244659000542	196.92931010003667	198.42147479997948	198.43039610004053								34	03	2024-02-27_11h25.32.990	BART_exp	2023.2.3	122.44758024077403	2024-02-27 11h25.41.675587 +0100	
balloon.png	49	0	28	28	11	198.43039610004053													198.42169380001724	198.43039610004053	198.43039610004053	198.43039610004053	198.43039610004053	198.43039610004053	0.006006699986755848	0.006006699986755848	0.006006699986755848	198.43039610004053	202.94858830003068	23	1.15	False	"[-0.037037037037037035, -0.03796296296296296, -0.03796296296296296, -0.03796296296296296, -0.03796296296296296, -0.03796296296296296, -0.03796296296296296, -0.03796296296296296, -0.03796296296296296, -0.03796296296296296, -0.03796296296296296, -0.03796296296296296, -0.03796296296296296, -0.03796296296296296, -0.03796296296296296, -0.03796296296296296, -0.03796296296296296, -0.03796296296296296, -0.03796296296296296, -0.03796296296296296, -0.03796296296296296, -0.03796296296296296, -0.03796296296296296]"	"[-0.37407407407407406, -0.37407407407407406, -0.37407407407407406, -0.37407407407407406, -0.37407407407407406, -0.37407407407407406, -0.37407407407407406, -0.37407407407407406, -0.37407407407407406, -0.37407407407407406, -0.37407407407407406, -0.37407407407407406, -0.37407407407407406, -0.37407407407407406, -0.37407407407407406, -0.37407407407407406, -0.37407407407407406, -0.37407407407407406, -0.37407407407407406, -0.37407407407407406, -0.37407407407407406, -0.37407407407407406, -0.37407407407407406]"	"[1, 1, 1, 1, 1, 1, 1, 1, 1, 1, 1, 1, 1, 1, 1, 1, 1, 1, 1, 1, 1, 1, 0]"	"[0, 0, 0, 0, 0, 0, 0, 0, 0, 0, 0, 0, 0, 0, 0, 0, 0, 0, 0, 0, 0, 0, 0]"	"[0, 0, 0, 0, 0, 0, 0, 0, 0, 0, 0, 0, 0, 0, 0, 0, 0, 0, 0, 0, 0, 0, 1]"	"[0.10851389996241778, 0.3002617999445647, 0.49188230000436306, 0.6752360999817029, 0.8668508999980986, 1.0586042000213638, 1.2336374999722466, 1.408874599961564, 1.6170930999796838, 1.8088953000260517, 2.017139900010079, 2.2172258000355214, 2.433660399983637, 2.6336564000230283, 2.8172179999528453, 3.017225099960342, 3.225488999974914, 3.409005200024694, 3.62573379999958, 3.800605500000529, 3.9594556000083685, 4.159128800034523, 4.525768999941647]"	23	"[0.1052413999568671, 0.2969806999899447, 0.48859900003299117, 0.6719498999882489, 0.8635686000343412, 1.0553376999450848, 1.2303546000039205, 1.405612300033681, 1.6138149000471458, 1.8056205000029877, 2.013861099956557, 2.2139537000330165, 2.4303742999909446, 2.6303746999474242, 2.8139339999761432, 3.013955899979919, 3.222210800042376, 3.4057313000084832, 3.6224786000093445, 3.7973247999325395, 3.9562139000045136, 4.155887400032952, 4.5224323000293225]"	"[0.22179620002862066, 0.40515400003641844, 0.5885651999851689, 0.7885622000321746, 0.9886312000453472, 1.155250299954787, 1.3386116999899969, 1.5218384999316186, 1.7135240000206977, 1.905342899961397, 2.105322999996133, 2.313586000003852, 2.538694699993357, 2.7386264000087976, 2.930326099973172, 3.113672100007534, 3.313711400027387, 3.513752599945292, 3.7054938999935985, 3.8887982999440283, 4.080381299951114, 4.272807499975897, 4.5224365999456495]"	202.9497378000524	202.95473500003573	204.44767899997532	204.46157230006065								34	03	2024-02-27_11h25.32.990	BART_exp	2023.2.3	122.44758024077403	2024-02-27 11h25.41.675587 +0100	
balloon.png	44	0	29	29	10	204.46157230006065													204.4478940999834	204.46157230006065	204.46157230006065	204.46157230006065	204.46157230006065	204.46157230006065	-0.00011550006456673145	-0.00011550006456673145	-0.00011550006456673145	204.46157230006065	208.92375580000225	21	1.05	False	"[-0.03796296296296296, -0.03796296296296296, -0.03888888888888889, -0.03888888888888889, -0.03888888888888889, -0.03981481481481482, -0.03796296296296296, -0.03796296296296296, -0.03796296296296296, -0.03796296296296296, -0.03796296296296296, -0.03796296296296296, -0.03796296296296296, -0.03796296296296296, -0.03796296296296296, -0.03796296296296296, -0.03796296296296296, -0.03796296296296296, -0.03796296296296296, -0.03796296296296296, -0.03796296296296296, -0.03796296296296296]"	"[-0.37407407407407406, -0.37407407407407406, -0.375, -0.375, -0.375, -0.3768518518518518, -0.3768518518518518, -0.3768518518518518, -0.3768518518518518, -0.3768518518518518, -0.3768518518518518, -0.3768518518518518, -0.3768518518518518, -0.3768518518518518, -0.3768518518518518, -0.3768518518518518, -0.3768518518518518, -0.3768518518518518, -0.3768518518518518, -0.3768518518518518, -0.3768518518518518, -0.3768518518518518]"	"[1, 1, 1, 1, 1, 1, 1, 1, 1, 1, 1, 1, 1, 1, 1, 1, 1, 1, 1, 1, 1, 0]"	"[0, 0, 0, 0, 0, 0, 0, 0, 0, 0, 0, 0, 0, 0, 0, 0, 0, 0, 0, 0, 0, 0]"	"[0, 0, 0, 0, 0, 0, 0, 0, 0, 0, 0, 0, 0, 0, 0, 0, 0, 0, 0, 0, 0, 1]"	"[0.24102179997134954, 0.4330201999982819, 0.6163164000026882, 0.8076941999606788, 1.007783000008203, 1.2076970000052825, 1.4411016999511048, 1.6161376999225467, 1.8078548000194132, 1.9912819999735802, 2.2244858000194654, 2.416119399946183, 2.616133200004697, 2.8161555000115186, 3.02458830003161, 3.2494664000114426, 3.44127029995434, 3.6245714999968186, 3.8579568000277504, 4.0495366000104696, 4.199584899935871, 4.474737499956973]"	22	"[0.2324821000220254, 0.4244939999189228, 0.6078088999493048, 0.7991476999595761, 0.9992396000307053, 1.1991745999548584, 1.4325596999842674, 1.60764169995673, 1.7993139999452978, 1.9827352999709547, 2.215947199962102, 2.4075751999625936, 2.6075930999359116, 2.8076109000248834, 3.0160508999833837, 3.240921000018716, 3.4327282999875024, 3.616030399920419, 3.8494109000312164, 4.040994699927978, 4.191041799960658, 4.466132099973038]"	"[0.3156602999661118, 0.5324232999701053, 0.707644599955529, 0.9077316999901086, 1.0911597999511287, 1.2990879999706522, 1.4824443999677896, 1.6991361000109464, 1.907617099932395, 2.082526099984534, 2.2825140999630094, 2.4992747999494895, 2.707472699927166, 2.890837399987504, 3.0992901999270543, 3.3325974999461323, 3.524154099985026, 3.724218999966979, 3.907579499995336, 4.090918899979442, 4.349425800028257, 4.466136500006542]"	208.92483489995357	208.93015070003457	210.4224282000214	210.4304994000122								34	03	2024-02-27_11h25.32.990	BART_exp	2023.2.3	122.44758024077403	2024-02-27 11h25.41.675587 +0100	
																																														210.42246759997215	210.4304994000122	210.4304994000122	222.32351789996028	space	11.885300200083293	None	34	03	2024-02-27_11h25.32.990	BART_exp	2023.2.3	122.44758024077403	2024-02-27 11h25.41.675587 +0100	
