diceImage	d_number	dice_loop.thisRepN	dice_loop.thisTrialN	dice_loop.thisN	dice_loop.thisIndex	thisRow.t	notes	Start.started	text_start.started	continue_start.started	mouse_start.started	Start.stopped	mouse_start.x	mouse_start.y	mouse_start.leftButton	mouse_start.midButton	mouse_start.rightButton	mouse_start.time	trial.started	box_dice.started	text_dice_header.started	text_gain.started	value_gain.started	text_bank.started	value_bank.started	img_dice_1.started	img_dice_2.started	img_dice_3.started	img_dice_4.started	img_dice_5.started	img_dice_6.started	img_dice_1_2.started	img_dice_3_4.started	img_dice_5_6.started	img_dice_1_2_3.started	img_dice_4_5_6.started	img_dice_1_2_3_4.started	img_dice_2_3_4_5.started	img_dice_3_4_5_6.started	text_value_header.started	text_value_1000.started	text_value_500.started	text_value_200.started	text_value_100.started	mouse_task.started	gain_sound.started	img_dice_throw_trials.started	gain_sound.stopped	img_dice_throw_trials.stopped	trial.stopped	mouse_task.x	mouse_task.y	mouse_task.leftButton	mouse_task.midButton	mouse_task.rightButton	mouse_task.time	choice	gain	loss_sound.started	End.started	text_end.started	key_end.started	End.stopped	key_end.keys	key_end.rt	key_end.duration	participant	session	date	expName	psychopyVersion	frameRate	expStart	
								0.03939870000249357	0.04455640000014682	0.04455640000014682	0.03974479999669711	27.52205280000271	[0.7157407407407408]	[-0.4009259259259259]	[1]	[0]	[0]	[27.481634499999927]																																																	10	02	2024-02-06_16h42.12.580	GDT_exp	2023.2.3	119.99011281624581	2024-02-06 16h42.21.164775 +0100	
dice_4.png	4	0	0	0	3	27.60488020000048													27.526919500000076	27.60488020000048	27.60488020000048	27.60488020000048	27.60488020000048	27.60488020000048	27.60488020000048	27.60488020000048	27.60488020000048	27.60488020000048	27.60488020000048	27.60488020000048	27.60488020000048	27.60488020000048	27.60488020000048	27.60488020000048	27.60488020000048	27.60488020000048	27.60488020000048	27.60488020000048	27.60488020000048	27.60488020000048	27.60488020000048	27.60488020000048	27.60488020000048	27.60488020000048	0.022642100000666687	2.3579300999990664	29.946658800003206	3.866295399999217	31.48856920000253	31.4491270000035	"[-0.2574074074074074, -0.2574074074074074]"	"[-0.3277777777777778, -0.3277777777777778]"	"[1, 0]"	"[0, 0]"	"[0, 1]"	"[1.7457266000019445, 2.304130200001964]"	4	100									10	02	2024-02-06_16h42.12.580	GDT_exp	2023.2.3	119.99011281624581	2024-02-06 16h42.21.164775 +0100	
dice_5.png	5	0	1	1	4	31.48856920000253													31.449939600002836	31.48856920000253	31.48856920000253	31.48856920000253	31.48856920000253	31.48856920000253	31.48856920000253	31.48856920000253	31.48856920000253	31.48856920000253	31.48856920000253	31.48856920000253	31.48856920000253	31.48856920000253	31.48856920000253	31.48856920000253	31.48856920000253	31.48856920000253	31.48856920000253	31.48856920000253	31.48856920000253	31.48856920000253	31.48856920000253	31.48856920000253	31.48856920000253	31.48856920000253	0.014529899999615736	2.2388250999974844	33.75530390000131	3.7390932999987854	35.3303713000023	35.28260780000346	"[0.025925925925925925, -0.05925925925925926]"	"[-0.3490740740740741, -0.3490740740740741]"	"[1, 0]"	"[0, 0]"	"[0, 1]"	"[1.5740100999973947, 2.224108200000046]"	4	100									10	02	2024-02-06_16h42.12.580	GDT_exp	2023.2.3	119.99011281624581	2024-02-06 16h42.21.164775 +0100	
dice_3.png	3	0	2	2	2	35.3303713000023													35.283156400000735	35.3303713000023	35.3303713000023	35.3303713000023	35.3303713000023	35.3303713000023	35.3303713000023	35.3303713000023	35.3303713000023	35.3303713000023	35.3303713000023	35.3303713000023	35.3303713000023	35.3303713000023	35.3303713000023	35.3303713000023	35.3303713000023	35.3303713000023	35.3303713000023	35.3303713000023	35.3303713000023	35.3303713000023	35.3303713000023	35.3303713000023	35.3303713000023	35.3303713000023	0.017452700001740595	2.405846099998598	37.764009200000146	3.939323200000217	39.339130600001226	39.29123410000102	"[-0.45925925925925926, -0.2935185185185185]"	"[-0.2675925925925926, -0.2657407407407407]"	"[1, 0]"	"[0, 0]"	"[0, 1]"	"[1.762811900000088, 2.387983799999347]"	3	200									10	02	2024-02-06_16h42.12.580	GDT_exp	2023.2.3	119.99011281624581	2024-02-06 16h42.21.164775 +0100	
dice_2.png	2	0	3	3	1	39.339130600001226													39.29180400000041	39.339130600001226	39.339130600001226	39.339130600001226	39.339130600001226	39.339130600001226	39.339130600001226	39.339130600001226	39.339130600001226	39.339130600001226	39.339130600001226	39.339130600001226	39.339130600001226	39.339130600001226	39.339130600001226	39.339130600001226	39.339130600001226	39.339130600001226	39.339130600001226	39.339130600001226	39.339130600001226	39.339130600001226	39.339130600001226	39.339130600001226	39.339130600001226	39.339130600001226	0.017710000000079162		41.47248660000332		43.02256220000345	42.98356750000312	"[-0.1, 0.05277777777777778]"	"[-0.25462962962962965, -0.23333333333333334]"	"[1, 0]"	"[0, 0]"	"[0, 1]"	"[1.1048035000021628, 2.0796700000028068]"	3	-200	2.0974703000028967								10	02	2024-02-06_16h42.12.580	GDT_exp	2023.2.3	119.99011281624581	2024-02-06 16h42.21.164775 +0100	
dice_6.png	6	0	4	4	5	43.02256220000345													42.98414950000006	43.02256220000345	43.02256220000345	43.02256220000345	43.02256220000345	43.02256220000345	43.02256220000345	43.02256220000345	43.02256220000345	43.02256220000345	43.02256220000345	43.02256220000345	43.02256220000345	43.02256220000345	43.02256220000345	43.02256220000345	43.02256220000345	43.02256220000345	43.02256220000345	43.02256220000345	43.02256220000345	43.02256220000345	43.02256220000345	43.02256220000345	43.02256220000345	43.02256220000345	0.014901600003213389		44.80603970000084		46.34779300000082	46.30870110000251	"[-0.40370370370370373, -0.29074074074074074]"	"[-0.24351851851851852, -0.2388888888888889]"	"[1, 0]"	"[0, 0]"	"[0, 1]"	"[1.1236986000003526, 1.7320332000017515]"	3	-200	1.7470369000002393								10	02	2024-02-06_16h42.12.580	GDT_exp	2023.2.3	119.99011281624581	2024-02-06 16h42.21.164775 +0100	
dice_1.png	1	0	5	5	0	46.34779300000082													46.3092957000008	46.34779300000082	46.34779300000082	46.34779300000082	46.34779300000082	46.34779300000082	46.34779300000082	46.34779300000082	46.34779300000082	46.34779300000082	46.34779300000082	46.34779300000082	46.34779300000082	46.34779300000082	46.34779300000082	46.34779300000082	46.34779300000082	46.34779300000082	46.34779300000082	46.34779300000082	46.34779300000082	46.34779300000082	46.34779300000082	46.34779300000082	46.34779300000082	46.34779300000082	0.014615500000218162		47.54787270000088		49.131329700001515	49.07565710000199	"[-0.262037037037037, -0.13425925925925927]"	"[-0.33796296296296297, -0.33611111111111114]"	"[1, 0]"	"[0, 0]"	"[0, 1]"	"[0.4240329999993264, 1.14067150000119]"	4	-100	1.1554176999998163								10	02	2024-02-06_16h42.12.580	GDT_exp	2023.2.3	119.99011281624581	2024-02-06 16h42.21.164775 +0100	
dice_6.png	6	1	0	6	5	49.131329700001515													49.07625730000291	49.131329700001515	49.131329700001515	49.131329700001515	49.131329700001515	49.131329700001515	49.131329700001515	49.131329700001515	49.131329700001515	49.131329700001515	49.131329700001515	49.131329700001515	49.131329700001515	49.131329700001515	49.131329700001515	49.131329700001515	49.131329700001515	49.131329700001515	49.131329700001515	49.131329700001515	49.131329700001515	49.131329700001515	49.131329700001515	49.131329700001515	49.131329700001515	49.131329700001515	0.018767400000797352		50.7649104000011		52.32323310000356	52.27582870000333	"[-0.5787037037037037, -0.4777777777777778]"	"[-0.3490740740740741, -0.3388888888888889]"	"[1, 0]"	"[0, 0]"	"[0, 1]"	"[0.7612723999991431, 1.5947291000011319]"	4	-100	1.6136531000011018								10	02	2024-02-06_16h42.12.580	GDT_exp	2023.2.3	119.99011281624581	2024-02-06 16h42.21.164775 +0100	
dice_3.png	3	1	1	7	2	52.32323310000356													52.2763558000006	52.32323310000356	52.32323310000356	52.32323310000356	52.32323310000356	52.32323310000356	52.32323310000356	52.32323310000356	52.32323310000356	52.32323310000356	52.32323310000356	52.32323310000356	52.32323310000356	52.32323310000356	52.32323310000356	52.32323310000356	52.32323310000356	52.32323310000356	52.32323310000356	52.32323310000356	52.32323310000356	52.32323310000356	52.32323310000356	52.32323310000356	52.32323310000356	52.32323310000356	0.017739099999744212	1.4637495999995735	53.80676240000321	2.997240900000179	55.373420000003534	55.334143400003086	"[-0.2833333333333333, -0.10740740740740741]"	"[-0.35648148148148145, -0.35]"	"[1, 0]"	"[0, 0]"	"[0, 1]"	"[0.8292572999998811, 1.4457872999992105]"	4	100									10	02	2024-02-06_16h42.12.580	GDT_exp	2023.2.3	119.99011281624581	2024-02-06 16h42.21.164775 +0100	
dice_5.png	5	1	2	8	4	55.373420000003534													55.33467170000222	55.373420000003534	55.373420000003534	55.373420000003534	55.373420000003534	55.373420000003534	55.373420000003534	55.373420000003534	55.373420000003534	55.373420000003534	55.373420000003534	55.373420000003534	55.373420000003534	55.373420000003534	55.373420000003534	55.373420000003534	55.373420000003534	55.373420000003534	55.373420000003534	55.373420000003534	55.373420000003534	55.373420000003534	55.373420000003534	55.373420000003534	55.373420000003534	55.373420000003534	0.014783100003114669	1.3556530000023486	56.765171300001384	2.8892795000028855	58.340290500000265	58.30183280000347	"[0.07777777777777778, 0.24166666666666667]"	"[-0.3509259259259259, -0.3296296296296296]"	"[1, 0]"	"[0, 0]"	"[0, 1]"	"[0.715717200000654, 1.340725800000655]"	4	100									10	02	2024-02-06_16h42.12.580	GDT_exp	2023.2.3	119.99011281624581	2024-02-06 16h42.21.164775 +0100	
dice_1.png	1	1	3	9	0	58.340290500000265													58.3025587000011	58.340290500000265	58.340290500000265	58.340290500000265	58.340290500000265	58.340290500000265	58.340290500000265	58.340290500000265	58.340290500000265	58.340290500000265	58.340290500000265	58.340290500000265	58.340290500000265	58.340290500000265	58.340290500000265	58.340290500000265	58.340290500000265	58.340290500000265	58.340290500000265	58.340290500000265	58.340290500000265	58.340290500000265	58.340290500000265	58.340290500000265	58.340290500000265	58.340290500000265	0.015378099997178651	1.663038399998186	60.03214050000315	3.163145499998791	61.59900640000342	61.559576300001936	"[-0.4685185185185185, -0.2814814814814815]"	"[-0.2574074074074074, -0.2518518518518518]"	"[1, 0]"	"[0, 0]"	"[0, 1]"	"[1.0557217999994464, 1.647337399997923]"	3	200									10	02	2024-02-06_16h42.12.580	GDT_exp	2023.2.3	119.99011281624581	2024-02-06 16h42.21.164775 +0100	
dice_4.png	4	1	4	10	3	61.59900640000342													61.56011230000149	61.59900640000342	61.59900640000342	61.59900640000342	61.59900640000342	61.59900640000342	61.59900640000342	61.59900640000342	61.59900640000342	61.59900640000342	61.59900640000342	61.59900640000342	61.59900640000342	61.59900640000342	61.59900640000342	61.59900640000342	61.59900640000342	61.59900640000342	61.59900640000342	61.59900640000342	61.59900640000342	61.59900640000342	61.59900640000342	61.59900640000342	61.59900640000342	61.59900640000342	0.014521400000376161	1.6139737000012246	63.24894740000309	3.130788999998913	64.80741180000041	64.75990450000245	"[-0.2462962962962963, -0.24351851851851852]"	"[-0.16296296296296298, -0.21481481481481482]"	"[1, 0]"	"[0, 0]"	"[0, 1]"	"[0.9491965000015625, 1.5992442999995546]"	2	500									10	02	2024-02-06_16h42.12.580	GDT_exp	2023.2.3	119.99011281624581	2024-02-06 16h42.21.164775 +0100	
dice_2.png	2	1	5	11	1	64.80741180000041													64.76044890000048	64.80741180000041	64.80741180000041	64.80741180000041	64.80741180000041	64.80741180000041	64.80741180000041	64.80741180000041	64.80741180000041	64.80741180000041	64.80741180000041	64.80741180000041	64.80741180000041	64.80741180000041	64.80741180000041	64.80741180000041	64.80741180000041	64.80741180000041	64.80741180000041	64.80741180000041	64.80741180000041	64.80741180000041	64.80741180000041	64.80741180000041	64.80741180000041	64.80741180000041	0.017821299999923212		67.29924780000147		68.84933620000083	68.81015480000133	"[0.06851851851851852, 0.09722222222222222]"	"[-0.13703703703703704, -0.20277777777777778]"	"[1, 0]"	"[0, 0]"	"[0, 1]"	"[1.854379100001097, 2.454133399998682]"	2	-500	2.4723201999986486								10	02	2024-02-06_16h42.12.580	GDT_exp	2023.2.3	119.99011281624581	2024-02-06 16h42.21.164775 +0100	
dice_4.png	4	2	0	12	3	68.84933620000083													68.81069080000088	68.84933620000083	68.84933620000083	68.84933620000083	68.84933620000083	68.84933620000083	68.84933620000083	68.84933620000083	68.84933620000083	68.84933620000083	68.84933620000083	68.84933620000083	68.84933620000083	68.84933620000083	68.84933620000083	68.84933620000083	68.84933620000083	68.84933620000083	68.84933620000083	68.84933620000083	68.84933620000083	68.84933620000083	68.84933620000083	68.84933620000083	68.84933620000083	68.84933620000083	0.014592499999707798	1.44722599999659	70.32443870000134	2.955804999997781	71.86626750000141	71.82686110000213	"[-0.11296296296296296, -0.10185185185185185]"	"[-0.2537037037037037, -0.2953703703703704]"	"[1, 0]"	"[0, 0]"	"[0, 1]"	"[0.8825417000007292, 1.4325401000023703]"	3	200									10	02	2024-02-06_16h42.12.580	GDT_exp	2023.2.3	119.99011281624581	2024-02-06 16h42.21.164775 +0100	
dice_5.png	5	2	1	13	4	71.86626750000141													71.82741830000305	71.86626750000141	71.86626750000141	71.86626750000141	71.86626750000141	71.86626750000141	71.86626750000141	71.86626750000141	71.86626750000141	71.86626750000141	71.86626750000141	71.86626750000141	71.86626750000141	71.86626750000141	71.86626750000141	71.86626750000141	71.86626750000141	71.86626750000141	71.86626750000141	71.86626750000141	71.86626750000141	71.86626750000141	71.86626750000141	71.86626750000141	71.86626750000141	71.86626750000141	0.014496399999188725		73.9580479000033		75.5083080000004	75.46918630000073	"[-0.4462962962962963, -0.2574074074074074]"	"[-0.2638888888888889, -0.25925925925925924]"	"[1, 0]"	"[0, 0]"	"[0, 1]"	"[1.5159598000027472, 2.04101079999964]"	3	-200	2.055740899999364								10	02	2024-02-06_16h42.12.580	GDT_exp	2023.2.3	119.99011281624581	2024-02-06 16h42.21.164775 +0100	
dice_6.png	6	2	2	14	5	75.5083080000004													75.4698019000025	75.5083080000004	75.5083080000004	75.5083080000004	75.5083080000004	75.5083080000004	75.5083080000004	75.5083080000004	75.5083080000004	75.5083080000004	75.5083080000004	75.5083080000004	75.5083080000004	75.5083080000004	75.5083080000004	75.5083080000004	75.5083080000004	75.5083080000004	75.5083080000004	75.5083080000004	75.5083080000004	75.5083080000004	75.5083080000004	75.5083080000004	75.5083080000004	75.5083080000004	0.015045399999507936		76.62489050000295		78.20011880000311	78.16077010000299	"[-0.2175925925925926, -0.13148148148148148]"	"[-0.34629629629629627, -0.3472222222222222]"	"[1, 0]"	"[0, 0]"	"[0, 1]"	"[0.47323450000112643, 1.0734468000009656]"	4	-100	1.0885621999987052								10	02	2024-02-06_16h42.12.580	GDT_exp	2023.2.3	119.99011281624581	2024-02-06 16h42.21.164775 +0100	
dice_2.png	2	2	3	15	1	78.20011880000311													78.16135340000255	78.20011880000311	78.20011880000311	78.20011880000311	78.20011880000311	78.20011880000311	78.20011880000311	78.20011880000311	78.20011880000311	78.20011880000311	78.20011880000311	78.20011880000311	78.20011880000311	78.20011880000311	78.20011880000311	78.20011880000311	78.20011880000311	78.20011880000311	78.20011880000311	78.20011880000311	78.20011880000311	78.20011880000311	78.20011880000311	78.20011880000311	78.20011880000311	78.20011880000311	0.01455559999885736	1.838895799999591	80.0667717000033	3.3474020999965433	81.60870500000237	81.56951079999999	"[-0.5648148148148148, -0.4287037037037037]"	"[-0.3527777777777778, -0.3351851851851852]"	"[1, 0]"	"[0, 0]"	"[0, 1]"	"[1.324334799999633, 1.824091500002396]"	4	100									10	02	2024-02-06_16h42.12.580	GDT_exp	2023.2.3	119.99011281624581	2024-02-06 16h42.21.164775 +0100	
dice_1.png	1	2	4	16	0	81.60870500000237													81.57010940000328	81.60870500000237	81.60870500000237	81.60870500000237	81.60870500000237	81.60870500000237	81.60870500000237	81.60870500000237	81.60870500000237	81.60870500000237	81.60870500000237	81.60870500000237	81.60870500000237	81.60870500000237	81.60870500000237	81.60870500000237	81.60870500000237	81.60870500000237	81.60870500000237	81.60870500000237	81.60870500000237	81.60870500000237	81.60870500000237	81.60870500000237	81.60870500000237	81.60870500000237	0.01484590000109165		83.02530770000158		84.60043390000283	84.56130250000206	"[-0.31574074074074077, -0.12222222222222222]"	"[-0.3574074074074074, -0.3638888888888889]"	"[1, 0]"	"[0, 0]"	"[0, 1]"	"[0.7319525000020803, 1.3652958999991824]"	4	-100	1.3803676999996242								10	02	2024-02-06_16h42.12.580	GDT_exp	2023.2.3	119.99011281624581	2024-02-06 16h42.21.164775 +0100	
dice_3.png	3	2	5	17	2	84.60043390000283													84.5618807000028	84.60043390000283	84.60043390000283	84.60043390000283	84.60043390000283	84.60043390000283	84.60043390000283	84.60043390000283	84.60043390000283	84.60043390000283	84.60043390000283	84.60043390000283	84.60043390000283	84.60043390000283	84.60043390000283	84.60043390000283	84.60043390000283	84.60043390000283	84.60043390000283	84.60043390000283	84.60043390000283	84.60043390000283	84.60043390000283	84.60043390000283	84.60043390000283	84.60043390000283	0.014695199999550823	1.0220910999996704	85.65040800000133	2.555581599997822	87.19226120000167	87.17782850000003	"[-0.24074074074074073, -0.1361111111111111]"	"[-0.35833333333333334, -0.35]"	"[1, 0]"	"[0, 0]"	"[0, 1]"	"[0.39877659999910975, 1.0071038999994926]"	4	100									10	02	2024-02-06_16h42.12.580	GDT_exp	2023.2.3	119.99011281624581	2024-02-06 16h42.21.164775 +0100	
																																																												87.17828640000153	87.19226120000167	87.19226120000167	96.61835440000141	space	9.424539300001925	None	10	02	2024-02-06_16h42.12.580	GDT_exp	2023.2.3	119.99011281624581	2024-02-06 16h42.21.164775 +0100	
