"image"	"max_pumps"	"pump_loop.thisRepN"	"pump_loop.thisTrialN"	"pump_loop.thisN"	"pump_loop.thisIndex"	"thisRow.t"	"notes"	"Start.started"	"text_start.started"	"continue_start.started"	"mouse_start.started"	"Start.stopped"	"mouse_start.x"	"mouse_start.y"	"mouse_start.leftButton"	"mouse_start.midButton"	"mouse_start.rightButton"	"mouse_start.time"	"trials.started"	"stim_balloon.started"	"stim_balloon_burst.started"	"stim_balloon_burst.stopped"	"text_ballon_value.started"	"text_bank.started"	"mouse.started"	"sound_bang.started"	"sound_bang.stopped"	"button_balloon.started"	"trials.stopped"	"n_pumps"	"earnings"	"popped"	"mouse.x"	"mouse.y"	"mouse.leftButton"	"mouse.midButton"	"mouse.rightButton"	"mouse.time"	"button_balloon.numClicks"	"button_balloon.timesOn"	"button_balloon.timesOff"	"Feedback.started"	"text_feedback.started"	"Feedback.stopped"	"text_feedback.stopped"	"End.started"	"text_end.started"	"key_end.started"	"End.stopped"	"key_end.keys"	"key_end.rt"	"key_end.duration"	"participant"	"session"	"date"	"expName"	"psychopyVersion"	"frameRate"	"expStart"	"...61"
NA	NA	NA	NA	NA	NA	NA	NA	0.0505999000743032	0.0618396000936627	0.0618396000936627	0.05092860001605	51.3161179000745	"[0.6768518518518518]"	"[-0.362962962962963]"	"[1]"	"[0]"	"[0]"	"[51.2645962999668]"	NA	NA	NA	NA	NA	NA	NA	NA	NA	NA	NA	NA	NA	NA	NA	NA	NA	NA	NA	NA	NA	NA	NA	NA	NA	NA	NA	NA	NA	NA	NA	NA	NA	NA	24	"03"	"2024-02-15_13h24.06.825"	"BART_exp"	"2023.2.3"	120.000048056264	"2024-02-15 13h24.17.893928 +0100"	NA
"balloon.png"	114	0	0	0	26	51.3904788000509	NA	NA	NA	NA	NA	NA	NA	NA	NA	NA	NA	NA	51.3223063000478	51.3904788000509	51.3904788000509	51.3904788000509	51.3904788000509	51.3904788000509	0.00791740010026842	0.00791740010026842	0.00791740010026842	51.3904788000509	55.9090745000867	9	0.45	FALSE	"[-0.012037037037037037, -0.012037037037037037, -0.012037037037037037, -0.012037037037037037, -0.012037037037037037, -0.012037037037037037, -0.012037037037037037, -0.012037037037037037, -0.012037037037037037, -0.012037037037037037]"	"[-0.39814814814814814, -0.39814814814814814, -0.39814814814814814, -0.39814814814814814, -0.39814814814814814, -0.39814814814814814, -0.39814814814814814, -0.39814814814814814, -0.39814814814814814, -0.39537037037037037]"	"[1, 1, 1, 1, 1, 1, 1, 1, 1, 0]"	"[0, 0, 0, 0, 0, 0, 0, 0, 0, 0]"	"[0, 0, 0, 0, 0, 0, 0, 0, 0, 1]"	"[2.36064880003687, 2.7026953999884427, 2.944016700028442, 3.16080559999682, 3.3441160999936983, 3.5275558000430465, 3.7276690000435337, 3.9192748999921605, 4.102587600005791, 4.5858403000747785]"	10	"[2.30614339991007, 2.6481907999841496, 2.8895088999997824, 3.1063008999917656, 3.289608299965039, 3.473045799997635, 3.673169899964705, 3.8647700999863446, 4.048099899897352, 4.531269199913368]"	"[2.4059829999459907, 2.756131599890068, 2.9810502999462187, 3.1896088999928907, 3.3811385999433696, 3.5811005999566987, 3.764496099902317, 3.956149599980563, 4.1478790999390185, 4.53127349994611]"	55.910332600004	55.9241240000119	57.4159350000555	NA	NA	NA	NA	NA	NA	NA	NA	24	"03"	"2024-02-15_13h24.06.825"	"BART_exp"	"2023.2.3"	120.000048056264	"2024-02-15 13h24.17.893928 +0100"	NA
"balloon.png"	49	0	1	1	11	57.4325897000963	NA	NA	NA	NA	NA	NA	NA	NA	NA	NA	NA	NA	57.4161110999994	57.4325897000963	57.4325897000963	57.4325897000963	57.4325897000963	57.4325897000963	0.00698479998391121	0.00698479998391121	0.00698479998391121	57.4325897000963	60.6180205000564	13	0.65	FALSE	"[-0.012037037037037037, -0.012037037037037037, -0.012037037037037037, -0.012037037037037037, -0.012037037037037037, -0.012037037037037037, -0.012037037037037037, -0.012037037037037037, -0.012037037037037037, -0.012037037037037037, -0.012037037037037037, -0.012037037037037037, -0.012037037037037037, -0.012037037037037037]"	"[-0.39537037037037037, -0.39537037037037037, -0.39537037037037037, -0.39537037037037037, -0.39537037037037037, -0.39537037037037037, -0.39537037037037037, -0.39537037037037037, -0.39537037037037037, -0.39537037037037037, -0.39537037037037037, -0.39537037037037037, -0.39537037037037037, -0.39166666666666666]"	"[1, 1, 1, 1, 1, 1, 1, 1, 1, 1, 1, 1, 1, 0]"	"[0, 0, 0, 0, 0, 0, 0, 0, 0, 0, 0, 0, 0, 0]"	"[0, 0, 0, 0, 0, 0, 0, 0, 0, 0, 0, 0, 0, 1]"	"[0.5423866999335587, 0.7423294999171048, 0.942321699927561, 1.1255410999292508, 1.317220599972643, 1.4755331999622285, 1.6840679999440908, 1.8589379999320954, 2.0423628999851644, 2.2091568999458104, 2.3757907999679446, 2.5674716999055818, 2.800831799977459, 3.2009955999674276]"	14	"[0.531763199949637, 0.7316972999833524, 0.9316873999778181, 1.1149134000297636, 1.3065872000297531, 1.4649073999607936, 1.6734449999639764, 1.8483021999709308, 2.0317335999570787, 2.1985233000013977, 2.3651642999611795, 2.556836999952793, 2.790210700011812, 3.19031089998316]"	"[0.6064158999361098, 0.8063668999820948, 0.9813731999602169, 1.1731149000115693, 1.3564410000108182, 1.5730784999905154, 1.7398995999246836, 1.923169899964705, 2.0897886999882758, 2.2566292999545112, 2.4731912999413908, 2.6150164999999106, 2.8565239999443293, 3.190315300016664]"	60.6189882000908	60.6244540000334	62.1164699000074	62.1245935000479	NA	NA	NA	NA	NA	NA	NA	24	"03"	"2024-02-15_13h24.06.825"	"BART_exp"	"2023.2.3"	120.000048056264	"2024-02-15 13h24.17.893928 +0100"	NA
"balloon.png"	53	0	2	2	12	62.1245935000479	NA	NA	NA	NA	NA	NA	NA	NA	NA	NA	NA	NA	62.1166513999924	62.1245935000479	62.1245935000479	62.1245935000479	62.1245935000479	62.1245935000479	0.00566809996962547	0.00566809996962547	0.00566809996962547	62.1245935000479	66.1432205000892	18	0.9	FALSE	"[-0.012037037037037037, -0.012037037037037037, -0.012037037037037037, -0.012037037037037037, -0.012037037037037037, -0.012037037037037037, -0.012037037037037037, -0.012037037037037037, -0.012037037037037037, -0.012037037037037037, -0.012037037037037037, -0.012037037037037037, -0.012037037037037037, -0.012037037037037037, -0.012037037037037037, -0.012037037037037037, -0.012037037037037037, -0.012037037037037037, -0.012037037037037037]"	"[-0.39166666666666666, -0.39166666666666666, -0.39166666666666666, -0.39166666666666666, -0.39166666666666666, -0.39166666666666666, -0.39166666666666666, -0.39166666666666666, -0.39166666666666666, -0.39166666666666666, -0.39166666666666666, -0.39166666666666666, -0.39166666666666666, -0.39166666666666666, -0.39166666666666666, -0.39166666666666666, -0.39166666666666666, -0.39166666666666666, -0.39166666666666666]"	"[1, 1, 1, 1, 1, 1, 1, 1, 1, 1, 1, 1, 1, 1, 1, 1, 1, 1, 0]"	"[0, 0, 0, 0, 0, 0, 0, 0, 0, 0, 0, 0, 0, 0, 0, 0, 0, 0, 0]"	"[0, 0, 0, 0, 0, 0, 0, 0, 0, 0, 0, 0, 0, 0, 0, 0, 0, 0, 1]"	"[0.3171514000277966, 0.4838436000281945, 0.6588669000193477, 0.8603086000075564, 1.0169765999307856, 1.2254925000015646, 1.5670008999295533, 1.7171757000032812, 1.8838704000227153, 2.0421763999620453, 2.217168999952264, 2.39208779996261, 2.5670740000205114, 2.7337894999654964, 2.9338179000187665, 3.133819399983622, 3.308946799952537, 3.4425337000284344, 4.0256447999272496]"	19	"[0.3153387000784278, 0.48202420002780855, 0.6570484000258148, 0.8586585000157356, 1.0151594000635669, 1.2236727999988943, 1.565183800063096, 1.7153648000676185, 1.8820481000002474, 2.0403534000506625, 2.21534660004545, 2.39027050009463, 2.565248900093138, 2.7319720000959933, 2.9320025000488386, 3.132001299993135, 3.3071317999856547, 3.4407170000486076, 4.023773399996571]"	"[0.37346470006741583, 0.5816201000707224, 0.7316441000439227, 0.9149894000729546, 1.1150072000455111, 1.4483634000644088, 1.6400833000661805, 1.7985690000932664, 1.9734029000392184, 2.131798000074923, 2.29010450001806, 2.4567650000099093, 2.6151383999967948, 2.798572100000456, 3.0151777000864968, 3.190221400000155, 3.365162100060843, 3.498554900055751, 4.0237779000308365]"	66.1442820000229	66.1498416000977	67.6418136000866	67.6499479000922	NA	NA	NA	NA	NA	NA	NA	24	"03"	"2024-02-15_13h24.06.825"	"BART_exp"	"2023.2.3"	120.000048056264	"2024-02-15 13h24.17.893928 +0100"	NA
"balloon.png"	23	0	3	3	5	67.6499479000922	NA	NA	NA	NA	NA	NA	NA	NA	NA	NA	NA	NA	67.6419950000709	67.6499479000922	67.6499479000922	67.6499479000922	67.6499479000922	67.6499479000922	0.00572600006125867	0.00572600006125867	0.00572600006125867	67.6499479000922	72.0019636000507	17	0.85	FALSE	"[-0.012037037037037037, -0.012037037037037037, -0.012037037037037037, -0.012037037037037037, -0.012037037037037037, -0.012037037037037037, -0.012037037037037037, -0.012037037037037037, -0.012037037037037037, -0.012037037037037037, -0.012037037037037037, -0.010185185185185186, -0.010185185185185186, -0.010185185185185186, -0.010185185185185186, -0.010185185185185186, -0.010185185185185186, -0.010185185185185186]"	"[-0.3907407407407407, -0.3907407407407407, -0.3907407407407407, -0.3907407407407407, -0.3907407407407407, -0.3907407407407407, -0.3907407407407407, -0.3907407407407407, -0.3907407407407407, -0.3907407407407407, -0.3907407407407407, -0.3907407407407407, -0.3907407407407407, -0.3907407407407407, -0.3907407407407407, -0.3907407407407407, -0.3907407407407407, -0.3907407407407407]"	"[1, 1, 1, 1, 1, 1, 1, 1, 1, 1, 1, 1, 1, 1, 1, 1, 1, 0]"	"[0, 0, 0, 0, 0, 0, 0, 0, 0, 0, 0, 0, 0, 0, 0, 0, 0, 0]"	"[0, 0, 0, 0, 0, 0, 0, 0, 0, 0, 0, 0, 0, 0, 0, 0, 0, 1]"	"[0.8253777000354603, 1.008838600013405, 1.2003585000056773, 1.375521400012076, 1.567321699927561, 1.7589099999750033, 1.9590460000326857, 2.142231500009075, 2.317289700033143, 2.517264600028284, 2.700684899929911, 2.9006570000201464, 3.0839554999256507, 3.2838605999713764, 3.4340314000146464, 3.6422925000078976, 3.9590781999286264, 4.359052099986002]"	18	"[0.82355800003279, 1.0070096999406815, 1.198534099967219, 1.373696199967526, 1.565495099988766, 1.7570847999304533, 1.9572309999493882, 2.1404032999416813, 2.3154609999619424, 2.5154332999372855, 2.6988588999956846, 2.898831899976358, 3.082125899964012, 3.2820284999907017, 3.432211000006646, 3.6404632999328896, 3.9572459999471903, 4.357162900036201]"	"[0.9067380999913439, 1.090148099930957, 1.265077600022778, 1.4733826000010595, 1.6567489999579266, 1.8400755999609828, 2.0151644999859855, 2.198468199931085, 2.39859160000924, 2.5734918999951333, 2.7818163000047207, 2.9736456000246108, 3.148637600010261, 3.3319985999260098, 3.5152071999618784, 3.6737389999907464, 4.031978599959984, 4.357167099951766]"	72.0028418999864	72.0085880000843	73.5005675000139	73.5170344000217	NA	NA	NA	NA	NA	NA	NA	24	"03"	"2024-02-15_13h24.06.825"	"BART_exp"	"2023.2.3"	120.000048056264	"2024-02-15 13h24.17.893928 +0100"	NA
"balloon.png"	36	0	4	4	8	73.5170344000217	NA	NA	NA	NA	NA	NA	NA	NA	NA	NA	NA	NA	73.5007497000042	73.5170344000217	73.5170344000217	73.5170344000217	73.5170344000217	73.5170344000217	-0.00086949998512864	-0.00086949998512864	-0.00086949998512864	73.5170344000217	77.2522798000136	13	0.65	FALSE	"[-0.010185185185185186, -0.010185185185185186, -0.010185185185185186, -0.010185185185185186, -0.010185185185185186, -0.010185185185185186, -0.010185185185185186, -0.010185185185185186, -0.010185185185185186, -0.010185185185185186, -0.010185185185185186, -0.010185185185185186, -0.010185185185185186, -0.010185185185185186]"	"[-0.3907407407407407, -0.3907407407407407, -0.3907407407407407, -0.3907407407407407, -0.3907407407407407, -0.3907407407407407, -0.3907407407407407, -0.3907407407407407, -0.3907407407407407, -0.3907407407407407, -0.3907407407407407, -0.3907407407407407, -0.3907407407407407, -0.3907407407407407]"	"[1, 1, 1, 1, 1, 1, 1, 1, 1, 1, 1, 1, 1, 0]"	"[0, 0, 0, 0, 0, 0, 0, 0, 0, 0, 0, 0, 0, 0]"	"[0, 0, 0, 0, 0, 0, 0, 0, 0, 0, 0, 0, 0, 1]"	"[0.49212219996843487, 0.6754844000097364, 0.8754566999850795, 1.0671510000247508, 1.2504744000034407, 1.4421787000028417, 1.6170191999990493, 1.7837000000290573, 1.9420854999916628, 2.100758400047198, 2.4674856000347063, 2.8088830000488088, 2.992245399975218, 3.7506130000110716]"	14	"[0.48613570001907647, 0.6694966999348253, 0.8694713999284431, 1.0611622999422252, 1.2444897999521345, 1.4361871000146493, 1.611024699988775, 1.7777079999214038, 1.9360964000225067, 2.0947663999395445, 2.4614943999331445, 2.8028932999586686, 2.9862532999832183, 3.7445604000240564]"	"[0.5857986999908462, 0.7776411999948323, 0.952504999935627, 1.1608349999878556, 1.3442125999135897, 1.4942196999909356, 1.6775457999901846, 1.852590600028634, 2.0192328999983147, 2.336024899967015, 2.519334099953994, 2.8692793999798596, 3.061058499966748, 3.7445646999403834]"	77.2531374000246	77.2589963000501	78.7509401000571	78.7674235000741	NA	NA	NA	NA	NA	NA	NA	24	"03"	"2024-02-15_13h24.06.825"	"BART_exp"	"2023.2.3"	120.000048056264	"2024-02-15 13h24.17.893928 +0100"	NA
"balloon.png"	62	0	5	5	14	78.7674235000741	NA	NA	NA	NA	NA	NA	NA	NA	NA	NA	NA	NA	78.7511210000375	78.7674235000741	78.7674235000741	78.7674235000741	78.7674235000741	78.7674235000741	-0.00081769993994385	-0.00081769993994385	-0.00081769993994385	78.7674235000741	81.8873684999999	12	0.6	FALSE	"[-0.011111111111111112, -0.011111111111111112, -0.011111111111111112, -0.011111111111111112, -0.011111111111111112, -0.011111111111111112, -0.011111111111111112, -0.011111111111111112, -0.011111111111111112, -0.011111111111111112, -0.011111111111111112, -0.011111111111111112, -0.008333333333333333]"	"[-0.38981481481481484, -0.38981481481481484, -0.38981481481481484, -0.38981481481481484, -0.38981481481481484, -0.38981481481481484, -0.38981481481481484, -0.38981481481481484, -0.38981481481481484, -0.38981481481481484, -0.38981481481481484, -0.38981481481481484, -0.37962962962962965]"	"[1, 1, 1, 1, 1, 1, 1, 1, 1, 1, 1, 1, 0]"	"[0, 0, 0, 0, 0, 0, 0, 0, 0, 0, 0, 0, 0]"	"[0, 0, 0, 0, 0, 0, 0, 0, 0, 0, 0, 0, 1]"	"[0.45048740005586296, 0.600549100083299, 0.7669834000989795, 0.9336608001030982, 1.1086733000120148, 1.417279800050892, 1.5588691000593826, 1.7337074000388384, 1.9004583000205457, 2.058883700054139, 2.2255666001001373, 2.4172777000349015, 3.135143000050448]"	13	"[0.4449225999414921, 0.5949854999780655, 0.7614163999678567, 0.9280939999734983, 1.1031033999752253, 1.411710900021717, 1.5533006000332534, 1.7281336999731138, 1.8948967999313027, 2.0533187999390066, 2.2200222000246868, 2.411708200001158, 3.1296223000390455]"	"[0.48624689993448555, 0.6530268000205979, 0.8529448999324813, 1.028963999939151, 1.3029569999780506, 1.48640059994068, 1.653152299928479, 1.8113294999348, 2.003009399981238, 2.136403699987568, 2.2864378000376746, 2.4950326000107452, 3.129630699986592]"	81.888191999984	81.8926518000662	83.3845746000297	83.3927191999974	NA	NA	NA	NA	NA	NA	NA	24	"03"	"2024-02-15_13h24.06.825"	"BART_exp"	"2023.2.3"	120.000048056264	"2024-02-15 13h24.17.893928 +0100"	NA
"balloon.png"	88	0	6	6	20	83.3927191999974	NA	NA	NA	NA	NA	NA	NA	NA	NA	NA	NA	NA	83.384750300087	83.3927191999974	83.3927191999974	83.3927191999974	83.3927191999974	83.3927191999974	0.00458930002059787	0.00458930002059787	0.00458930002059787	83.3927191999974	89.086549700005	25	1.25	FALSE	"[-0.011111111111111112, -0.011111111111111112, -0.011111111111111112, -0.011111111111111112, -0.011111111111111112, -0.011111111111111112, -0.011111111111111112, -0.011111111111111112, -0.011111111111111112, -0.010185185185185186, -0.010185185185185186, -0.010185185185185186, -0.010185185185185186, -0.010185185185185186, -0.010185185185185186, -0.010185185185185186, -0.010185185185185186, -0.010185185185185186, -0.010185185185185186, -0.010185185185185186, -0.010185185185185186, -0.010185185185185186, -0.010185185185185186, -0.010185185185185186, -0.010185185185185186, -0.010185185185185186]"	"[-0.3962962962962963, -0.3962962962962963, -0.3962962962962963, -0.3962962962962963, -0.3962962962962963, -0.3962962962962963, -0.3962962962962963, -0.3962962962962963, -0.3962962962962963, -0.3962962962962963, -0.3962962962962963, -0.3962962962962963, -0.3962962962962963, -0.3962962962962963, -0.3962962962962963, -0.3962962962962963, -0.3962962962962963, -0.3962962962962963, -0.3962962962962963, -0.3962962962962963, -0.3962962962962963, -0.3962962962962963, -0.3962962962962963, -0.3962962962962963, -0.3962962962962963, -0.3962962962962963]"	"[1, 1, 1, 1, 1, 1, 1, 1, 1, 1, 1, 1, 1, 1, 1, 1, 1, 1, 1, 1, 1, 1, 1, 1, 1, 0]"	"[0, 0, 0, 0, 0, 0, 0, 0, 0, 0, 0, 0, 0, 0, 0, 0, 0, 0, 0, 0, 0, 0, 0, 0, 0, 0]"	"[0, 0, 0, 0, 0, 0, 0, 0, 0, 0, 0, 0, 0, 0, 0, 0, 0, 0, 0, 0, 0, 0, 0, 0, 0, 1]"	"[0.25865440000779927, 0.41721220000181347, 0.5672384999925271, 0.7672033000271767, 0.9588565001031384, 1.117035000002943, 1.2753875000635162, 1.5922655999893323, 1.8006038001039997, 1.9422950000735, 2.167279600049369, 2.3339543000329286, 2.6838898001005873, 2.8922234000638127, 3.067179400008172, 3.258875000057742, 3.442193499999121, 3.6422853000694886, 4.050620299996808, 4.300600800081156, 4.509055400034413, 4.725754700019024, 4.925885300035588, 5.125813200022094, 5.367493800004013, 5.700913900043815]"	26	"[0.25683440000284463, 0.41539239999838173, 0.5654208000050858, 0.7653852999210358, 0.957036399981007, 1.1152087999507785, 1.2735634000273421, 1.5904485000064597, 1.798787400010042, 1.9404788999818265, 2.1654540000017732, 2.3321315000066534, 2.682066199951805, 2.8904008999234065, 3.0653526999522, 3.2570552999386564, 3.4403737999964505, 3.640461399918422, 4.048799999989569, 4.298775899922475, 4.5072287999792024, 4.7239354000194, 4.924065100029111, 5.123995999922045, 5.365672499989159, 5.6990297000156716]"	"[0.32335099996998906, 0.490150099969469, 0.6816879999823868, 0.8483649999834597, 1.0400589000200853, 1.2150732999434695, 1.373406899976544, 1.6734460999723524, 1.856786899967119, 2.031967999995686, 2.215134899946861, 2.4152699999976903, 2.781848800019361, 2.9568616999313235, 3.148571499972604, 3.3319273999659345, 3.540269699995406, 3.7320074000163004, 4.15696409996599, 4.365294700022787, 4.615358499926515, 4.823694900027476, 4.9986900999210775, 5.207024300005287, 5.4737492999993265, 5.699033899931237]"	89.0877794000553	89.1014534999849	90.5932627000148	NA	NA	NA	NA	NA	NA	NA	NA	24	"03"	"2024-02-15_13h24.06.825"	"BART_exp"	"2023.2.3"	120.000048056264	"2024-02-15 13h24.17.893928 +0100"	NA
"balloon.png"	92	0	7	7	21	90.6098952000029	NA	NA	NA	NA	NA	NA	NA	NA	NA	NA	NA	NA	90.5934357000515	90.6098952000029	90.6098952000029	90.6098952000029	90.6098952000029	90.6098952000029	0.0068703000433743	0.0068703000433743	0.0068703000433743	90.6098952000029	95.445166700054	22	1.1	FALSE	"[-0.010185185185185186, -0.010185185185185186, -0.010185185185185186, -0.010185185185185186, -0.010185185185185186, -0.010185185185185186, -0.010185185185185186, -0.010185185185185186, -0.010185185185185186, -0.010185185185185186, -0.010185185185185186, -0.010185185185185186, -0.010185185185185186, -0.010185185185185186, -0.010185185185185186, -0.010185185185185186, -0.010185185185185186, -0.010185185185185186, -0.010185185185185186, -0.010185185185185186, -0.010185185185185186, -0.010185185185185186, -0.010185185185185186]"	"[-0.3962962962962963, -0.3962962962962963, -0.3962962962962963, -0.3962962962962963, -0.3962962962962963, -0.3962962962962963, -0.3962962962962963, -0.3962962962962963, -0.3962962962962963, -0.3962962962962963, -0.3962962962962963, -0.3962962962962963, -0.3962962962962963, -0.3962962962962963, -0.3962962962962963, -0.3962962962962963, -0.3962962962962963, -0.3962962962962963, -0.3962962962962963, -0.3962962962962963, -0.3962962962962963, -0.3962962962962963, -0.39444444444444443]"	"[1, 1, 1, 1, 1, 1, 1, 1, 1, 1, 1, 1, 1, 1, 1, 1, 1, 1, 1, 1, 1, 1, 0]"	"[0, 0, 0, 0, 0, 0, 0, 0, 0, 0, 0, 0, 0, 0, 0, 0, 0, 0, 0, 0, 0, 0, 0]"	"[0, 0, 0, 0, 0, 0, 0, 0, 0, 0, 0, 0, 0, 0, 0, 0, 0, 0, 0, 0, 0, 0, 1]"	"[0.2838267999468371, 0.46723819989711046, 0.6754877999192104, 0.8838808999862522, 1.0768452999182045, 1.2922055999515578, 1.4840208999812603, 1.6839037999743596, 1.9090632000006735, 2.1007241999031976, 2.284184899996035, 2.492297299904749, 2.675859799957834, 2.8673496999545023, 3.084111199947074, 3.3008012999780476, 3.500827199895866, 3.6841546999057755, 3.892441299976781, 4.084317599888891, 4.292420199955814, 4.467467699898407, 4.850850599934347]"	23	"[0.280561099993065, 0.46397230005823076, 0.6722179000498727, 0.8806096999906003, 1.0737417000345886, 1.2889382999856025, 1.4807502999901772, 1.680631900089793, 1.905792500008829, 2.0974547000369057, 2.2809187000384554, 2.4890224999981, 2.6725888000801206, 2.8640793000813574, 3.0808438999811187, 3.297530999989249, 3.497557800030336, 3.6808879000600427, 3.889171399991028, 4.0810533000621945, 4.289152399986051, 4.464202600065619, 4.840741100022569]"	"[0.38878360006492585, 0.5637332000769675, 0.7554475000360981, 0.9804394000675529, 1.17210820002947, 1.3565714000724256, 1.5554829000029713, 1.7556492000585422, 1.9721647000405937, 2.1638488000025973, 2.3638768000528216, 2.555561500019394, 2.7638710000319406, 2.947241200017743, 3.1639327000593767, 3.3639678000472486, 3.5557667000684887, 3.7639559999806806, 3.9556414000689983, 4.139013100066222, 4.3390476000495255, 4.530670200008899, 4.847508399980143]"	95.4462656000396	95.4519241000526	96.9439405000303	96.9603410999989	NA	NA	NA	NA	NA	NA	NA	24	"03"	"2024-02-15_13h24.06.825"	"BART_exp"	"2023.2.3"	120.000048056264	"2024-02-15 13h24.17.893928 +0100"	NA
"balloon.png"	71	0	8	8	16	96.9603410999989	NA	NA	NA	NA	NA	NA	NA	NA	NA	NA	NA	NA	96.9441227000207	96.9603410999989	96.9603410999989	96.9603410999989	96.9603410999989	96.9603410999989	-0.00078319991007447	-0.00078319991007447	-0.00078319991007447	96.9603410999989	101.504030700075	21	1.05	FALSE	"[-0.01574074074074074, -0.016666666666666666, -0.016666666666666666, -0.016666666666666666, -0.016666666666666666, -0.016666666666666666, -0.016666666666666666, -0.016666666666666666, -0.016666666666666666, -0.016666666666666666, -0.016666666666666666, -0.016666666666666666, -0.016666666666666666, -0.016666666666666666, -0.016666666666666666, -0.016666666666666666, -0.016666666666666666, -0.016666666666666666, -0.016666666666666666, -0.016666666666666666, -0.016666666666666666, -0.016666666666666666]"	"[-0.3925925925925926, -0.3925925925925926, -0.3925925925925926, -0.3925925925925926, -0.3925925925925926, -0.3925925925925926, -0.3925925925925926, -0.3925925925925926, -0.3925925925925926, -0.3925925925925926, -0.3925925925925926, -0.3925925925925926, -0.3925925925925926, -0.3925925925925926, -0.3925925925925926, -0.3925925925925926, -0.3925925925925926, -0.3925925925925926, -0.3925925925925926, -0.3925925925925926, -0.3925925925925926, -0.3925925925925926]"	"[1, 1, 1, 1, 1, 1, 1, 1, 1, 1, 1, 1, 1, 1, 1, 1, 1, 1, 1, 1, 1, 0]"	"[0, 0, 0, 0, 0, 0, 0, 0, 0, 0, 0, 0, 0, 0, 0, 0, 0, 0, 0, 0, 0, 0]"	"[0, 0, 0, 0, 0, 0, 0, 0, 0, 0, 0, 0, 0, 0, 0, 0, 0, 0, 0, 0, 0, 1]"	"[0.28352599998470396, 0.44190449989400804, 0.6420554999494925, 0.8253875999944285, 1.0171364999841899, 1.1837443999247625, 1.4254324999637902, 1.5671093999408185, 1.7671215999871492, 1.9672769999597222, 2.142134299967438, 2.3254377999110147, 2.4920062999008223, 2.733781599905342, 3.0920462999492884, 3.300396499922499, 3.475583599996753, 3.6671043999958783, 3.8505868999054655, 3.992377999937162, 4.192325499956496, 4.558950699982233]"	22	"[0.2810568999266252, 0.43943629995919764, 0.6395952999591827, 0.8229210999561474, 1.0146821999223903, 1.1812789000105113, 1.422965299920179, 1.5646473999368027, 1.7646558999549598, 1.9648123999359086, 2.1396685999352485, 2.322970399982296, 2.489537399960682, 2.7313146999804303, 3.089578300016001, 3.29792699997779, 3.4731255000224337, 3.6646381999598816, 3.848136299988255, 3.9899155999301, 4.189858700032346, 4.556423299945891]"	"[0.3308924000011757, 0.5310060000047088, 0.714277199935168, 0.9061657999409363, 1.0976085999282077, 1.297628799919039, 1.4643548999447376, 1.6643318999558687, 1.839335999917239, 2.0394992999499664, 2.214397099916823, 2.414375799940899, 2.5977325999410823, 2.7644042000174522, 3.1811000999296084, 3.3561050000134856, 3.5396442000055686, 3.747923700022511, 3.956160399946384, 4.097944199922495, 4.272840999998152, 4.556427199975587]"	101.504998799996	101.510702200001	103.00271000003	103.019106100081	NA	NA	NA	NA	NA	NA	NA	24	"03"	"2024-02-15_13h24.06.825"	"BART_exp"	"2023.2.3"	120.000048056264	"2024-02-15 13h24.17.893928 +0100"	NA
"balloon.png"	123	0	9	9	28	103.019106100081	NA	NA	NA	NA	NA	NA	NA	NA	NA	NA	NA	NA	103.00291400007	103.019106100081	103.019106100081	103.019106100081	103.019106100081	103.019106100081	-0.00072450004518032	-0.00072450004518032	-0.00072450004518032	103.019106100081	110.40448840009	32	1.6	FALSE	"[0.049074074074074076, 0.049074074074074076, 0.049074074074074076, 0.049074074074074076, 0.049074074074074076, 0.049074074074074076, 0.049074074074074076, 0.049074074074074076, 0.049074074074074076, 0.049074074074074076, 0.049074074074074076, 0.049074074074074076, 0.049074074074074076, 0.049074074074074076, 0.049074074074074076, 0.049074074074074076, 0.049074074074074076, 0.049074074074074076, 0.049074074074074076, 0.049074074074074076, 0.049074074074074076, 0.05, 0.05185185185185185, 0.05185185185185185, 0.05185185185185185, 0.05185185185185185, 0.05185185185185185, 0.05185185185185185, 0.05185185185185185, 0.05185185185185185, 0.05185185185185185, 0.05185185185185185, 0.05185185185185185]"	"[-0.375, -0.375, -0.375, -0.375, -0.375, -0.375, -0.375, -0.375, -0.375, -0.375, -0.375, -0.375, -0.375, -0.375, -0.375, -0.375, -0.375, -0.375, -0.375, -0.375, -0.375, -0.375, -0.3731481481481482, -0.3731481481481482, -0.3731481481481482, -0.3731481481481482, -0.3731481481481482, -0.3731481481481482, -0.3731481481481482, -0.3731481481481482, -0.3731481481481482, -0.3731481481481482, -0.3712962962962963]"	"[1, 1, 1, 1, 1, 1, 1, 1, 1, 1, 1, 1, 1, 1, 1, 1, 1, 1, 1, 1, 1, 1, 1, 1, 1, 1, 1, 1, 1, 1, 1, 1, 0]"	"[0, 0, 0, 0, 0, 0, 0, 0, 0, 0, 0, 0, 0, 0, 0, 0, 0, 0, 0, 0, 0, 0, 0, 0, 0, 0, 0, 0, 0, 0, 0, 0, 0]"	"[0, 0, 0, 0, 0, 0, 0, 0, 0, 0, 0, 0, 0, 0, 0, 0, 0, 0, 0, 0, 0, 0, 0, 0, 0, 0, 0, 0, 0, 0, 0, 0, 1]"	"[0.45018349995370954, 0.6586160999722779, 0.8419081999454647, 1.0253058000234887, 1.2085531000047922, 1.4086340999929234, 1.6002987999236211, 1.791943599935621, 1.9837523999158293, 2.1670999999623746, 2.383659499930218, 2.5669782999902964, 2.7836509000044316, 2.9753874000161886, 3.1670342999277636, 3.3505701000103727, 3.567200999939814, 3.758866099989973, 3.9588813999434933, 4.142242499976419, 4.467236199998297, 4.725820199935697, 4.934100199956447, 5.117294399999082, 5.350657099974342, 5.592185299959965, 6.042267999961041, 6.250570399919525, 6.43390589999035, 6.63393809995614, 6.833917999989353, 7.025603899965063, 7.400624000001699]"	33	"[0.44609480001963675, 0.6545280000427738, 0.8378231000388041, 1.0212156999623403, 1.2044664999702945, 1.4045423000352457, 1.5962153000291437, 1.7878612000495195, 1.9796684000175446, 2.1630132000427693, 2.379574100021273, 2.562897600000724, 2.7795588000444695, 2.971299899974838, 3.1629445999860764, 3.3464878000086173, 3.5631243999814615, 3.7548057000385597, 3.9547916000010446, 4.138157399953343, 4.463142100023106, 4.721741499961354, 4.930033199954778, 5.11320609995164, 5.3465705999406055, 5.588095900020562, 6.038179300026968, 6.246484800009057, 6.429814500035718, 6.629847200005315, 6.829827300040051, 7.0215160000370815, 7.396471100044437]"	"[0.5375842000357807, 0.7127974999602884, 0.9042872999561951, 1.0876239000353962, 1.2709684999426827, 1.4626394000370055, 1.6627022000029683, 1.8627147000515833, 2.0543971000006422, 2.2460334999486804, 2.437899600015953, 2.637719999998808, 2.8379947999492288, 3.0544371999567375, 3.2294278000481427, 3.4378772999625653, 3.621120800031349, 3.821173600037582, 4.046180799952708, 4.21309089998249, 4.579647799953818, 4.779742400045507, 4.996226800023578, 5.187912599998526, 5.404587900033221, 5.696293600019999, 6.09650490002241, 6.329721700050868, 6.521432599984109, 6.696423799963668, 6.9297985000303015, 7.122842499986291, 7.396475299960002]"	110.405619400088	110.41128	111.903258800041	111.919722900027	NA	NA	NA	NA	NA	NA	NA	24	"03"	"2024-02-15_13h24.06.825"	"BART_exp"	"2023.2.3"	120.000048056264	"2024-02-15 13h24.17.893928 +0100"	NA
"balloon.png"	5	0	10	10	1	111.919722900027	NA	NA	NA	NA	NA	NA	NA	NA	NA	NA	NA	NA	111.903441000031	111.919722900027	111.919722900027	111.919722900027	111.919722900027	111.919722900027	-0.0009570000693202	-0.0009570000693202	-0.0009570000693202	111.919722900027	113.338686300092	6	0.25	TRUE	"[0.049074074074074076, 0.049074074074074076, 0.049074074074074076, 0.049074074074074076, 0.049074074074074076, 0.049074074074074076]"	"[-0.37407407407407406, -0.37407407407407406, -0.37407407407407406, -0.37407407407407406, -0.37407407407407406, -0.37407407407407406]"	"[1, 1, 1, 1, 1, 1]"	"[0, 0, 0, 0, 0, 0]"	"[0, 0, 0, 0, 0, 0]"	"[0.333651400054805, 0.5253270000685006, 0.7253559000091627, 0.9336886000819504, 1.133668900001794, 1.35036330006551]"	6	"[0.3300374000100419, 0.5217083999887109, 0.721740800072439, 0.9300735000288114, 1.1300509000429884, 1.3467411000747234]"	"[0.4298576000146568, 0.6299372999928892, 0.8132458999752998, 1.004916400066577, 1.221576299984008, 1.4216704000718892]"	113.33944390004	113.35315910005	114.845000900095	NA	NA	NA	NA	NA	NA	NA	NA	24	"03"	"2024-02-15_13h24.06.825"	"BART_exp"	"2023.2.3"	120.000048056264	"2024-02-15 13h24.17.893928 +0100"	NA
"balloon.png"	79	0	11	11	18	114.869937799987	NA	NA	NA	NA	NA	NA	NA	NA	NA	NA	NA	NA	114.845187300001	114.869937799987	114.869937799987	114.869937799987	114.869937799987	114.869937799987	0.00714750005863606	0.00714750005863606	0.00714750005863606	114.869937799987	119.530352300033	19	0.95	FALSE	"[0.04351851851851852, 0.041666666666666664, 0.041666666666666664, 0.041666666666666664, 0.041666666666666664, 0.041666666666666664, 0.041666666666666664, 0.041666666666666664, 0.041666666666666664, 0.041666666666666664, 0.041666666666666664, 0.041666666666666664, 0.041666666666666664, 0.041666666666666664, 0.041666666666666664, 0.041666666666666664, 0.041666666666666664, 0.041666666666666664, 0.041666666666666664, 0.041666666666666664]"	"[-0.3731481481481482, -0.375, -0.375, -0.375, -0.375, -0.375, -0.375, -0.375, -0.375, -0.375, -0.375, -0.375, -0.375, -0.375, -0.375, -0.375, -0.375, -0.375, -0.375, -0.37222222222222223]"	"[1, 1, 1, 1, 1, 1, 1, 1, 1, 1, 1, 1, 1, 1, 1, 1, 1, 1, 1, 0]"	"[0, 0, 0, 0, 0, 0, 0, 0, 0, 0, 0, 0, 0, 0, 0, 0, 0, 0, 0, 0]"	"[0, 0, 0, 0, 0, 0, 0, 0, 0, 0, 0, 0, 0, 0, 0, 0, 0, 0, 0, 1]"	"[0.47559130005538464, 0.6589673000853509, 0.8589220000430942, 1.0590235000709072, 1.2520521000260487, 1.4423158999998122, 1.6506370001006871, 1.8342105000047013, 2.0256957000819966, 2.2340457000536844, 2.417321400018409, 2.600705199991353, 2.8006188001018018, 2.992227700073272, 3.1839277000399306, 3.3923766000662, 3.617406400036998, 3.867458900087513, 4.04247970005963, 4.684210800100118]"	20	"[0.4637398000340909, 0.6471141000511125, 0.8470671999966726, 1.0471755000762641, 1.2403541000094265, 1.430458200047724, 1.638779400032945, 1.8223575000884011, 2.0138419000431895, 2.2221861000871286, 2.4054624000564218, 2.5888424000004306, 2.7887601000256836, 2.9803696000017226, 3.172067700070329, 3.380517699988559, 3.6055457000620663, 3.855598199996166, 4.0306195000885054, 4.672289100009948]"	"[0.5386172999860719, 0.7217709000688046, 0.9300903000403196, 1.1301444000564516, 1.330125000094995, 1.5134488000767305, 1.6968748000217602, 1.8970198000315577, 2.0968614000594243, 2.2885902000125498, 2.47198270005174, 2.655216100043617, 2.855202200007625, 3.0385754000162706, 3.2302484000101686, 3.438660899992101, 3.6469369999831542, 3.922071999986656, 4.113839099998586, 4.672293300041929]"	119.531318600057	119.536925400025	121.028889900073	121.037032100023	NA	NA	NA	NA	NA	NA	NA	24	"03"	"2024-02-15_13h24.06.825"	"BART_exp"	"2023.2.3"	120.000048056264	"2024-02-15 13h24.17.893928 +0100"	NA
"balloon.png"	127	0	12	12	29	121.037032100023	NA	NA	NA	NA	NA	NA	NA	NA	NA	NA	NA	NA	121.029067100026	121.037032100023	121.037032100023	121.037032100023	121.037032100023	121.037032100023	0.00577739998698234	0.00577739998698234	0.00577739998698234	121.037032100023	125.730770900031	21	1.05	FALSE	"[0.03981481481481482, 0.040740740740740744, 0.040740740740740744, 0.040740740740740744, 0.040740740740740744, 0.03981481481481482, 0.03981481481481482, 0.03981481481481482, 0.03981481481481482, 0.03981481481481482, 0.03981481481481482, 0.03981481481481482, 0.03981481481481482, 0.03981481481481482, 0.03981481481481482, 0.03981481481481482, 0.03981481481481482, 0.03981481481481482, 0.03981481481481482, 0.03981481481481482, 0.03981481481481482, 0.03981481481481482]"	"[-0.3962962962962963, -0.3962962962962963, -0.3962962962962963, -0.3962962962962963, -0.3962962962962963, -0.3962962962962963, -0.3962962962962963, -0.3962962962962963, -0.3962962962962963, -0.3962962962962963, -0.3962962962962963, -0.3962962962962963, -0.3962962962962963, -0.3962962962962963, -0.3962962962962963, -0.3962962962962963, -0.3962962962962963, -0.3962962962962963, -0.3962962962962963, -0.3962962962962963, -0.3962962962962963, -0.3962962962962963]"	"[1, 1, 1, 1, 1, 1, 1, 1, 1, 1, 1, 1, 1, 1, 1, 1, 1, 1, 1, 1, 1, 0]"	"[0, 0, 0, 0, 0, 0, 0, 0, 0, 0, 0, 0, 0, 0, 0, 0, 0, 0, 0, 0, 0, 0]"	"[0, 0, 0, 0, 0, 0, 0, 0, 0, 0, 0, 0, 0, 0, 0, 0, 0, 0, 0, 0, 0, 1]"	"[0.5089002000167966, 0.6338941999711096, 0.8339145999634638, 1.000484099960886, 1.1670401999726892, 1.3755048000020906, 1.5337284000124782, 1.7754268000135198, 1.9587456999579445, 2.1504665999673307, 2.342118800035678, 2.550470900023356, 2.7339545999420807, 2.933826499967836, 3.1505011999979615, 3.342302600038238, 3.5090122999390587, 3.7173785000341013, 3.900727599975653, 4.092414399958216, 4.284125600010157, 4.700783899985254]"	22	"[0.5070550999371335, 0.6320508000208065, 0.8320672999834642, 0.9986390999983996, 1.1651904999744147, 1.373663799953647, 1.5318802999099717, 1.7735836999490857, 1.9569006999954581, 2.1486208999995142, 2.340268899919465, 2.5486271999543533, 2.732120899949223, 2.931982100009918, 3.148653900017962, 3.3404613999882713, 3.50716849998571, 3.715531799942255, 3.8988847999135032, 4.090569299994968, 4.282282199943438, 4.698873299988918]"	"[0.5567065000068396, 0.7316731999162585, 0.9151949000079185, 1.0983560999156907, 1.2650138000026345, 1.431752200005576, 1.6318503000074998, 1.8484219999518245, 2.0485377999721095, 2.2151182999368757, 2.431792499963194, 2.6234811999602243, 2.8151470000157133, 3.015184999909252, 3.2068339999532327, 3.4068591999821365, 3.606948099914007, 3.7819979999912903, 3.9902596999891102, 4.156909600016661, 4.381949299946427, 4.698877500020899]"	125.731764100026	125.737364900066	127.229369600071	127.245803800062	NA	NA	NA	NA	NA	NA	NA	24	"03"	"2024-02-15_13h24.06.825"	"BART_exp"	"2023.2.3"	120.000048056264	"2024-02-15 13h24.17.893928 +0100"	NA
"balloon.png"	31	0	13	13	7	127.245803800062	NA	NA	NA	NA	NA	NA	NA	NA	NA	NA	NA	NA	127.229563600034	127.245803800062	127.245803800062	127.245803800062	127.245803800062	127.245803800062	-0.00085429998580366	-0.00085429998580366	-0.00085429998580366	127.245803800062	135.19793730008	31	1.55	FALSE	"[0.009259259259259259, 0.009259259259259259, 0.009259259259259259, 0.009259259259259259, 0.009259259259259259, 0.009259259259259259, 0.009259259259259259, 0.009259259259259259, 0.009259259259259259, 0.009259259259259259, 0.009259259259259259, 0.009259259259259259, 0.009259259259259259, 0.009259259259259259, 0.009259259259259259, 0.009259259259259259, 0.009259259259259259, 0.009259259259259259, 0.009259259259259259, 0.009259259259259259, 0.009259259259259259, 0.009259259259259259, 0.009259259259259259, 0.009259259259259259, 0.009259259259259259, 0.009259259259259259, 0.009259259259259259, 0.009259259259259259, 0.009259259259259259, 0.009259259259259259, 0.009259259259259259, 0.009259259259259259]"	"[-0.39444444444444443, -0.39444444444444443, -0.39444444444444443, -0.39444444444444443, -0.39444444444444443, -0.39444444444444443, -0.39444444444444443, -0.39444444444444443, -0.39444444444444443, -0.39444444444444443, -0.39444444444444443, -0.39444444444444443, -0.39444444444444443, -0.39444444444444443, -0.39444444444444443, -0.39444444444444443, -0.39444444444444443, -0.39444444444444443, -0.39444444444444443, -0.39444444444444443, -0.39444444444444443, -0.39444444444444443, -0.39444444444444443, -0.39444444444444443, -0.39444444444444443, -0.39444444444444443, -0.39444444444444443, -0.39444444444444443, -0.39444444444444443, -0.39444444444444443, -0.39444444444444443, -0.39444444444444443]"	"[1, 1, 1, 1, 1, 1, 1, 1, 1, 1, 1, 1, 1, 1, 1, 1, 1, 1, 1, 1, 1, 1, 1, 1, 1, 1, 1, 1, 1, 1, 1, 0]"	"[0, 0, 0, 0, 0, 0, 0, 0, 0, 0, 0, 0, 0, 0, 0, 0, 0, 0, 0, 0, 0, 0, 0, 0, 0, 0, 0, 0, 0, 0, 0, 0]"	"[0, 0, 0, 0, 0, 0, 0, 0, 0, 0, 0, 0, 0, 0, 0, 0, 0, 0, 0, 0, 0, 0, 0, 0, 0, 0, 0, 0, 0, 0, 0, 1]"	"[0.8587765999836847, 1.0254224999807775, 1.2087870000395924, 1.4088383000344038, 1.5921092999633402, 1.783659200067632, 2.1254076999612153, 2.333811799995601, 2.4839071000460535, 2.6672486000461504, 2.8588881000177935, 3.058935199980624, 3.2672513000434265, 3.467387399985455, 3.7088489000452682, 3.9340110999764875, 4.108827900025062, 4.33405219996348, 4.53386980004143, 4.750536700012162, 4.97576579998713, 5.284088599961251, 5.508924699970521, 5.775623199995607, 6.009220500010997, 6.234159199986607, 6.475887099979445, 6.7341275999788195, 6.950743500026874, 7.192617099964991, 7.475946599966846, 7.967463999986649]"	32	"[0.8516117000253871, 1.018249599961564, 1.2016150000272319, 1.4016687999246642, 1.5849418999860063, 1.7764934999868274, 2.1182434000074863, 2.3266451000235975, 2.476741199963726, 2.660084499977529, 2.8517237999476492, 3.051768900011666, 3.2600830999435857, 3.4602184999966994, 3.701679699937813, 3.9268510999390855, 4.101659399922937, 4.326884699985385, 4.526699099922553, 4.743367800023407, 4.968593499972485, 5.276917099952698, 5.501756199984811, 5.768456600024365, 6.002051200019196, 6.226992600015365, 6.46871749998536, 6.726960800006054, 6.943571300012991, 7.185450999997556, 7.468774099950679, 7.960238600033335]"	"[0.9346632999368012, 1.117963599972427, 1.2846908000065014, 1.4763454999774694, 1.7013388000195846, 1.8847196999704465, 2.2097829999402165, 2.3849188999738544, 2.5597601999761537, 2.743168400018476, 2.9361817999742925, 3.126501000020653, 3.3264532999601215, 3.5764999999664724, 3.7515297000063583, 3.9765516000334173, 4.184854399994947, 4.385058799991384, 4.609884999925271, 4.818377399933524, 5.034980299999006, 5.368362799985334, 5.5849488999228925, 5.843331799958833, 6.093344299937598, 6.3350000999635085, 6.5685166999464855, 6.843440499971621, 7.043401699978858, 7.260100399958901, 7.643424700014293, 7.960242999950424]"	135.199503800017	135.204745700001	136.696737700026	136.704798700055	NA	NA	NA	NA	NA	NA	NA	24	"03"	"2024-02-15_13h24.06.825"	"BART_exp"	"2023.2.3"	120.000048056264	"2024-02-15 13h24.17.893928 +0100"	NA
"balloon.png"	10	0	14	14	2	136.704798700055	NA	NA	NA	NA	NA	NA	NA	NA	NA	NA	NA	NA	136.696925900062	136.704798700055	136.704798700055	136.704798700055	136.704798700055	136.704798700055	0.00535880005918443	0.00535880005918443	0.00535880005918443	136.704798700055	139.215285300044	11	0.5	TRUE	"[-0.001851851851851852, -0.001851851851851852, -0.001851851851851852, -0.001851851851851852, -0.001851851851851852, -0.001851851851851852, -0.001851851851851852, -0.001851851851851852, -0.001851851851851852, -0.001851851851851852, -0.001851851851851852]"	"[-0.39537037037037037, -0.39537037037037037, -0.39537037037037037, -0.39537037037037037, -0.39537037037037037, -0.39537037037037037, -0.39537037037037037, -0.39537037037037037, -0.39537037037037037, -0.39537037037037037, -0.39537037037037037]"	"[1, 1, 1, 1, 1, 1, 1, 1, 1, 1, 1]"	"[0, 0, 0, 0, 0, 0, 0, 0, 0, 0, 0]"	"[0, 0, 0, 0, 0, 0, 0, 0, 0, 0, 0]"	"[0.5504325000802055, 0.7337423000717536, 0.9170136000029743, 1.1421111000236124, 1.325429500080645, 1.5266217000316828, 1.7086043000454083, 1.90032420004718, 2.0669787001097575, 2.250334700103849, 2.425514500006102]"	11	"[0.5484776999801397, 0.7317868999671191, 0.9150527999736369, 1.1401533000171185, 1.3234751999843866, 1.5248252999735996, 1.7066470000427216, 1.8983790000202134, 2.0650228000013158, 2.248381400015205, 2.4235568000003695]"	"[0.6397973999846727, 0.8397888999897987, 1.0314717000583187, 1.256493499968201, 1.4398664999753237, 1.6315211000619456, 1.7732233999995515, 1.9565586000680923, 2.131523899966851, 2.306569700012915, 2.5066079000243917]"	139.216038900078	139.221702900017	140.7136261001	140.730088200071	NA	NA	NA	NA	NA	NA	NA	24	"03"	"2024-02-15_13h24.06.825"	"BART_exp"	"2023.2.3"	120.000048056264	"2024-02-15 13h24.17.893928 +0100"	NA
"balloon.png"	1	0	15	15	0	140.730088200071	NA	NA	NA	NA	NA	NA	NA	NA	NA	NA	NA	NA	140.713810199988	140.730088200071	140.730088200071	140.730088200071	140.730088200071	140.730088200071	-0.0009369000326842	-0.0009369000326842	-0.0009369000326842	140.730088200071	141.57368650008	2	0.05	TRUE	"[-0.006481481481481481, -0.006481481481481481]"	"[-0.3851851851851852, -0.3851851851851852]"	"[1, 1]"	"[0, 0]"	"[0, 0]"	"[0.4252818999812007, 0.5922139999456704]"	2	"[0.42234320007264614, 0.5892757000401616]"	"[0.5305411000736058, 0.8472212000051513]"	141.574288700009	141.580155400094	143.072123800055	143.088634800049	NA	NA	NA	NA	NA	NA	NA	24	"03"	"2024-02-15_13h24.06.825"	"BART_exp"	"2023.2.3"	120.000048056264	"2024-02-15 13h24.17.893928 +0100"	NA
"balloon.png"	75	0	16	16	17	143.088634800049	NA	NA	NA	NA	NA	NA	NA	NA	NA	NA	NA	NA	143.072307700058	143.088634800049	143.088634800049	143.088634800049	143.088634800049	143.088634800049	-0.00072680006269365	-0.00072680006269365	-0.00072680006269365	143.088634800049	147.373790499987	17	0.85	FALSE	"[-0.012962962962962963, -0.012962962962962963, -0.012962962962962963, -0.012962962962962963, -0.012962962962962963, -0.012962962962962963, -0.012962962962962963, -0.012962962962962963, -0.012962962962962963, -0.012962962962962963, -0.012962962962962963, -0.012962962962962963, -0.012962962962962963, -0.012962962962962963, -0.012962962962962963, -0.012962962962962963, -0.012962962962962963, -0.012962962962962963]"	"[-0.38333333333333336, -0.38333333333333336, -0.38333333333333336, -0.38333333333333336, -0.38333333333333336, -0.38333333333333336, -0.38333333333333336, -0.38333333333333336, -0.38333333333333336, -0.38333333333333336, -0.38333333333333336, -0.38333333333333336, -0.38333333333333336, -0.38333333333333336, -0.38333333333333336, -0.38333333333333336, -0.38333333333333336, -0.3814814814814815]"	"[1, 1, 1, 1, 1, 1, 1, 1, 1, 1, 1, 1, 1, 1, 1, 1, 1, 0]"	"[0, 0, 0, 0, 0, 0, 0, 0, 0, 0, 0, 0, 0, 0, 0, 0, 0, 0]"	"[0, 0, 0, 0, 0, 0, 0, 0, 0, 0, 0, 0, 0, 0, 0, 0, 0, 1]"	"[0.5336454999633133, 0.7087007999652997, 0.9180908999405801, 1.1003758000442758, 1.325363100040704, 1.533700600033626, 1.7254269999684766, 1.9337430000305176, 2.108743999968283, 2.3254265999421477, 2.517294600023888, 2.725456799962558, 2.9172706999816, 3.1172652000095695, 3.308868399937637, 3.492198699968867, 3.6672354999464005, 4.300593100022525]"	18	"[0.5210600999416783, 0.7043132999679074, 0.9138734999578446, 1.095995399984531, 1.320974599919282, 1.5293120999122038, 1.7127693999791518, 1.9212038000114262, 2.104433699976653, 2.321036799927242, 2.5129077999154106, 2.7210703999735415, 2.912881499971263, 3.112883499939926, 3.3044794999295846, 3.487810799968429, 3.6628517999779433, 4.296147399931215]"	"[0.6207933999830857, 0.7958023999817669, 0.9958559999940917, 1.1876540000084788, 1.3958771999459714, 1.6042113999137655, 1.7958903999533504, 1.9875282999128103, 2.1875636999029666, 2.3959379999432713, 2.596107399906032, 2.787593899993226, 2.987617200007662, 3.1710974999004975, 3.3626510999165475, 3.589084399980493, 3.7543316999217495, 4.296151699963957]"	147.374637300032	147.380564099993	148.872506099986	148.888988199993	NA	NA	NA	NA	NA	NA	NA	24	"03"	"2024-02-15_13h24.06.825"	"BART_exp"	"2023.2.3"	120.000048056264	"2024-02-15 13h24.17.893928 +0100"	NA
"balloon.png"	66	0	17	17	15	148.888988199993	NA	NA	NA	NA	NA	NA	NA	NA	NA	NA	NA	NA	148.872682100045	148.888988199993	148.888988199993	148.888988199993	148.888988199993	148.888988199993	-0.00071459996979683	-0.00071459996979683	-0.00071459996979683	148.888988199993	153.641025800025	21	1.05	FALSE	"[-0.011111111111111112, -0.011111111111111112, -0.011111111111111112, -0.011111111111111112, -0.011111111111111112, -0.011111111111111112, -0.011111111111111112, -0.011111111111111112, -0.011111111111111112, -0.011111111111111112, -0.011111111111111112, -0.011111111111111112, -0.011111111111111112, -0.011111111111111112, -0.011111111111111112, -0.011111111111111112, -0.011111111111111112, -0.011111111111111112, -0.011111111111111112, -0.011111111111111112, -0.011111111111111112, -0.011111111111111112]"	"[-0.3712962962962963, -0.3712962962962963, -0.3712962962962963, -0.3712962962962963, -0.3712962962962963, -0.3712962962962963, -0.3712962962962963, -0.3712962962962963, -0.3712962962962963, -0.3712962962962963, -0.3712962962962963, -0.3712962962962963, -0.3712962962962963, -0.3712962962962963, -0.3712962962962963, -0.3712962962962963, -0.3712962962962963, -0.3712962962962963, -0.3712962962962963, -0.3712962962962963, -0.3712962962962963, -0.3712962962962963]"	"[1, 1, 1, 1, 1, 1, 1, 1, 1, 1, 1, 1, 1, 1, 1, 1, 1, 1, 1, 1, 1, 0]"	"[0, 0, 0, 0, 0, 0, 0, 0, 0, 0, 0, 0, 0, 0, 0, 0, 0, 0, 0, 0, 0, 0]"	"[0, 0, 0, 0, 0, 0, 0, 0, 0, 0, 0, 0, 0, 0, 0, 0, 0, 0, 0, 0, 0, 1]"	"[0.3254050000105053, 0.47537850006483495, 0.6754893000470474, 0.8670598000753671, 1.0836976000573486, 1.2920478000305593, 1.4837691000429913, 1.675416300073266, 1.8837755001150072, 2.0587915000505745, 2.2505088000325486, 2.4755331000778824, 2.658816200098954, 2.867160700028762, 3.083906100015156, 3.2671967000933364, 3.4671990000642836, 3.692255500005558, 3.8755792001029477, 4.0589207001030445, 4.259027800057083, 4.767444600001909]"	22	"[0.3126278000418097, 0.47086929995566607, 0.6709805000573397, 0.8625472999410704, 1.079189999960363, 1.2875374000286683, 1.4792554000159726, 1.6709062999580055, 1.879265800002031, 2.0542822999414057, 2.2460643999511376, 2.4710240999702364, 2.6543047999730334, 2.8626465999986976, 3.0793974000262097, 3.2626854999689385, 3.4626894999528304, 3.6877424999838695, 3.8710656999610364, 4.0544058999512345, 4.254517699941061, 4.762868299963884]"	"[0.3790152999572456, 0.5790626000380144, 0.7790687000378966, 0.9623663000529632, 1.1540531000355259, 1.3374218000099063, 1.5374094999860972, 1.7374321999959648, 1.9207736999960616, 2.112481200019829, 2.312563700019382, 2.520909099956043, 2.7374864999437705, 2.9375074000563473, 3.129197599948384, 3.3375817999476567, 3.537639499991201, 3.7459036000072956, 3.9459863000083715, 4.154265100019984, 4.337728500016965, 4.762872499995865]"	153.642068400048	153.647702599992	155.139664100017	155.156104500056	NA	NA	NA	NA	NA	NA	NA	24	"03"	"2024-02-15_13h24.06.825"	"BART_exp"	"2023.2.3"	120.000048056264	"2024-02-15 13h24.17.893928 +0100"	NA
"balloon.png"	101	0	18	18	23	155.156104500056	NA	NA	NA	NA	NA	NA	NA	NA	NA	NA	NA	NA	155.139849100029	155.156104500056	155.156104500056	155.156104500056	155.156104500056	155.156104500056	-0.00083819997962564	-0.00083819997962564	-0.00083819997962564	155.156104500056	160.791752599995	23	1.15	FALSE	"[0.011111111111111112, 0.011111111111111112, 0.011111111111111112, 0.011111111111111112, 0.011111111111111112, 0.011111111111111112, 0.011111111111111112, 0.011111111111111112, 0.011111111111111112, 0.011111111111111112, 0.011111111111111112, 0.011111111111111112, 0.011111111111111112, 0.011111111111111112, 0.011111111111111112, 0.011111111111111112, 0.011111111111111112, 0.011111111111111112, 0.011111111111111112, 0.011111111111111112, 0.011111111111111112, 0.011111111111111112, 0.011111111111111112, 0.011111111111111112]"	"[-0.37777777777777777, -0.37777777777777777, -0.37777777777777777, -0.37777777777777777, -0.37777777777777777, -0.37777777777777777, -0.37777777777777777, -0.37777777777777777, -0.37777777777777777, -0.37777777777777777, -0.37777777777777777, -0.37777777777777777, -0.37777777777777777, -0.37777777777777777, -0.37777777777777777, -0.37777777777777777, -0.37777777777777777, -0.37777777777777777, -0.37777777777777777, -0.37777777777777777, -0.37777777777777777, -0.37777777777777777, -0.37777777777777777, -0.37777777777777777]"	"[1, 1, 1, 1, 1, 1, 1, 1, 1, 1, 1, 1, 1, 1, 1, 1, 1, 1, 1, 1, 1, 1, 1, 0]"	"[0, 0, 0, 0, 0, 0, 0, 0, 0, 0, 0, 0, 0, 0, 0, 0, 0, 0, 0, 0, 0, 0, 0, 0]"	"[0, 0, 0, 0, 0, 0, 0, 0, 0, 0, 0, 0, 0, 0, 0, 0, 0, 0, 0, 0, 0, 0, 0, 1]"	"[0.31705489999148995, 0.5004375000717118, 0.7004064000211656, 0.8921205999795347, 1.0921029000310227, 1.3004583000438288, 1.5004888999974355, 1.7087921000784263, 2.092166900052689, 2.31717200006824, 2.4506279000779614, 2.6755533000687137, 3.0087574999779463, 3.1839165000710636, 3.400491400039755, 3.6004613999975845, 3.800622300012037, 4.033810100052506, 4.267564699985087, 4.5256658999715, 4.7341061000479385, 4.950555399991572, 5.150696799973957, 5.6509041000390425]"	24	"[0.30966949998401105, 0.4930521999485791, 0.6930214000167325, 0.8847406000131741, 1.0847174999071285, 1.2930728999199346, 1.493112099939026, 1.7014101999811828, 2.084782399935648, 2.309789599967189, 2.4432405999395996, 2.668171999976039, 3.0013680999400094, 3.1765364999882877, 3.3931097999447957, 3.5930782000068575, 3.793236800003797, 4.026431199978106, 4.260177299962379, 4.518278499948792, 4.726720799924806, 4.943166699958965, 5.143311699968763, 5.643466099980287]"	"[0.3760332999518141, 0.5676994000095874, 0.759415699983947, 0.9593843999318779, 1.1760735999559984, 1.3677696000086144, 1.5846208999864757, 1.7677718999329954, 2.1845135999610648, 2.367849199916236, 2.5429048999212682, 2.8845123999053612, 3.059542699949816, 3.2679446999682114, 3.451258599990979, 3.659614700009115, 3.8929558999370784, 4.134620699915104, 4.342981299967505, 4.576294499915093, 4.8181891000131145, 5.018059599911794, 5.243013500003144, 5.643470700015314]"	160.792734800023	160.798177700024	162.290146799991	162.298291300074	NA	NA	NA	NA	NA	NA	NA	24	"03"	"2024-02-15_13h24.06.825"	"BART_exp"	"2023.2.3"	120.000048056264	"2024-02-15 13h24.17.893928 +0100"	NA
"balloon.png"	105	0	19	19	24	162.298291300074	NA	NA	NA	NA	NA	NA	NA	NA	NA	NA	NA	NA	162.290333800018	162.298291300074	162.298291300074	162.298291300074	162.298291300074	162.298291300074	0.00562260008882731	0.00562260008882731	0.00562260008882731	162.298291300074	166.833625900093	19	0.95	FALSE	"[0.012962962962962963, 0.013888888888888888, 0.013888888888888888, 0.013888888888888888, 0.013888888888888888, 0.013888888888888888, 0.013888888888888888, 0.013888888888888888, 0.013888888888888888, 0.013888888888888888, 0.013888888888888888, 0.013888888888888888, 0.013888888888888888, 0.013888888888888888, 0.013888888888888888, 0.013888888888888888, 0.013888888888888888, 0.013888888888888888, 0.013888888888888888, 0.013888888888888888]"	"[-0.3768518518518518, -0.3768518518518518, -0.3768518518518518, -0.3768518518518518, -0.3768518518518518, -0.3768518518518518, -0.3768518518518518, -0.3768518518518518, -0.3768518518518518, -0.3768518518518518, -0.3768518518518518, -0.3768518518518518, -0.3768518518518518, -0.3768518518518518, -0.3768518518518518, -0.3768518518518518, -0.3768518518518518, -0.3768518518518518, -0.3768518518518518, -0.3768518518518518]"	"[1, 1, 1, 1, 1, 1, 1, 1, 1, 1, 1, 1, 1, 1, 1, 1, 1, 1, 1, 0]"	"[0, 0, 0, 0, 0, 0, 0, 0, 0, 0, 0, 0, 0, 0, 0, 0, 0, 0, 0, 0]"	"[0, 0, 0, 0, 0, 0, 0, 0, 0, 0, 0, 0, 0, 0, 0, 0, 0, 0, 0, 1]"	"[0.4921104999957606, 0.6669535000110045, 0.8586919000372291, 1.0768760000355542, 1.258637999999337, 1.5005720000481233, 1.6756239000242203, 1.900676800054498, 2.1089770999969915, 2.3339142999611795, 2.5339181000599638, 2.7506459000287578, 2.9589270000578836, 3.1756462999619544, 3.3756626000395045, 3.5840720999985933, 3.7756441000383347, 3.9589838000247255, 4.192378400010057, 4.542366100009531]"	20	"[0.490217600017786, 0.6650635999394581, 0.8568090000189841, 1.0751456000143662, 1.256748899933882, 1.4986801999621093, 1.6737344999564812, 1.8987985999556258, 2.1070861000334844, 2.3320194999687374, 2.532024999964051, 2.748760799993761, 2.9570297999307513, 3.1737515999702737, 3.3737702999496832, 3.582179000019096, 3.773752399953082, 3.957092099939473, 4.19049539999105, 4.54040779999923]"	"[0.5648920999374241, 0.7816123999655247, 0.9650845000287518, 1.1649783999891952, 1.3566288999281824, 1.5816730000078678, 1.7902018999448046, 1.9900466999970376, 2.206685799988918, 2.406791599933058, 2.6150511000305414, 2.823390500037931, 3.040078799938783, 3.2484172999393195, 3.45709739997983, 3.6568517999257892, 3.8568754999432713, 4.065156199969351, 4.298726800014265, 4.540411800029688]"	166.83454880002	166.840253900038	168.332328599994	168.348684300086	NA	NA	NA	NA	NA	NA	NA	24	"03"	"2024-02-15_13h24.06.825"	"BART_exp"	"2023.2.3"	120.000048056264	"2024-02-15 13h24.17.893928 +0100"	NA
"balloon.png"	44	0	20	20	10	168.348684300086	NA	NA	NA	NA	NA	NA	NA	NA	NA	NA	NA	NA	168.332529600011	168.348684300086	168.348684300086	168.348684300086	168.348684300086	168.348684300086	-0.00073229998815804	-0.00073229998815804	-0.00073229998815804	168.348684300086	174.834206600091	25	1.25	FALSE	"[-0.000925925925925926, -0.000925925925925926, -0.000925925925925926, -0.000925925925925926, -0.000925925925925926, -0.000925925925925926, -0.000925925925925926, -0.000925925925925926, -0.000925925925925926, -0.000925925925925926, -0.000925925925925926, -0.000925925925925926, -0.000925925925925926, -0.000925925925925926, -0.000925925925925926, -0.000925925925925926, -0.000925925925925926, -0.000925925925925926, -0.000925925925925926, -0.000925925925925926, -0.000925925925925926, -0.000925925925925926, -0.000925925925925926, -0.000925925925925926, -0.000925925925925926, -0.000925925925925926]"	"[-0.36666666666666664, -0.36666666666666664, -0.36666666666666664, -0.36666666666666664, -0.36666666666666664, -0.36666666666666664, -0.36666666666666664, -0.36666666666666664, -0.36666666666666664, -0.36666666666666664, -0.36666666666666664, -0.36666666666666664, -0.36666666666666664, -0.36666666666666664, -0.36666666666666664, -0.36666666666666664, -0.36666666666666664, -0.36666666666666664, -0.36666666666666664, -0.36666666666666664, -0.36666666666666664, -0.36666666666666664, -0.36666666666666664, -0.36666666666666664, -0.36666666666666664, -0.36666666666666664]"	"[1, 1, 1, 1, 1, 1, 1, 1, 1, 1, 1, 1, 1, 1, 1, 1, 1, 1, 1, 1, 1, 1, 1, 1, 1, 0]"	"[0, 0, 0, 0, 0, 0, 0, 0, 0, 0, 0, 0, 0, 0, 0, 0, 0, 0, 0, 0, 0, 0, 0, 0, 0, 0]"	"[0, 0, 0, 0, 0, 0, 0, 0, 0, 0, 0, 0, 0, 0, 0, 0, 0, 0, 0, 0, 0, 0, 0, 0, 0, 1]"	"[0.34181819995865226, 0.5087398999603465, 0.7419063999550417, 0.9420081999851391, 1.1418657000176609, 1.333724100026302, 1.5335502999369055, 1.7420678000198677, 1.9753390999976546, 2.3336149000097066, 2.5420324000297114, 2.7586272000335157, 2.975296900025569, 3.200372299994342, 3.450535999960266, 3.6255553000373766, 3.8340663999551907, 4.033860099967569, 4.2505646999925375, 4.477090699947439, 4.700632399995811, 5.075718199950643, 5.3338626000331715, 5.575548499939032, 5.809057999984361, 6.500708199921064]"	26	"[0.33774029999040067, 0.5046646998962387, 0.7378249999601394, 0.9379281000001356, 1.1377845999086276, 1.3296457999385893, 1.529470399953425, 1.7379922999534756, 1.9712700999807566, 2.3295312999980524, 2.5379539999412373, 2.754547599935904, 2.9712159999180585, 3.1962951999157667, 3.4464585999958217, 3.6214777999557555, 3.8299892999930307, 4.02978619991336, 4.246481499983929, 4.473183399997652, 4.696551799890585, 5.071638199966401, 5.329779699910432, 5.571472999989055, 5.804984199930914, 6.496564299915917]"	"[0.43763770000077784, 0.6125982999801636, 0.804520099889487, 1.0126244999701157, 1.2043518999125808, 1.4043740999186411, 1.6126461999956518, 1.8043418999295682, 2.021016399958171, 2.4127160999923944, 2.5960538999643177, 2.82946619996801, 3.0628080999013036, 3.287844199920073, 3.496126599959098, 3.712847899994813, 3.9046185999177396, 4.096186499926262, 4.329574499977753, 4.554545999970287, 4.796366399968974, 5.146234799991362, 5.412916200002655, 5.654644800000824, 5.91299529990647, 6.496568699949421]"	174.835223700036	174.840881700045	176.332824700046	176.34927580005	NA	NA	NA	NA	NA	NA	NA	24	"03"	"2024-02-15_13h24.06.825"	"BART_exp"	"2023.2.3"	120.000048056264	"2024-02-15 13h24.17.893928 +0100"	NA
"balloon.png"	84	0	21	21	19	176.34927580005	NA	NA	NA	NA	NA	NA	NA	NA	NA	NA	NA	NA	176.333015000098	176.34927580005	176.34927580005	176.34927580005	176.34927580005	176.34927580005	-0.00085219996981322	-0.00085219996981322	-0.00085219996981322	176.34927580005	184.551564500085	31	1.55	FALSE	"[0.007407407407407408, 0.007407407407407408, 0.008333333333333333, 0.008333333333333333, 0.008333333333333333, 0.008333333333333333, 0.008333333333333333, 0.008333333333333333, 0.008333333333333333, 0.008333333333333333, 0.008333333333333333, 0.008333333333333333, 0.010185185185185186, 0.011111111111111112, 0.011111111111111112, 0.011111111111111112, 0.011111111111111112, 0.011111111111111112, 0.011111111111111112, 0.011111111111111112, 0.011111111111111112, 0.011111111111111112, 0.011111111111111112, 0.011111111111111112, 0.011111111111111112, 0.011111111111111112, 0.011111111111111112, 0.011111111111111112, 0.011111111111111112, 0.011111111111111112, 0.011111111111111112, 0.011111111111111112, 0.011111111111111112, 0.011111111111111112]"	"[-0.35185185185185186, -0.35185185185185186, -0.37407407407407406, -0.37407407407407406, -0.37407407407407406, -0.37407407407407406, -0.37407407407407406, -0.37407407407407406, -0.37407407407407406, -0.37407407407407406, -0.37407407407407406, -0.37407407407407406, -0.37407407407407406, -0.37407407407407406, -0.37407407407407406, -0.37407407407407406, -0.37407407407407406, -0.37407407407407406, -0.37407407407407406, -0.37407407407407406, -0.37407407407407406, -0.37407407407407406, -0.37407407407407406, -0.37407407407407406, -0.37407407407407406, -0.37407407407407406, -0.37407407407407406, -0.37407407407407406, -0.37407407407407406, -0.37407407407407406, -0.37407407407407406, -0.37407407407407406, -0.37407407407407406, -0.37407407407407406]"	"[1, 1, 1, 1, 1, 1, 1, 1, 1, 1, 1, 1, 1, 1, 1, 1, 1, 1, 1, 1, 1, 1, 1, 1, 1, 1, 1, 1, 1, 1, 1, 1, 1, 0]"	"[0, 0, 0, 0, 0, 0, 0, 0, 0, 0, 0, 0, 0, 0, 0, 0, 0, 0, 0, 0, 0, 0, 0, 0, 0, 0, 0, 0, 0, 0, 0, 0, 0, 0]"	"[0, 0, 0, 0, 0, 0, 0, 0, 0, 0, 0, 0, 0, 0, 0, 0, 0, 0, 0, 0, 0, 0, 0, 0, 0, 0, 0, 0, 0, 0, 0, 0, 0, 1]"	"[0.6254236999666318, 0.9835866999346763, 1.4003058000234887, 1.5920000999467447, 1.7919874000363052, 2.000384100014344, 2.2003670999547467, 2.400380100007169, 2.600372100016102, 2.775579600012861, 2.9920648999977857, 3.2004456999711692, 3.417143899947405, 3.600776399951428, 3.8088025000179186, 4.00893879996147, 4.217154299956746, 4.467338799964637, 4.700763399945572, 4.9257288000080734, 5.168444799957797, 5.400705899926834, 5.625719000003301, 5.834179199999198, 6.2424646000145, 6.460573700023815, 6.650884500006214, 6.834149000002071, 7.150683099986054, 7.342366399941966, 7.492605300038122, 7.650983999948949, 7.800871199928224, 8.217627099948004]"	32	"[1.3966067000292242, 1.5882986000506207, 1.788288600044325, 1.9966959001030773, 2.196661400026642, 2.396677100099623, 2.596667400095612, 2.772038000053726, 2.9883649999974295, 3.196742100059055, 3.4134403000352904, 3.597093200078234, 3.8050963000860065, 4.005240000085905, 4.20517580001615, 4.463640700094402, 4.697062600054778, 4.922024500090629, 5.1647441000677645, 5.397002300014719, 5.622019900009036, 5.830485000042245, 6.238761799992062, 6.456989700091071, 6.647182100103237, 6.830445500090718, 7.146985100000165, 7.3386587999993935, 7.488910500076599, 7.64728630008176, 7.797168500022963, 8.213860900024883]"	"[1.4965275001013651, 1.6964605000102893, 1.8715464000124484, 2.0631926000351086, 2.2715328000485897, 2.463239400065504, 2.6632274000439793, 2.8718194999964908, 3.0632534000324085, 3.271663899999112, 3.479957200004719, 3.6801921000005677, 3.87995360000059, 4.088291799998842, 4.296679300023243, 4.546664600027725, 4.788354400079697, 5.005025400081649, 5.271731100045145, 5.48847590002697, 5.713415400008671, 5.913491900078952, 6.3384546000743285, 6.530127300065942, 6.713510400033556, 6.8885984000517055, 7.221908100065775, 7.38855620007962, 7.571894100052305, 7.755290500004776, 7.913596100057475, 8.213865000056103]"	184.552852499997	184.55820040009	186.050166600035	186.058282700018	NA	NA	NA	NA	NA	NA	NA	24	"03"	"2024-02-15_13h24.06.825"	"BART_exp"	"2023.2.3"	120.000048056264	"2024-02-15 13h24.17.893928 +0100"	NA
"balloon.png"	18	0	22	22	4	186.058282700018	NA	NA	NA	NA	NA	NA	NA	NA	NA	NA	NA	NA	186.050349100027	186.058282700018	186.058282700018	186.058282700018	186.058282700018	186.058282700018	0.005495399935171	0.005495399935171	0.005495399935171	186.058282700018	190.510516200098	19	0.9	TRUE	"[-0.025, -0.025, -0.025, -0.025, -0.025, -0.025, -0.025, -0.025, -0.025, -0.025, -0.025, -0.025, -0.025, -0.025, -0.025, -0.025, -0.025, -0.025, -0.025]"	"[-0.387037037037037, -0.387037037037037, -0.387037037037037, -0.387037037037037, -0.387037037037037, -0.387037037037037, -0.387037037037037, -0.387037037037037, -0.387037037037037, -0.387037037037037, -0.387037037037037, -0.387037037037037, -0.387037037037037, -0.387037037037037, -0.387037037037037, -0.387037037037037, -0.387037037037037, -0.387037037037037, -0.387037037037037]"	"[1, 1, 1, 1, 1, 1, 1, 1, 1, 1, 1, 1, 1, 1, 1, 1, 1, 1, 1]"	"[0, 0, 0, 0, 0, 0, 0, 0, 0, 0, 0, 0, 0, 0, 0, 0, 0, 0, 0]"	"[0, 0, 0, 0, 0, 0, 0, 0, 0, 0, 0, 0, 0, 0, 0, 0, 0, 0, 0]"	"[0.5421168000902981, 0.7004488999955356, 0.8836632000748068, 1.0420319000259042, 1.2253095000050962, 1.3838048999896273, 1.5755054000765085, 1.8336850000778213, 2.0253646000055596, 2.217090400052257, 2.4087369000772014, 2.642070100060664, 2.883897799998522, 3.1256117000011727, 3.3089343000901863, 3.7506434000097215, 3.9673625000286847, 4.1757042000535876, 4.392211400088854]"	19	"[0.5401740000816062, 0.6984779000049457, 0.8816937000956386, 1.0400666000787169, 1.2233397000236437, 1.3818403000477701, 1.5735420000273734, 1.831721100024879, 2.023396800039336, 2.2151242000982165, 2.4067755000432953, 2.640107400016859, 2.88193080003839, 3.123657100019045, 3.306963999988511, 3.748677200055681, 3.9654001999879256, 4.173740900005214, 4.390243400004692]"	"[0.5981366999913007, 0.7648880000924692, 0.9565432000672445, 1.1148769001010805, 1.2898891000077128, 1.4816773000638932, 1.68162879999727, 1.8898851000703871, 2.0815749000757933, 2.3065842000069097, 2.5233006000053138, 2.714974300004542, 2.96500249998644, 3.1734154000878334, 3.3649947000667453, 3.8483678000047803, 4.048410200048238, 4.248428000020795, 4.448414000100456]"	190.511381000048	190.516911500017	192.008902800037	192.017044600099	NA	NA	NA	NA	NA	NA	NA	24	"03"	"2024-02-15_13h24.06.825"	"BART_exp"	"2023.2.3"	120.000048056264	"2024-02-15 13h24.17.893928 +0100"	NA
"balloon.png"	118	0	23	23	27	192.017044600099	NA	NA	NA	NA	NA	NA	NA	NA	NA	NA	NA	NA	192.009082100005	192.017044600099	192.017044600099	192.017044600099	192.017044600099	192.017044600099	0.00572610006202012	NA	NA	192.017044600099	194.777255300083	11	0.55	FALSE	"[-0.025, -0.025, -0.025, -0.025, -0.025, -0.025, -0.025, -0.025, -0.025, -0.025, -0.025, -0.025]"	"[-0.387037037037037, -0.387037037037037, -0.387037037037037, -0.387037037037037, -0.387037037037037, -0.387037037037037, -0.387037037037037, -0.387037037037037, -0.387037037037037, -0.387037037037037, -0.387037037037037, -0.387037037037037]"	"[1, 1, 1, 1, 1, 1, 1, 1, 1, 1, 1, 0]"	"[0, 0, 0, 0, 0, 0, 0, 0, 0, 0, 0, 0]"	"[0, 0, 0, 0, 0, 0, 0, 0, 0, 0, 0, 1]"	"[0.3002467999467626, 0.5005683000199497, 0.700276399962604, 0.8920273999683559, 1.0919910999946296, 1.3087069999892265, 1.5004903000080958, 1.7087208000011742, 1.9170259999809787, 2.108716099988669, 2.3422278000507504, 2.7672285999869928]"	12	"[0.29834069998469204, 0.4986690999940038, 0.6983710000058636, 0.8901264000451192, 1.0900916999671608, 1.3068017000332475, 1.4985878999577835, 1.7068182000657544, 1.9151197000173852, 2.1068082000128925, 2.3403227999806404, 2.765260700020008]"	"[0.3650982000399381, 0.5732295999769121, 0.7649265000363812, 0.9648899000603706, 1.1565971999661997, 1.3733522000256926, 1.5733220999827608, 1.7733099999604747, 2.006662099971436, 2.189993600011803, 2.448595399968326, 2.765264800051227]"	194.77806120005	194.783921000082	196.275842700037	196.300646000076	NA	NA	NA	NA	NA	NA	NA	24	"03"	"2024-02-15_13h24.06.825"	"BART_exp"	"2023.2.3"	120.000048056264	"2024-02-15 13h24.17.893928 +0100"	NA
"balloon.png"	14	0	24	24	3	196.300646000076	NA	NA	NA	NA	NA	NA	NA	NA	NA	NA	NA	NA	196.276018600096	196.300646000076	196.300646000076	196.300646000076	196.300646000076	196.300646000076	-0.00078959995880723	-0.00078959995880723	-0.00078959995880723	196.300646000076	199.869165500044	13	0.65	FALSE	"[-0.041666666666666664, -0.041666666666666664, -0.041666666666666664, -0.041666666666666664, -0.041666666666666664, -0.041666666666666664, -0.041666666666666664, -0.041666666666666664, -0.041666666666666664, -0.041666666666666664, -0.041666666666666664, -0.041666666666666664, -0.041666666666666664, -0.041666666666666664]"	"[-0.38981481481481484, -0.38981481481481484, -0.38981481481481484, -0.38981481481481484, -0.38981481481481484, -0.38981481481481484, -0.38981481481481484, -0.38981481481481484, -0.38981481481481484, -0.38981481481481484, -0.38981481481481484, -0.38981481481481484, -0.38981481481481484, -0.38981481481481484]"	"[1, 1, 1, 1, 1, 1, 1, 1, 1, 1, 1, 1, 1, 0]"	"[0, 0, 0, 0, 0, 0, 0, 0, 0, 0, 0, 0, 0, 0]"	"[0, 0, 0, 0, 0, 0, 0, 0, 0, 0, 0, 0, 0, 1]"	"[0.6170248000416905, 0.7838507000124082, 1.0170900999801233, 1.2505183999892324, 1.450528800021857, 1.667220399947837, 1.867221700027585, 2.0589211999904364, 2.2422904999693856, 2.425470700021833, 2.6338154999539256, 2.8254940999904647, 3.0424549999879673, 3.5922329999739304]"	14	"[0.6063328000018373, 0.7730329000623897, 1.0062709000194445, 1.2397073999745771, 1.4397159999934956, 1.6564029000001028, 1.856404000078328, 2.0481111999833956, 2.2314737000269815, 2.4146515000611544, 2.6229974000016227, 2.8146777000511065, 3.0316431000828743, 3.5813568000448868]"	"[0.6893709000432864, 0.872744100051932, 1.1143975000595674, 1.3310897999908775, 1.5311485000420362, 1.714438800001517, 1.9227940000128, 2.122878900030628, 2.331280400045216, 2.5061795000219718, 2.6895185000030324, 2.8811903999885544, 3.0895734999794513, 3.581360900076106]"	199.870113800047	199.875933200005	201.367875600001	201.384344800026	NA	NA	NA	NA	NA	NA	NA	24	"03"	"2024-02-15_13h24.06.825"	"BART_exp"	"2023.2.3"	120.000048056264	"2024-02-15 13h24.17.893928 +0100"	NA
"balloon.png"	97	0	25	25	22	201.384344800026	NA	NA	NA	NA	NA	NA	NA	NA	NA	NA	NA	NA	201.3680589	201.384344800026	201.384344800026	201.384344800026	201.384344800026	201.384344800026	-0.00079630000982433	-0.00079630000982433	-0.00079630000982433	201.384344800026	206.652941800072	21	1.05	FALSE	"[-0.041666666666666664, -0.041666666666666664, -0.041666666666666664, -0.041666666666666664, -0.041666666666666664, -0.041666666666666664, -0.041666666666666664, -0.041666666666666664, -0.041666666666666664, -0.041666666666666664, -0.041666666666666664, -0.041666666666666664, -0.041666666666666664, -0.041666666666666664, -0.041666666666666664, -0.041666666666666664, -0.041666666666666664, -0.041666666666666664, -0.041666666666666664, -0.041666666666666664, -0.041666666666666664, -0.041666666666666664]"	"[-0.38981481481481484, -0.38981481481481484, -0.38981481481481484, -0.38981481481481484, -0.38981481481481484, -0.38981481481481484, -0.38981481481481484, -0.38981481481481484, -0.38981481481481484, -0.38981481481481484, -0.38981481481481484, -0.38981481481481484, -0.38981481481481484, -0.38981481481481484, -0.38981481481481484, -0.38981481481481484, -0.38981481481481484, -0.38981481481481484, -0.38981481481481484, -0.38981481481481484, -0.38981481481481484, -0.38981481481481484]"	"[1, 1, 1, 1, 1, 1, 1, 1, 1, 1, 1, 1, 1, 1, 1, 1, 1, 1, 1, 1, 1, 0]"	"[0, 0, 0, 0, 0, 0, 0, 0, 0, 0, 0, 0, 0, 0, 0, 0, 0, 0, 0, 0, 0, 0]"	"[0, 0, 0, 0, 0, 0, 0, 0, 0, 0, 0, 0, 0, 0, 0, 0, 0, 0, 0, 0, 0, 1]"	"[0.7337733999593183, 0.9504717999370769, 1.1340041999937966, 1.3337942999787629, 1.5170314999995753, 1.7087116999318823, 1.9254304999485612, 2.108741099946201, 2.3254485999932513, 2.5255477998871356, 2.742138499976136, 2.942253199988045, 3.1590039998991415, 3.3756928999209777, 3.55896809999831, 3.759050599997863, 3.967357899993658, 4.167466299957596, 4.359111699974164, 4.6007298999466, 4.800893599982373, 5.283963799942285]"	22	"[0.7251836999785155, 0.9418782000429928, 1.1254128000000492, 1.325200799969025, 1.508433699957095, 1.7001177000347525, 1.9168327000224963, 2.1001468000467867, 2.3168495999416336, 2.5169541999930516, 2.725272799958475, 2.9336582999676466, 3.150405199965462, 3.367096500005573, 3.550374299986288, 3.7504665999440476, 3.9587664999999106, 4.15887050004676, 4.350520599982701, 4.592137099942192, 4.792305300012231, 5.275306900031865]"	"[0.8082645999966189, 1.0084523999830708, 1.2167628000024706, 1.4166097999550402, 1.6082912000129, 1.8083235999802127, 2.000017900019884, 2.1916733999969438, 2.4166893999790773, 2.616725099971518, 2.8167503000004217, 3.0419694000156596, 3.2501989000011235, 3.4250962999649346, 3.6167676999466494, 3.825137499952689, 4.034819999942556, 4.216869700001553, 4.408493099967018, 4.650287800002843, 4.900204599951394, 5.275311199948192]"	206.653868600028	206.659710100037	208.151669200044	208.168151000049	NA	NA	NA	NA	NA	NA	NA	24	"03"	"2024-02-15_13h24.06.825"	"BART_exp"	"2023.2.3"	120.000048056264	"2024-02-15 13h24.17.893928 +0100"	NA
"balloon.png"	57	0	26	26	13	208.168151000049	NA	NA	NA	NA	NA	NA	NA	NA	NA	NA	NA	NA	208.15184820001	208.168151000049	208.168151000049	208.168151000049	208.168151000049	208.168151000049	-0.0007663998985663	-0.0007663998985663	-0.0007663998985663	208.168151000049	212.653348700027	16	0.8	FALSE	"[-0.06944444444444445, -0.06759259259259259, -0.06481481481481481, -0.06481481481481481, -0.06388888888888888, -0.06296296296296296, -0.06296296296296296, -0.06296296296296296, -0.06296296296296296, -0.06296296296296296, -0.06296296296296296, -0.06296296296296296, -0.06296296296296296, -0.06296296296296296, -0.06296296296296296, -0.06296296296296296, -0.06296296296296296]"	"[-0.3907407407407407, -0.3907407407407407, -0.3888888888888889, -0.3888888888888889, -0.3888888888888889, -0.3888888888888889, -0.3888888888888889, -0.3888888888888889, -0.3888888888888889, -0.3888888888888889, -0.3888888888888889, -0.3888888888888889, -0.3888888888888889, -0.3888888888888889, -0.3888888888888889, -0.3888888888888889, -0.3888888888888889]"	"[1, 1, 1, 1, 1, 1, 1, 1, 1, 1, 1, 1, 1, 1, 1, 1, 0]"	"[0, 0, 0, 0, 0, 0, 0, 0, 0, 0, 0, 0, 0, 0, 0, 0, 0]"	"[0, 0, 0, 0, 0, 0, 0, 0, 0, 0, 0, 0, 0, 0, 0, 0, 1]"	"[0.9839057000353932, 1.1589437000220641, 1.3505734000355005, 1.5589061999926344, 1.7422674000263214, 1.9507626000558957, 2.1589555999962613, 2.3839994000736624, 2.5924530000193045, 2.7923063000198454, 3.00898679997772, 3.21735940000508, 3.4589080000296235, 3.7172084000194445, 3.9340305000077933, 4.142414200003259, 4.500595599994995]"	17	"[0.9786674999631941, 1.1537009000312537, 1.3453327999450266, 1.5536609999835491, 1.7370278999442235, 1.9455306000309065, 2.153714400017634, 2.3787558999611065, 2.5872127999318764, 2.787061500013806, 3.0037431999808177, 3.212125699967146, 3.453664799919352, 3.7119646000210196, 3.928788400022313, 4.137172700022347, 4.495285899960436]"	"[1.086721200030297, 1.2533353000180796, 1.4366571999853477, 1.636671399930492, 1.8450076000299305, 2.0367086000042036, 2.2450494000222534, 2.470086499932222, 2.6867387000238523, 2.878436899976805, 3.0867776999948546, 3.286796999978833, 3.4951453999383375, 3.8118408999871463, 4.020212600007653, 4.261862799990922, 4.49529029999394]"	212.654175400035	212.660131299985	214.152108700015	214.168573000003	NA	NA	NA	NA	NA	NA	NA	24	"03"	"2024-02-15_13h24.06.825"	"BART_exp"	"2023.2.3"	120.000048056264	"2024-02-15 13h24.17.893928 +0100"	NA
"balloon.png"	27	0	27	27	6	214.168573000003	NA	NA	NA	NA	NA	NA	NA	NA	NA	NA	NA	NA	214.152292200015	214.168573000003	214.168573000003	214.168573000003	214.168573000003	214.168573000003	-0.00063559995032846	-0.00063559995032846	-0.00063559995032846	214.168573000003	219.970712700044	19	0.95	FALSE	"[-0.05740740740740741, -0.05740740740740741, -0.05555555555555555, -0.05462962962962963, -0.05462962962962963, -0.05462962962962963, -0.05462962962962963, -0.05462962962962963, -0.05462962962962963, -0.05462962962962963, -0.05462962962962963, -0.05462962962962963, -0.05462962962962963, -0.05462962962962963, -0.05462962962962963, -0.05462962962962963, -0.05462962962962963, -0.05462962962962963, -0.05462962962962963, -0.05462962962962963]"	"[-0.38796296296296295, -0.38796296296296295, -0.38796296296296295, -0.38796296296296295, -0.38796296296296295, -0.38796296296296295, -0.38796296296296295, -0.38796296296296295, -0.38796296296296295, -0.38796296296296295, -0.38796296296296295, -0.38796296296296295, -0.38796296296296295, -0.38796296296296295, -0.38796296296296295, -0.38796296296296295, -0.38796296296296295, -0.38796296296296295, -0.38796296296296295, -0.38796296296296295]"	"[1, 1, 1, 1, 1, 1, 1, 1, 1, 1, 1, 1, 1, 1, 1, 1, 1, 1, 1, 0]"	"[0, 0, 0, 0, 0, 0, 0, 0, 0, 0, 0, 0, 0, 0, 0, 0, 0, 0, 0, 0]"	"[0, 0, 0, 0, 0, 0, 0, 0, 0, 0, 0, 0, 0, 0, 0, 0, 0, 0, 0, 1]"	"[1.1838673000456765, 1.4255716999759898, 1.6837447000434622, 1.917170700035058, 2.1172882999526337, 2.3422402000287548, 2.5589424000354484, 2.767441499978304, 2.975692000007257, 3.2006501000141725, 3.4090804000152275, 3.817409100010991, 4.175717900041491, 4.450680600013584, 4.676948199979961, 4.875616300036199, 5.075632799998857, 5.275637999991886, 5.483997600036673, 5.817507699946873]"	20	"[1.179130099946633, 1.4208413999294862, 1.6790082999505103, 1.912434499943629, 2.112551899976097, 2.3375043999403715, 2.5542095999699086, 2.76270530000329, 2.9709588999394327, 3.195917399949394, 3.4043428000295535, 3.8126700000138953, 4.1709820999531075, 4.445945899933577, 4.672382800024934, 4.870881499955431, 5.070894800010137, 5.270904799923301, 5.479262299952097, 5.812712899991311]"	"[1.2871365000028163, 1.5038586999289691, 1.7788381000282243, 1.9956267999950796, 2.1788708999520168, 2.395657900022343, 2.612267000018619, 2.8372396000195295, 3.045706999953836, 3.2622885999735445, 3.4625171999214217, 3.8873377999989316, 4.245704000000842, 4.520701300003566, 4.729179400019348, 4.937444199924357, 5.145793300005607, 5.3624741999665275, 5.53755479992833, 5.8127172000240535]"	219.971613200032	219.977317100042	221.469310100074	221.485808100086	NA	NA	NA	NA	NA	NA	NA	24	"03"	"2024-02-15_13h24.06.825"	"BART_exp"	"2023.2.3"	120.000048056264	"2024-02-15 13h24.17.893928 +0100"	NA
"balloon.png"	40	0	28	28	9	221.485808100086	NA	NA	NA	NA	NA	NA	NA	NA	NA	NA	NA	NA	221.469491500058	221.485808100086	221.485808100086	221.485808100086	221.485808100086	221.485808100086	-0.00085229997057467	-0.00085229997057467	-0.00085229997057467	221.485808100086	228.096289700014	22	1.1	FALSE	"[-0.05462962962962963, -0.05462962962962963, -0.05462962962962963, -0.05462962962962963, -0.05462962962962963, -0.05462962962962963, -0.05462962962962963, -0.05462962962962963, -0.05462962962962963, -0.05462962962962963, -0.05462962962962963, -0.05462962962962963, -0.05462962962962963, -0.05462962962962963, -0.05462962962962963, -0.05462962962962963, -0.05462962962962963, -0.05462962962962963, -0.05462962962962963, -0.05462962962962963, -0.05462962962962963, -0.05462962962962963, -0.05462962962962963]"	"[-0.38796296296296295, -0.38796296296296295, -0.38796296296296295, -0.38796296296296295, -0.38796296296296295, -0.38796296296296295, -0.38796296296296295, -0.38796296296296295, -0.38796296296296295, -0.38796296296296295, -0.38796296296296295, -0.38796296296296295, -0.38796296296296295, -0.38796296296296295, -0.38796296296296295, -0.38796296296296295, -0.38796296296296295, -0.38796296296296295, -0.38796296296296295, -0.38796296296296295, -0.38796296296296295, -0.38796296296296295, -0.38796296296296295]"	"[1, 1, 1, 1, 1, 1, 1, 1, 1, 1, 1, 1, 1, 1, 1, 1, 1, 1, 1, 1, 1, 1, 0]"	"[0, 0, 0, 0, 0, 0, 0, 0, 0, 0, 0, 0, 0, 0, 0, 0, 0, 0, 0, 0, 0, 0, 0]"	"[0, 0, 0, 0, 0, 0, 0, 0, 0, 0, 0, 0, 0, 0, 0, 0, 0, 0, 0, 0, 0, 0, 1]"	"[0.9171126000583172, 1.0921466000145301, 1.3005061000585556, 1.5088449000613764, 1.7090497000608593, 1.8935540000675246, 2.1005721000256017, 2.300547600025311, 2.4842226000037044, 2.692254399997182, 2.9171149999601766, 3.3090213000541553, 3.51720630005002, 3.700693999999203, 3.884095099987462, 4.075801099999808, 4.292377599980682, 4.783924599993043, 5.1008169000269845, 5.459102599998005, 5.950688399956562, 6.184004300041124, 6.625880200066604]"	23	"[0.9096727999858558, 1.0847057000501081, 1.2930688000051305, 1.5014121000422165, 1.701617900049314, 1.886281399987638, 2.0931316000642255, 2.2931153000099584, 2.4767881999723613, 2.684813700034283, 2.909679500036873, 3.301580199971795, 3.50977970007807, 3.6932571000652388, 3.876660800073296, 4.068383399979211, 4.284942700061947, 4.776493399986066, 5.093379699974321, 5.451663500047289, 5.943250200012699, 6.176564200082794, 6.618377099977806]"	"[1.0093787000514567, 1.1677225000457838, 1.359396200045012, 1.5594548999797553, 1.767907700035721, 1.976171600050293, 2.176181200076826, 2.3512357000727206, 2.5679509000619873, 2.7595358999678865, 2.96784379996825, 3.3679713000310585, 3.567922000074759, 3.75957620004192, 3.9429834000766277, 4.1429351000115275, 4.343013799982145, 4.859657300054096, 5.218247700016946, 5.526367000071332, 6.034896400058642, 6.2347648000577465, 6.618381000007503]"	228.097353600082	228.10289129999	229.594854200026	229.602990600048	NA	NA	NA	NA	NA	NA	NA	24	"03"	"2024-02-15_13h24.06.825"	"BART_exp"	"2023.2.3"	120.000048056264	"2024-02-15 13h24.17.893928 +0100"	NA
"balloon.png"	110	0	29	29	25	229.602990600048	NA	NA	NA	NA	NA	NA	NA	NA	NA	NA	NA	NA	229.595037900028	229.602990600048	229.602990600048	229.602990600048	229.602990600048	229.602990600048	0.00570029998198151	0.00570029998198151	0.00570029998198151	229.602990600048	236.596686200006	27	1.35	FALSE	"[-0.05462962962962963, -0.05462962962962963, -0.05462962962962963, -0.05462962962962963, -0.05462962962962963, -0.05462962962962963, -0.05462962962962963, -0.05462962962962963, -0.05462962962962963, -0.05462962962962963, -0.05462962962962963, -0.05462962962962963, -0.05462962962962963, -0.05462962962962963, -0.05462962962962963, -0.05462962962962963, -0.05462962962962963, -0.05462962962962963, -0.05462962962962963, -0.05462962962962963, -0.05462962962962963, -0.05462962962962963, -0.05462962962962963, -0.05462962962962963, -0.05462962962962963, -0.05462962962962963, -0.05462962962962963, -0.05462962962962963]"	"[-0.38796296296296295, -0.38796296296296295, -0.38796296296296295, -0.38796296296296295, -0.38796296296296295, -0.38796296296296295, -0.38796296296296295, -0.38796296296296295, -0.38796296296296295, -0.38796296296296295, -0.38796296296296295, -0.38796296296296295, -0.38796296296296295, -0.38796296296296295, -0.38796296296296295, -0.38796296296296295, -0.38796296296296295, -0.38796296296296295, -0.38796296296296295, -0.38796296296296295, -0.38796296296296295, -0.38796296296296295, -0.38796296296296295, -0.38796296296296295, -0.38796296296296295, -0.38796296296296295, -0.38796296296296295, -0.38796296296296295]"	"[1, 1, 1, 1, 1, 1, 1, 1, 1, 1, 1, 1, 1, 1, 1, 1, 1, 1, 1, 1, 1, 1, 1, 1, 1, 1, 1, 0]"	"[0, 0, 0, 0, 0, 0, 0, 0, 0, 0, 0, 0, 0, 0, 0, 0, 0, 0, 0, 0, 0, 0, 0, 0, 0, 0, 0, 0]"	"[0, 0, 0, 0, 0, 0, 0, 0, 0, 0, 0, 0, 0, 0, 0, 0, 0, 0, 0, 0, 0, 0, 0, 0, 0, 0, 0, 1]"	"[0.6754907000577077, 0.9338675000471994, 1.1089085000567138, 1.3422596000600606, 1.533867400023155, 1.7505700000328943, 1.9589552000397816, 2.183786700014025, 2.38385380001273, 2.608930499991402, 2.800503700040281, 3.017176300054416, 3.2338469000533223, 3.433987700031139, 3.658959800028242, 3.850711500039324, 4.0589046000968665, 4.250700000091456, 4.467401700094342, 4.700852800044231, 5.10084490000736, 5.292543000075966, 5.467488800059073, 5.700964600080624, 5.867525300011039, 6.40080790000502, 6.63408009998966, 7.000763000105508]"	28	"[0.6736389000434428, 0.9320225999690592, 1.107059400063008, 1.3404088000534102, 1.5320217000553384, 1.7487197000300512, 1.9571082000620663, 2.181937300018035, 2.382005700026639, 2.607084000017494, 2.798649500007741, 3.0153264000546187, 3.231998800067231, 3.432135400013067, 3.6571100000292063, 3.848861200036481, 4.057058700011112, 4.248850999982096, 4.465552699984983, 4.699009599979036, 5.099008399993181, 5.290692799957469, 5.465638200053945, 5.69911389995832, 5.865672999992967, 6.398958300007507, 6.632228499976918, 6.998852699995041]"	"[0.756692299968563, 0.9817719999700785, 1.215110499993898, 1.4067994999932125, 1.6234346999553964, 1.8236692000646144, 2.0401300999801606, 2.2486243000021204, 2.440150500042364, 2.65694200003054, 2.873515499988571, 3.0734968000324443, 3.298521099961363, 3.498531399993226, 3.7069982000393793, 3.9070213000522926, 4.115236300043762, 4.323641699971631, 4.531927000032738, 4.756958100013435, 5.165315299993381, 5.340375900035724, 5.523728000000119, 5.740415200009011, 5.940577300032601, 6.45707390003372, 6.715451600030065, 6.998857100028545]"	236.597789100022	236.60352340003	238.095475599985	238.103610999999	NA	NA	NA	NA	NA	NA	NA	24	"03"	"2024-02-15_13h24.06.825"	"BART_exp"	"2023.2.3"	120.000048056264	"2024-02-15 13h24.17.893928 +0100"	NA
NA	NA	NA	NA	NA	NA	NA	NA	NA	NA	NA	NA	NA	NA	NA	NA	NA	NA	NA	NA	NA	NA	NA	NA	NA	NA	NA	NA	NA	NA	NA	NA	NA	NA	NA	NA	NA	NA	NA	NA	NA	NA	NA	NA	NA	NA	238.095511300024	238.103610999999	238.103610999999	249.588102500071	"space"	11.4780580999795	"None"	24	"03"	"2024-02-15_13h24.06.825"	"BART_exp"	"2023.2.3"	120.000048056264	"2024-02-15 13h24.17.893928 +0100"	NA
