"image"	"max_pumps"	"pump_loop.thisRepN"	"pump_loop.thisTrialN"	"pump_loop.thisN"	"pump_loop.thisIndex"	"thisRow.t"	"notes"	"Start.started"	"text_start.started"	"continue_start.started"	"mouse_start.started"	"Start.stopped"	"mouse_start.x"	"mouse_start.y"	"mouse_start.leftButton"	"mouse_start.midButton"	"mouse_start.rightButton"	"mouse_start.time"	"trials.started"	"stim_balloon.started"	"stim_balloon_burst.started"	"stim_balloon_burst.stopped"	"text_ballon_value.started"	"text_bank.started"	"mouse.started"	"sound_bang.started"	"sound_bang.stopped"	"button_balloon.started"	"trials.stopped"	"n_pumps"	"earnings"	"popped"	"mouse.x"	"mouse.y"	"mouse.leftButton"	"mouse.midButton"	"mouse.rightButton"	"mouse.time"	"button_balloon.numClicks"	"button_balloon.timesOn"	"button_balloon.timesOff"	"Feedback.started"	"text_feedback.started"	"Feedback.stopped"	"text_feedback.stopped"	"End.started"	"text_end.started"	"key_end.started"	"End.stopped"	"key_end.keys"	"key_end.rt"	"key_end.duration"	"participant"	"session"	"date"	"expName"	"psychopyVersion"	"frameRate"	"expStart"	"...61"
NA	NA	NA	NA	NA	NA	NA	NA	0.0377878999570385	0.0453170000109821	0.0453170000109821	0.0381213000509888	57.7332557999762	"[0.7203703703703703]"	"[-0.38333333333333336]"	"[1]"	"[0]"	"[0]"	"[57.694562799995765]"	NA	NA	NA	NA	NA	NA	NA	NA	NA	NA	NA	NA	NA	NA	NA	NA	NA	NA	NA	NA	NA	NA	NA	NA	NA	NA	NA	NA	NA	NA	NA	NA	NA	NA	24	"02"	"2024-02-15_13h15.09.984"	"BART_exp"	"2023.2.3"	119.957295268725	"2024-02-15 13h15.19.192646 +0100"	NA
"balloon.png"	118	0	0	0	27	57.8078167999629	NA	NA	NA	NA	NA	NA	NA	NA	NA	NA	NA	NA	57.7407504000003	57.8078167999629	57.8078167999629	57.8078167999629	57.8078167999629	57.8078167999629	0.00938199996016919	0.00938199996016919	0.00938199996016919	57.8078167999629	62.9598675000016	10	0.5	FALSE	"[-0.06111111111111111, -0.06111111111111111, -0.06111111111111111, -0.06111111111111111, -0.06111111111111111, -0.06111111111111111, -0.06111111111111111, -0.06111111111111111, -0.06111111111111111, -0.06111111111111111, -0.06111111111111111]"	"[-0.3648148148148148, -0.3648148148148148, -0.3648148148148148, -0.3648148148148148, -0.3648148148148148, -0.3648148148148148, -0.3648148148148148, -0.3648148148148148, -0.3648148148148148, -0.3648148148148148, -0.3648148148148148]"	"[1, 1, 1, 1, 1, 1, 1, 1, 1, 1, 0]"	"[0, 0, 0, 0, 0, 0, 0, 0, 0, 0, 0]"	"[0, 0, 0, 0, 0, 0, 0, 0, 0, 0, 1]"	"[1.4761755999643356, 2.042841500020586, 2.426193199935369, 2.701081099919975, 2.951070199953392, 3.234625299926847, 3.4844448999501765, 3.759482799912803, 4.384480800013989, 4.692994099925272, 5.218042699969374]"	11	"[1.4206424000440165, 1.987307400093414, 2.370655400096439, 2.645543200080283, 2.8955292000900954, 3.179088000091724, 3.42890460009221, 3.703949600108899, 4.320756200002506, 4.637486500083469, 5.162443800014444]"	"[1.5203216000227258, 2.0883430000394583, 2.478821700089611, 2.720412600087002, 3.003940400085412, 3.278778600040823, 3.5204291000263765, 3.820440800045617, 4.403840000042692, 4.770510800066404, 5.162448000046425]"	62.961122800014	62.9747343999334	64.4666214999743	NA	NA	NA	NA	NA	NA	NA	NA	24	"02"	"2024-02-15_13h15.09.984"	"BART_exp"	"2023.2.3"	119.957295268725	"2024-02-15 13h15.19.192646 +0100"	NA
"balloon.png"	23	0	1	1	5	64.4832944000373	NA	NA	NA	NA	NA	NA	NA	NA	NA	NA	NA	NA	64.466796600027	64.4832944000373	64.4832944000373	64.4832944000373	64.4832944000373	64.4832944000373	0.00687949999701231	0.00687949999701231	0.00687949999701231	64.4832944000373	68.8600955000147	13	0.65	FALSE	"[-0.05462962962962963, -0.05462962962962963, -0.05462962962962963, -0.05462962962962963, -0.05462962962962963, -0.05462962962962963, -0.05462962962962963, -0.05462962962962963, -0.05462962962962963, -0.05462962962962963, -0.05462962962962963, -0.05462962962962963, -0.05462962962962963, -0.05462962962962963]"	"[-0.3638888888888889, -0.3638888888888889, -0.3638888888888889, -0.3638888888888889, -0.3638888888888889, -0.3638888888888889, -0.3638888888888889, -0.3638888888888889, -0.3638888888888889, -0.3638888888888889, -0.3638888888888889, -0.3638888888888889, -0.3638888888888889, -0.3638888888888889]"	"[1, 1, 1, 1, 1, 1, 1, 1, 1, 1, 1, 1, 1, 0]"	"[0, 0, 0, 0, 0, 0, 0, 0, 0, 0, 0, 0, 0, 0]"	"[0, 0, 0, 0, 0, 0, 0, 0, 0, 0, 0, 0, 0, 1]"	"[0.7425171999493614, 1.0005273999413475, 1.2172144999494776, 1.4255506000481546, 1.6591673999791965, 1.9258008999750018, 2.1257843000348657, 2.508979200036265, 2.742513500037603, 2.992347199935466, 3.2508559999987483, 3.4927547000115737, 3.809045600006357, 4.392416600021534]"	14	"[0.7328644000226632, 0.9908745000138879, 1.2075548999710009, 1.4158964999951422, 1.6495216999901459, 1.916146499919705, 2.1161292999750003, 2.499348699930124, 2.732862600008957, 2.9826925999950618, 3.2411992999259382, 3.4830997999524698, 3.7993930999655277, 4.3826943000312895]"	"[0.8324024999747053, 1.0658088999334723, 1.274192399927415, 1.4990824999986216, 1.7157814999809489, 1.9741537999361753, 2.207515300018713, 2.590894400025718, 2.8325936999171972, 3.0492667999351397, 3.307647299952805, 3.5576039999723434, 3.8992583999643102, 4.3826985999476165]"	68.8608922000276	68.8669088999741	70.3589317000005	70.3753557000309	NA	NA	NA	NA	NA	NA	NA	24	"02"	"2024-02-15_13h15.09.984"	"BART_exp"	"2023.2.3"	119.957295268725	"2024-02-15 13h15.19.192646 +0100"	NA
"balloon.png"	57	0	2	2	13	70.3753557000309	NA	NA	NA	NA	NA	NA	NA	NA	NA	NA	NA	NA	70.3591141999932	70.3753557000309	70.3753557000309	70.3753557000309	70.3753557000309	70.3753557000309	-0.00053720001596957	-0.00053720001596957	-0.00053720001596957	70.3753557000309	73.7273130000103	13	0.65	FALSE	"[-0.05462962962962963, -0.05462962962962963, -0.05462962962962963, -0.05462962962962963, -0.05462962962962963, -0.05462962962962963, -0.05462962962962963, -0.05462962962962963, -0.05462962962962963, -0.05462962962962963, -0.05462962962962963, -0.05462962962962963, -0.05462962962962963, -0.05462962962962963]"	"[-0.3638888888888889, -0.3638888888888889, -0.3638888888888889, -0.3638888888888889, -0.3638888888888889, -0.3638888888888889, -0.3638888888888889, -0.3638888888888889, -0.3638888888888889, -0.3638888888888889, -0.3638888888888889, -0.3638888888888889, -0.3638888888888889, -0.3638888888888889]"	"[1, 1, 1, 1, 1, 1, 1, 1, 1, 1, 1, 1, 1, 0]"	"[0, 0, 0, 0, 0, 0, 0, 0, 0, 0, 0, 0, 0, 0]"	"[0, 0, 0, 0, 0, 0, 0, 0, 0, 0, 0, 0, 0, 1]"	"[0.5335460000205785, 0.7421559999929741, 0.9837685000384226, 1.1670755000086501, 1.3838404000271112, 1.6171143000246957, 1.8004768000682816, 2.0254976000869647, 2.200514900032431, 2.4005347000202164, 2.592270000022836, 2.7755479000043124, 2.9755401000147685, 3.3672596000833437]"	14	"[0.5263272000011057, 0.7349356000777334, 0.976547300000675, 1.1598564001033083, 1.3766247000312433, 1.6098912000888959, 1.7932543000206351, 2.018273100024089, 2.1932941999984905, 2.3933127000927925, 2.5850519000086933, 2.768328200094402, 2.968320000101812, 3.3599717000033706]"	"[0.5928832000354305, 0.8262474000221118, 1.0345374000025913, 1.2346046000020579, 1.4846207000082359, 1.6680145000573248, 1.87628590001259, 2.0679882999975234, 2.259642400080338, 2.4597407000837848, 2.6431879000738263, 2.826398400007747, 3.068257600069046, 3.3599759000353515]"	73.7280941000208	73.7339305999922	75.2258571999846	75.2423799999524	NA	NA	NA	NA	NA	NA	NA	24	"02"	"2024-02-15_13h15.09.984"	"BART_exp"	"2023.2.3"	119.957295268725	"2024-02-15 13h15.19.192646 +0100"	NA
"balloon.png"	62	0	3	3	14	75.2423799999524	NA	NA	NA	NA	NA	NA	NA	NA	NA	NA	NA	NA	75.2260309000267	75.2423799999524	75.2423799999524	75.2423799999524	75.2423799999524	75.2423799999524	-0.00081919995136559	-0.00081919995136559	-0.00081919995136559	75.2423799999524	80.3793732000049	18	0.9	FALSE	"[-0.04537037037037037, -0.04537037037037037, -0.04537037037037037, -0.04537037037037037, -0.04537037037037037, -0.04537037037037037, -0.04537037037037037, -0.04537037037037037, -0.04537037037037037, -0.04537037037037037, -0.04537037037037037, -0.04537037037037037, -0.04537037037037037, -0.04537037037037037, -0.04537037037037037, -0.04537037037037037, -0.04537037037037037, -0.04537037037037037, -0.04537037037037037]"	"[-0.37222222222222223, -0.37222222222222223, -0.37222222222222223, -0.37222222222222223, -0.37222222222222223, -0.37222222222222223, -0.37222222222222223, -0.37222222222222223, -0.37222222222222223, -0.37222222222222223, -0.37222222222222223, -0.37222222222222223, -0.37222222222222223, -0.37222222222222223, -0.37222222222222223, -0.37222222222222223, -0.37222222222222223, -0.37222222222222223, -0.37222222222222223]"	"[1, 1, 1, 1, 1, 1, 1, 1, 1, 1, 1, 1, 1, 1, 1, 1, 1, 1, 0]"	"[0, 0, 0, 0, 0, 0, 0, 0, 0, 0, 0, 0, 0, 0, 0, 0, 0, 0, 0]"	"[0, 0, 0, 0, 0, 0, 0, 0, 0, 0, 0, 0, 0, 0, 0, 0, 0, 0, 1]"	"[0.4754408000735566, 0.6753566000843421, 0.8588794000679627, 1.2838309000944719, 1.4671001000097021, 1.6588445000816137, 1.8504026000155136, 2.0337535000871867, 2.2340229999972507, 2.4254426000406966, 2.625487600103952, 3.0338364000199363, 3.2255146000534296, 3.4005088000558317, 3.6172033000038937, 3.8173389000585303, 4.3174313000636175, 4.659071300062351, 5.152212000102736]"	19	"[0.465047899982892, 0.6649609999731183, 0.8484953999286518, 1.273435499984771, 1.456704800017178, 1.648449799977243, 1.8400010999757797, 2.0233535999432206, 2.2236233999719843, 2.415038999984972, 2.61508589994628, 3.0234337999718264, 3.215115299914032, 3.390117699978873, 3.6068025999702513, 3.806940299924463, 4.307055999990553, 4.6486721999244764, 5.141859899973497]"	"[0.5397607999620959, 0.7480909000150859, 0.9314575999742374, 1.3315158999757841, 1.5232502999715507, 1.7065061000175774, 1.9066476000007242, 2.098201699904166, 2.289883799967356, 2.4815564999589697, 2.6815790999680758, 3.1232902999036014, 3.30665159993805, 3.490000699996017, 3.7066436000168324, 3.873353499919176, 4.390027799992822, 4.7568357000127435, 5.141866999911144]"	80.3802549999673	80.3927087000338	81.8845189999556	NA	NA	NA	NA	NA	NA	NA	NA	24	"02"	"2024-02-15_13h15.09.984"	"BART_exp"	"2023.2.3"	119.957295268725	"2024-02-15 13h15.19.192646 +0100"	NA
"balloon.png"	31	0	4	4	7	81.8928108999971	NA	NA	NA	NA	NA	NA	NA	NA	NA	NA	NA	NA	81.8846919999924	81.8928108999971	81.8928108999971	81.8928108999971	81.8928108999971	81.8928108999971	0.00561830005608499	0.00561830005608499	0.00561830005608499	81.8928108999971	86.0949859999819	17	0.85	FALSE	"[-0.03981481481481482, -0.03981481481481482, -0.03981481481481482, -0.03981481481481482, -0.03981481481481482, -0.03981481481481482, -0.03981481481481482, -0.03981481481481482, -0.03981481481481482, -0.03981481481481482, -0.03981481481481482, -0.03981481481481482, -0.03981481481481482, -0.03981481481481482, -0.03981481481481482, -0.03981481481481482, -0.03981481481481482, -0.03981481481481482]"	"[-0.38425925925925924, -0.38425925925925924, -0.38425925925925924, -0.38425925925925924, -0.38425925925925924, -0.38425925925925924, -0.38425925925925924, -0.38425925925925924, -0.38425925925925924, -0.38425925925925924, -0.38425925925925924, -0.38425925925925924, -0.38425925925925924, -0.38425925925925924, -0.38425925925925924, -0.38425925925925924, -0.38425925925925924, -0.38425925925925924]"	"[1, 1, 1, 1, 1, 1, 1, 1, 1, 1, 1, 1, 1, 1, 1, 1, 1, 0]"	"[0, 0, 0, 0, 0, 0, 0, 0, 0, 0, 0, 0, 0, 0, 0, 0, 0, 0]"	"[0, 0, 0, 0, 0, 0, 0, 0, 0, 0, 0, 0, 0, 0, 0, 0, 0, 1]"	"[0.7588353999890387, 0.9755488999653608, 1.150553600047715, 1.333891800022684, 1.533939899993129, 1.7089005999732763, 1.8840665000025183, 2.050749000045471, 2.2424537000479177, 2.425790000008419, 2.733988599968143, 2.9590026000514627, 3.109047400066629, 3.2841809999663383, 3.442546400008723, 3.6175264000194147, 3.7924590000184253, 4.209384500049055]"	18	"[0.7565519000636414, 0.9732736999867484, 1.1482727000257, 1.3316116000059992, 1.531656000064686, 1.7066174000501633, 1.8817859999835491, 2.0484705000417307, 2.2401717000175267, 2.423511300003156, 2.731710300082341, 2.9567151999799535, 3.1067655000369996, 3.2818945000180975, 3.4402620000764728, 3.615245299995877, 3.7901762999827042, 4.20704210002441]"	"[0.8397572999820113, 1.0230816000839695, 1.2147865000879392, 1.406519600073807, 1.581456599989906, 1.7815566000062972, 1.964827400050126, 2.148165100021288, 2.306683500064537, 2.489849800011143, 2.8329382000956684, 3.006564400042407, 3.173253900022246, 3.3482582999859005, 3.5399151000892743, 3.7066257999977097, 3.865073600085452, 4.2070463000563905]"	86.0958606000058	86.1014416000107	87.5934077999555	87.6015475000022	NA	NA	NA	NA	NA	NA	NA	24	"02"	"2024-02-15_13h15.09.984"	"BART_exp"	"2023.2.3"	119.957295268725	"2024-02-15 13h15.19.192646 +0100"	NA
"balloon.png"	105	0	5	5	24	87.6015475000022	NA	NA	NA	NA	NA	NA	NA	NA	NA	NA	NA	NA	87.5935833000112	87.6015475000022	87.6015475000022	87.6015475000022	87.6015475000022	87.6015475000022	0.00575050001498311	0.00575050001498311	0.00575050001498311	87.6015475000022	93.3701589000411	23	1.15	FALSE	"[-0.013888888888888888, -0.013888888888888888, -0.013888888888888888, -0.013888888888888888, -0.013888888888888888, -0.013888888888888888, -0.013888888888888888, -0.013888888888888888, -0.013888888888888888, -0.013888888888888888, -0.013888888888888888, -0.013888888888888888, -0.013888888888888888, -0.013888888888888888, -0.013888888888888888, -0.013888888888888888, -0.013888888888888888, -0.013888888888888888, -0.013888888888888888, -0.013888888888888888, -0.013888888888888888, -0.013888888888888888, -0.013888888888888888, -0.013888888888888888]"	"[-0.4083333333333333, -0.4083333333333333, -0.4083333333333333, -0.4083333333333333, -0.4083333333333333, -0.4083333333333333, -0.4083333333333333, -0.4083333333333333, -0.4083333333333333, -0.4083333333333333, -0.4083333333333333, -0.4083333333333333, -0.4083333333333333, -0.4083333333333333, -0.4083333333333333, -0.4083333333333333, -0.4083333333333333, -0.4083333333333333, -0.4083333333333333, -0.4083333333333333, -0.4083333333333333, -0.4083333333333333, -0.4083333333333333, -0.4083333333333333]"	"[1, 1, 1, 1, 1, 1, 1, 1, 1, 1, 1, 1, 1, 1, 1, 1, 1, 1, 1, 1, 1, 1, 1, 0]"	"[0, 0, 0, 0, 0, 0, 0, 0, 0, 0, 0, 0, 0, 0, 0, 0, 0, 0, 0, 0, 0, 0, 0, 0]"	"[0, 0, 0, 0, 0, 0, 0, 0, 0, 0, 0, 0, 0, 0, 0, 0, 0, 0, 0, 0, 0, 0, 0, 1]"	"[0.5838148000184447, 0.7754706999985501, 0.9671877999790013, 1.158830099971965, 1.3339026999892667, 1.5337289000162855, 1.7255523999920115, 1.9088903999654576, 2.0923765000188723, 2.2587454000022262, 2.425598999951035, 2.6004643000196666, 2.775617799954489, 2.950649100006558, 3.3256601999746636, 3.4923528999788687, 3.6755528999492526, 3.850557400030084, 4.1757084999699146, 4.484091999940574, 4.967318199924193, 5.125809599994682, 5.3007923000259325, 5.775645999936387]"	24	"[0.5819989000447094, 0.7736527000088245, 0.965372100006789, 1.157010200084187, 1.3320892000338063, 1.531912500038743, 1.723736200015992, 1.9070779000176117, 2.090558600029908, 2.2569242999888957, 2.423782500089146, 2.5986424000002444, 2.7738143000751734, 2.9488331000320613, 3.3238440999994054, 3.490533799980767, 3.6737329000607133, 3.8487368000205606, 4.173890699981712, 4.482275200076401, 4.965499800047837, 5.123994000023231, 5.298972100019455, 5.773763800039887]"	"[0.6733964000595734, 0.8566783000715077, 1.0316919999895617, 1.2233667999971658, 1.415059500024654, 1.6067657000385225, 1.7817535999929532, 1.9817594999913126, 2.165291400044225, 2.3151372000575066, 2.490168399992399, 2.6569986999966204, 2.8235132000409067, 3.065189399989322, 3.415216900059022, 3.573579000076279, 3.7404055000515655, 3.923573000007309, 4.26525599998422, 4.573633800027892, 5.031985400011763, 5.198667800053954, 5.348670199979097, 5.77376810007263]"	93.3711799000157	93.3769905000227	94.868938999949	94.8853855000343	NA	NA	NA	NA	NA	NA	NA	24	"02"	"2024-02-15_13h15.09.984"	"BART_exp"	"2023.2.3"	119.957295268725	"2024-02-15 13h15.19.192646 +0100"	NA
"balloon.png"	97	0	6	6	22	94.8853855000343	NA	NA	NA	NA	NA	NA	NA	NA	NA	NA	NA	NA	94.8691195000429	94.8853855000343	94.8853855000343	94.8853855000343	94.8853855000343	94.8853855000343	-0.00080369994975626	-0.00080369994975626	-0.00080369994975626	94.8853855000343	101.245901999995	26	1.3	FALSE	"[-0.017592592592592594, -0.017592592592592594, -0.017592592592592594, -0.017592592592592594, -0.017592592592592594, -0.017592592592592594, -0.017592592592592594, -0.017592592592592594, -0.017592592592592594, -0.017592592592592594, -0.017592592592592594, -0.017592592592592594, -0.017592592592592594, -0.017592592592592594, -0.017592592592592594, -0.017592592592592594, -0.017592592592592594, -0.017592592592592594, -0.017592592592592594, -0.017592592592592594, -0.017592592592592594, -0.017592592592592594, -0.017592592592592594, -0.017592592592592594, -0.017592592592592594, -0.017592592592592594, -0.017592592592592594]"	"[-0.40370370370370373, -0.40370370370370373, -0.40370370370370373, -0.40370370370370373, -0.40370370370370373, -0.40370370370370373, -0.40370370370370373, -0.40370370370370373, -0.40370370370370373, -0.40370370370370373, -0.40370370370370373, -0.40370370370370373, -0.40370370370370373, -0.40370370370370373, -0.40370370370370373, -0.40370370370370373, -0.40370370370370373, -0.40370370370370373, -0.40370370370370373, -0.40370370370370373, -0.40370370370370373, -0.40370370370370373, -0.40370370370370373, -0.40370370370370373, -0.40370370370370373, -0.40370370370370373, -0.40370370370370373]"	"[1, 1, 1, 1, 1, 1, 1, 1, 1, 1, 1, 1, 1, 1, 1, 1, 1, 1, 1, 1, 1, 1, 1, 1, 1, 1, 0]"	"[0, 0, 0, 0, 0, 0, 0, 0, 0, 0, 0, 0, 0, 0, 0, 0, 0, 0, 0, 0, 0, 0, 0, 0, 0, 0, 0]"	"[0, 0, 0, 0, 0, 0, 0, 0, 0, 0, 0, 0, 0, 0, 0, 0, 0, 0, 0, 0, 0, 0, 0, 0, 0, 0, 1]"	"[0.4338365000439808, 0.6005935999564826, 0.8421589999925345, 1.0588567999657243, 1.2506146000232548, 1.4505907000275329, 1.6505273999646306, 1.8339913999661803, 2.0173003000672907, 2.2088738000020385, 2.4172178000444546, 2.6089118999661878, 2.8005772000178695, 2.975449400022626, 3.158799899974838, 3.3755987000185996, 3.5754857000429183, 3.7757684000534937, 4.1922728000208735, 4.367435500025749, 4.567360699991696, 4.792384600033984, 5.100604100036435, 5.333972100052051, 5.6009937999770045, 5.81764570006635, 6.375853099976666]"	27	"[0.4259115000022575, 0.5926557000493631, 0.8342233001021668, 1.0509230000898242, 1.2426773000042886, 1.4426598000572994, 1.6425939000910148, 1.8260575000895187, 2.0093644000589848, 2.200935000088066, 2.4092767001129687, 2.600972800049931, 2.7926581000210717, 2.967510800110176, 3.150862400070764, 3.36766080011148, 3.5675487000262365, 3.767839000094682, 4.184332200093195, 4.359509800095111, 4.559420500067063, 4.7844450999982655, 5.0926650000037625, 5.326033000019379, 5.593060500104912, 5.809717900003307, 6.367851800052449]"	"[0.5088766000699252, 0.7088979000691324, 0.9422150000464171, 1.1508186000864953, 1.3256755000911653, 1.5006069000810385, 1.7006722000660375, 1.9173575000604615, 2.092308000079356, 2.3007192000513896, 2.475748300086707, 2.6840607000049204, 2.8757717000553384, 3.0007545000407845, 3.2507243000436574, 3.475722000002861, 3.6340699000284076, 3.8591300999978557, 4.26745920011308, 4.442516100010835, 4.61747560009826, 4.909155800007284, 5.159301800071262, 5.417530600097962, 5.667548900004476, 5.917660700040869, 6.3678559000836685]"	101.246989600011	101.252506099991	102.744464899995	102.752611399977	NA	NA	NA	NA	NA	NA	NA	24	"02"	"2024-02-15_13h15.09.984"	"BART_exp"	"2023.2.3"	119.957295268725	"2024-02-15 13h15.19.192646 +0100"	NA
"balloon.png"	71	0	7	7	16	102.752611399977	NA	NA	NA	NA	NA	NA	NA	NA	NA	NA	NA	NA	102.744641899946	102.752611399977	102.752611399977	102.752611399977	102.752611399977	102.752611399977	0.00568960001692175	0.00568960001692175	0.00568960001692175	102.752611399977	109.663191300002	26	1.3	FALSE	"[-0.018518518518518517, -0.018518518518518517, -0.018518518518518517, -0.018518518518518517, -0.018518518518518517, -0.018518518518518517, -0.018518518518518517, -0.018518518518518517, -0.018518518518518517, -0.018518518518518517, -0.018518518518518517, -0.018518518518518517, -0.018518518518518517, -0.018518518518518517, -0.018518518518518517, -0.018518518518518517, -0.018518518518518517, -0.018518518518518517, -0.018518518518518517, -0.018518518518518517, -0.018518518518518517, -0.018518518518518517, -0.018518518518518517, -0.018518518518518517, -0.018518518518518517, -0.018518518518518517, -0.018518518518518517]"	"[-0.4027777777777778, -0.4027777777777778, -0.4027777777777778, -0.4027777777777778, -0.4027777777777778, -0.4027777777777778, -0.4027777777777778, -0.4027777777777778, -0.4027777777777778, -0.4027777777777778, -0.4027777777777778, -0.4027777777777778, -0.4027777777777778, -0.4027777777777778, -0.4027777777777778, -0.4027777777777778, -0.4027777777777778, -0.4027777777777778, -0.4027777777777778, -0.4027777777777778, -0.4027777777777778, -0.4027777777777778, -0.4027777777777778, -0.4027777777777778, -0.4027777777777778, -0.4027777777777778, -0.4027777777777778]"	"[1, 1, 1, 1, 1, 1, 1, 1, 1, 1, 1, 1, 1, 1, 1, 1, 1, 1, 1, 1, 1, 1, 1, 1, 1, 1, 0]"	"[0, 0, 0, 0, 0, 0, 0, 0, 0, 0, 0, 0, 0, 0, 0, 0, 0, 0, 0, 0, 0, 0, 0, 0, 0, 0, 0]"	"[0, 0, 0, 0, 0, 0, 0, 0, 0, 0, 0, 0, 0, 0, 0, 0, 0, 0, 0, 0, 0, 0, 0, 0, 0, 0, 1]"	"[0.4836846999824047, 0.6506101000122726, 0.8503402000060305, 1.025396200013347, 1.2088652999373153, 1.408901699935086, 1.5839024999877438, 1.7839097999967635, 1.9839620999991894, 2.1755897999973968, 2.3673143999185413, 2.5758142999839038, 2.7339505000272766, 3.100488799973391, 3.3008357000071555, 3.5173421999206766, 3.7173466000240296, 3.9092060999246314, 4.125743099953979, 4.325743500026874, 4.534102099947631, 5.009125699987635, 5.217373999999836, 5.642340500024147, 6.067421199986711, 6.459103700006381, 6.917622199980542]"	27	"[0.48185510002076626, 0.6487863999791443, 0.8485075000207871, 1.0235565999755636, 1.2070275000296533, 1.4070585999870673, 1.582061899942346, 1.7820677999407053, 1.9821209999499843, 2.1737528999801725, 2.365475400001742, 2.5739735999377444, 2.732107299962081, 3.0986477999249473, 3.298993599950336, 3.515497799962759, 3.7155018999474123, 3.907384300022386, 4.123903000028804, 4.323903199983761, 4.532260600011796, 5.007290199981071, 5.215531599940732, 5.640502299997024, 6.065587699995376, 6.457264199969359, 6.915719599928707]"	"[0.5400808999547735, 0.731841899920255, 0.9316960999276489, 1.0985753999557346, 1.2900561999995261, 1.4650612999685109, 1.6567596999229863, 1.8569784000283107, 2.0484402999281883, 2.2401141999289393, 2.431949899997562, 2.61525899998378, 2.8068294000113383, 3.1653188000200316, 3.3902067999588326, 3.59024779999163, 3.798575200024061, 4.006909199990332, 4.198631800012663, 4.398581399931572, 4.631943800020963, 5.065316800028086, 5.315427099936642, 5.723703499999829, 6.157106200000271, 6.5570937999291345, 6.915723799960688]"	109.664207699941	109.669762199977	111.161804000032	111.178199399961	NA	NA	NA	NA	NA	NA	NA	24	"02"	"2024-02-15_13h15.09.984"	"BART_exp"	"2023.2.3"	119.957295268725	"2024-02-15 13h15.19.192646 +0100"	NA
"balloon.png"	123	0	8	8	28	111.178199399961	NA	NA	NA	NA	NA	NA	NA	NA	NA	NA	NA	NA	111.161992299953	111.178199399961	111.178199399961	111.178199399961	111.178199399961	111.178199399961	-0.00094170006923377	-0.00094170006923377	-0.00094170006923377	111.178199399961	115.938567399979	16	0.8	FALSE	"[-0.018518518518518517, -0.018518518518518517, -0.018518518518518517, -0.018518518518518517, -0.018518518518518517, -0.018518518518518517, -0.018518518518518517, -0.018518518518518517, -0.018518518518518517, -0.018518518518518517, -0.018518518518518517, -0.018518518518518517, -0.018518518518518517, -0.018518518518518517, -0.018518518518518517, -0.018518518518518517, -0.018518518518518517]"	"[-0.4027777777777778, -0.4027777777777778, -0.4027777777777778, -0.4027777777777778, -0.4027777777777778, -0.4027777777777778, -0.4027777777777778, -0.4027777777777778, -0.4027777777777778, -0.4027777777777778, -0.4027777777777778, -0.4027777777777778, -0.4027777777777778, -0.4027777777777778, -0.4027777777777778, -0.4027777777777778, -0.4027777777777778]"	"[1, 1, 1, 1, 1, 1, 1, 1, 1, 1, 1, 1, 1, 1, 1, 1, 0]"	"[0, 0, 0, 0, 0, 0, 0, 0, 0, 0, 0, 0, 0, 0, 0, 0, 0]"	"[0, 0, 0, 0, 0, 0, 0, 0, 0, 0, 0, 0, 0, 0, 0, 0, 1]"	"[0.5505140000022948, 0.733716499991715, 0.9254172999644652, 1.1170546999201179, 1.3087637999560684, 1.5087975999340415, 1.7171493999194354, 1.9018387999385595, 2.1172329999972135, 2.3171310999896377, 2.5088214999996126, 2.717167599941604, 2.9505624999292195, 3.1671934999758378, 3.367231599986553, 3.5837572999298573, 4.775632999953814]"	17	"[0.545881099998951, 0.7290836999891326, 0.9207796000409871, 1.1124164999928325, 1.3041316999588162, 1.5041584999999031, 1.7125133000081405, 1.897369600017555, 2.1125998999923468, 2.3124971999786794, 2.5041882999939844, 2.71253020002041, 2.9459253000095487, 3.162563499994576, 3.362597499974072, 3.5791201000101864, 4.770932000014]"	"[0.6455221000360325, 0.8287830000044778, 1.028772299992852, 1.2204325000056997, 1.4039323000470176, 1.5954928999999538, 1.7706025999505073, 2.0038166999584064, 2.1955251999897882, 2.3788894000463188, 2.5955799999646842, 2.7955798000330105, 2.995616600033827, 3.2374212000286207, 3.445593800046481, 3.628958799992688, 4.770936300046742]"	115.939478599932	115.945205900003	117.437185599934	117.453640799969	NA	NA	NA	NA	NA	NA	NA	24	"02"	"2024-02-15_13h15.09.984"	"BART_exp"	"2023.2.3"	119.957295268725	"2024-02-15 13h15.19.192646 +0100"	NA
"balloon.png"	18	0	9	9	4	117.453640799969	NA	NA	NA	NA	NA	NA	NA	NA	NA	NA	NA	NA	117.437365400023	117.453640799969	117.453640799969	117.453640799969	117.453640799969	117.453640799969	-0.00088389997836202	-0.00088389997836202	-0.00088389997836202	117.453640799969	121.580877100001	19	0.9	TRUE	"[-0.018518518518518517, -0.018518518518518517, -0.018518518518518517, -0.018518518518518517, -0.018518518518518517, -0.018518518518518517, -0.018518518518518517, -0.018518518518518517, -0.018518518518518517, -0.018518518518518517, -0.018518518518518517, -0.018518518518518517, -0.018518518518518517, -0.018518518518518517, -0.018518518518518517, -0.018518518518518517, -0.018518518518518517, -0.018518518518518517, -0.018518518518518517]"	"[-0.4027777777777778, -0.4027777777777778, -0.4027777777777778, -0.4027777777777778, -0.4027777777777778, -0.4027777777777778, -0.4027777777777778, -0.4027777777777778, -0.4027777777777778, -0.4027777777777778, -0.4027777777777778, -0.4027777777777778, -0.4027777777777778, -0.4027777777777778, -0.4027777777777778, -0.4027777777777778, -0.4027777777777778, -0.4027777777777778, -0.4027777777777778]"	"[1, 1, 1, 1, 1, 1, 1, 1, 1, 1, 1, 1, 1, 1, 1, 1, 1, 1, 1]"	"[0, 0, 0, 0, 0, 0, 0, 0, 0, 0, 0, 0, 0, 0, 0, 0, 0, 0, 0]"	"[0, 0, 0, 0, 0, 0, 0, 0, 0, 0, 0, 0, 0, 0, 0, 0, 0, 0, 0]"	"[0.5670170999364927, 0.7420189999975264, 0.9171026999829337, 1.100542000029236, 1.275522100040689, 1.4838752000359818, 1.6672228999668732, 1.8339387000305578, 2.0256253000115976, 2.217267800006084, 2.408992000040598, 2.583821599953808, 2.7839263000059873, 3.0090960999950767, 3.1588406999362633, 3.392324300017208, 3.625708300038241, 3.842395899933763, 4.050891499966383]"	19	"[0.5574656999669969, 0.7324583999579772, 0.9075499000027776, 1.0909964999882504, 1.2659561999607831, 1.474316900013946, 1.6576590000186116, 1.824375499971211, 2.016066799988039, 2.207703199936077, 2.3994319000048563, 2.574259700020775, 2.7743661999702454, 2.9995352999540046, 3.1492788000032306, 3.382762899971567, 3.6161449999781325, 3.832829699967988, 4.041326600010507]"	"[0.674016600009054, 0.8240820999490097, 1.015713099972345, 1.1823028000071645, 1.3573198999511078, 1.5573285999707878, 1.7573595000430942, 1.9406865999335423, 2.1076172000030056, 2.299041499965824, 2.4823803999461234, 2.649057299946435, 2.8824290999909863, 3.0574481999501586, 3.24082249996718, 3.4325556999538094, 3.707469300017692, 3.91591740003787, 4.124168499954976]"	121.581795400009	121.595605899929	123.087416799972	NA	NA	NA	NA	NA	NA	NA	NA	24	"02"	"2024-02-15_13h15.09.984"	"BART_exp"	"2023.2.3"	119.957295268725	"2024-02-15 13h15.19.192646 +0100"	NA
"balloon.png"	114	0	10	10	26	123.104038099991	NA	NA	NA	NA	NA	NA	NA	NA	NA	NA	NA	NA	123.087590400013	123.104038099991	123.104038099991	123.104038099991	123.104038099991	123.104038099991	0.0070986000355333	0.0070986000355333	0.0070986000355333	123.104038099991	127.24770139996	15	0.75	FALSE	"[-0.018518518518518517, -0.018518518518518517, -0.018518518518518517, -0.018518518518518517, -0.018518518518518517, -0.018518518518518517, -0.018518518518518517, -0.018518518518518517, -0.018518518518518517, -0.018518518518518517, -0.018518518518518517, -0.018518518518518517, -0.018518518518518517, -0.018518518518518517, -0.018518518518518517, -0.018518518518518517]"	"[-0.4027777777777778, -0.4027777777777778, -0.4027777777777778, -0.4027777777777778, -0.4027777777777778, -0.4027777777777778, -0.4027777777777778, -0.4027777777777778, -0.4027777777777778, -0.4027777777777778, -0.4027777777777778, -0.4027777777777778, -0.4027777777777778, -0.4027777777777778, -0.4027777777777778, -0.4027777777777778]"	"[1, 1, 1, 1, 1, 1, 1, 1, 1, 1, 1, 1, 1, 1, 1, 0]"	"[0, 0, 0, 0, 0, 0, 0, 0, 0, 0, 0, 0, 0, 0, 0, 0]"	"[0, 0, 0, 0, 0, 0, 0, 0, 0, 0, 0, 0, 0, 0, 0, 1]"	"[0.650652699987404, 0.8672760999761522, 1.0838935000356287, 1.3088771000038832, 1.5006772000342607, 1.6922404000069946, 1.892270499956794, 2.092294599977322, 2.292418299941346, 2.4756168000167236, 2.700708099990152, 2.933965799980797, 3.1343789999373257, 3.325948499958031, 3.535569699946791, 4.159222799935378]"	16	"[0.6412959999870509, 0.8579236000077799, 1.0745345000177622, 1.2995172999799252, 1.4913198000285774, 1.6828877000370994, 1.8829179999884218, 2.0829408999998122, 2.2830650000832975, 2.466260000015609, 2.6913506999844685, 2.916364000062458, 3.125023000058718, 3.316591100068763, 3.5263815000653267, 4.149799800012261]"	"[0.7493095999816433, 0.949457100010477, 1.1660193999996409, 1.382781199994497, 1.5744212999707088, 1.766097899992019, 1.9660595000023022, 2.1495419000275433, 2.334208899992518, 2.566178100067191, 2.774463600013405, 2.999509699991904, 3.1995117000769824, 3.391161400009878, 3.5995180000318214, 4.14980390004348]"	127.248572299955	127.254330000025	128.746323199943	128.762769700028	NA	NA	NA	NA	NA	NA	NA	24	"02"	"2024-02-15_13h15.09.984"	"BART_exp"	"2023.2.3"	119.957295268725	"2024-02-15 13h15.19.192646 +0100"	NA
"balloon.png"	66	0	11	11	15	128.762769700028	NA	NA	NA	NA	NA	NA	NA	NA	NA	NA	NA	NA	128.746503500035	128.762769700028	128.762769700028	128.762769700028	128.762769700028	128.762769700028	-0.00079270009882748	-0.00079270009882748	-0.00079270009882748	128.762769700028	133.2064274	19	0.95	FALSE	"[-0.018518518518518517, -0.018518518518518517, -0.018518518518518517, -0.018518518518518517, -0.018518518518518517, -0.018518518518518517, -0.018518518518518517, -0.018518518518518517, -0.018518518518518517, -0.018518518518518517, -0.018518518518518517, -0.018518518518518517, -0.018518518518518517, -0.018518518518518517, -0.018518518518518517, -0.018518518518518517, -0.018518518518518517, -0.018518518518518517, -0.018518518518518517, -0.018518518518518517]"	"[-0.4027777777777778, -0.4027777777777778, -0.4027777777777778, -0.4027777777777778, -0.4027777777777778, -0.4027777777777778, -0.4027777777777778, -0.4027777777777778, -0.4027777777777778, -0.4027777777777778, -0.4027777777777778, -0.4027777777777778, -0.4027777777777778, -0.4027777777777778, -0.4027777777777778, -0.4027777777777778, -0.4027777777777778, -0.4027777777777778, -0.4027777777777778, -0.4027777777777778]"	"[1, 1, 1, 1, 1, 1, 1, 1, 1, 1, 1, 1, 1, 1, 1, 1, 1, 1, 1, 0]"	"[0, 0, 0, 0, 0, 0, 0, 0, 0, 0, 0, 0, 0, 0, 0, 0, 0, 0, 0, 0]"	"[0, 0, 0, 0, 0, 0, 0, 0, 0, 0, 0, 0, 0, 0, 0, 0, 0, 0, 0, 1]"	"[0.40025389997754246, 0.5670046999584883, 0.7753012999892235, 0.9504697999218479, 1.1171303999144584, 1.3004785999655724, 1.4838936999440193, 1.6755286999978125, 1.8588377999840304, 2.0590954999206588, 2.259072099928744, 2.4506627999944612, 2.6506670999806374, 2.833761699963361, 3.0338610999751836, 3.2421068999683484, 3.4840166999492794, 3.692310499958694, 3.9090037998976186, 4.458998299902305]"	20	"[0.3900846999604255, 0.5568352000555024, 0.7651397000299767, 0.9403052000561729, 1.1069707999704406, 1.2903092000633478, 1.4737267000600696, 1.6653591999784112, 1.8486687999684364, 2.0489266000222415, 2.248911999980919, 2.4405077999690548, 2.6405032000038773, 2.8235908000497147, 3.023695499985479, 3.2319390999618918, 3.4738488000584766, 3.6821484999964014, 3.8988394000334665, 4.448769600014202]"	"[0.4817005000077188, 0.6483453999971971, 0.839982399949804, 1.0151171999750659, 1.1901044000405818, 1.3899993000086397, 1.5483973999507725, 1.7317898999899626, 1.9234122999478132, 2.123378499993123, 2.331803899956867, 2.523428100044839, 2.6985116000287235, 2.898434599977918, 3.09848799998872, 3.340200399979949, 3.5568317000288516, 3.7568359000142664, 3.990416800021194, 4.448773900046945]"	133.20748620003	133.213107899996	134.70503479999	134.713226199965	NA	NA	NA	NA	NA	NA	NA	24	"02"	"2024-02-15_13h15.09.984"	"BART_exp"	"2023.2.3"	119.957295268725	"2024-02-15 13h15.19.192646 +0100"	NA
"balloon.png"	88	0	12	12	20	134.713226199965	NA	NA	NA	NA	NA	NA	NA	NA	NA	NA	NA	NA	134.70521689998	134.713226199965	134.713226199965	134.713226199965	134.713226199965	134.713226199965	0.00580229994375258	0.00580229994375258	0.00580229994375258	134.713226199965	140.540165800019	22	1.1	FALSE	"[-0.018518518518518517, -0.018518518518518517, -0.018518518518518517, -0.018518518518518517, -0.018518518518518517, -0.018518518518518517, -0.018518518518518517, -0.018518518518518517, -0.017592592592592594, -0.017592592592592594, -0.017592592592592594, -0.017592592592592594, -0.017592592592592594, -0.017592592592592594, -0.017592592592592594, -0.017592592592592594, -0.017592592592592594, -0.017592592592592594, -0.017592592592592594, -0.017592592592592594, -0.017592592592592594, -0.017592592592592594, -0.017592592592592594]"	"[-0.40185185185185185, -0.40185185185185185, -0.40185185185185185, -0.40185185185185185, -0.40185185185185185, -0.40185185185185185, -0.40185185185185185, -0.40185185185185185, -0.40185185185185185, -0.40185185185185185, -0.40185185185185185, -0.40185185185185185, -0.40185185185185185, -0.40185185185185185, -0.40185185185185185, -0.40185185185185185, -0.40185185185185185, -0.40185185185185185, -0.40185185185185185, -0.40185185185185185, -0.40185185185185185, -0.40185185185185185, -0.40185185185185185]"	"[1, 1, 1, 1, 1, 1, 1, 1, 1, 1, 1, 1, 1, 1, 1, 1, 1, 1, 1, 1, 1, 1, 0]"	"[0, 0, 0, 0, 0, 0, 0, 0, 0, 0, 0, 0, 0, 0, 0, 0, 0, 0, 0, 0, 0, 0, 0]"	"[0, 0, 0, 0, 0, 0, 0, 0, 0, 0, 0, 0, 0, 0, 0, 0, 0, 0, 0, 0, 0, 0, 1]"	"[0.3422203999944031, 0.5172595999902114, 0.7004965000087395, 0.9004973000846803, 1.0921615000115708, 1.2756047000875697, 1.458795899990946, 1.6420839000493288, 1.825418599997647, 1.9839203000301495, 2.184144400060177, 2.3923104000277817, 2.61717540002428, 2.775641500018537, 2.975662700016983, 3.4088521000230685, 3.5839173001004383, 3.9758647000417113, 4.15081890008878, 4.534326100023463, 4.759163300041109, 5.1008238000795245, 5.834042900009081]"	23	"[0.34036719996947795, 0.5154079999774694, 0.6986413999693468, 0.8986410999204963, 1.0903098999988288, 1.273755899979733, 1.456943599972874, 1.6402298999018967, 1.8235657999757677, 1.9820683998987079, 2.1822900999104604, 2.3904557999921963, 2.615319599979557, 2.773785899975337, 2.9738255999982357, 3.406997699989006, 3.5820760999340564, 3.9740216999780387, 4.148963599931449, 4.532490599900484, 4.757311599911191, 5.0989695999305695, 5.832130700000562]"	"[0.43166829994879663, 0.6316657999996096, 0.8066803999245167, 0.9902581999776885, 1.1817379998974502, 1.3484113999875262, 1.5317577999085188, 1.7150715999305248, 1.8817457999102771, 2.081761999987066, 2.2734355999855325, 2.4901448999298736, 2.6734923999756575, 2.873500999994576, 3.073533699964173, 3.465174699900672, 3.6819376999046654, 4.057138599921018, 4.240471899975091, 4.615307200001553, 4.873670400003903, 5.215317599941045, 5.83213509991765]"	140.541501699947	140.546949599986	142.038903499953	142.047063500038	NA	NA	NA	NA	NA	NA	NA	24	"02"	"2024-02-15_13h15.09.984"	"BART_exp"	"2023.2.3"	119.957295268725	"2024-02-15 13h15.19.192646 +0100"	NA
"balloon.png"	127	0	13	13	29	142.047063500038	NA	NA	NA	NA	NA	NA	NA	NA	NA	NA	NA	NA	142.039087299956	142.047063500038	142.047063500038	142.047063500038	142.047063500038	142.047063500038	0.00562499999068677	0.00562499999068677	0.00562499999068677	142.047063500038	149.507477000006	26	1.3	FALSE	"[-0.018518518518518517, -0.018518518518518517, -0.018518518518518517, -0.018518518518518517, -0.018518518518518517, -0.018518518518518517, -0.018518518518518517, -0.018518518518518517, -0.018518518518518517, -0.018518518518518517, -0.018518518518518517, -0.018518518518518517, -0.018518518518518517, -0.018518518518518517, -0.018518518518518517, -0.018518518518518517, -0.018518518518518517, -0.018518518518518517, -0.018518518518518517, -0.018518518518518517, -0.018518518518518517, -0.018518518518518517, -0.018518518518518517, -0.018518518518518517, -0.018518518518518517, -0.018518518518518517, -0.018518518518518517]"	"[-0.3990740740740741, -0.3990740740740741, -0.3990740740740741, -0.3990740740740741, -0.3990740740740741, -0.3990740740740741, -0.3990740740740741, -0.3990740740740741, -0.3990740740740741, -0.3990740740740741, -0.3990740740740741, -0.3990740740740741, -0.3990740740740741, -0.3990740740740741, -0.3990740740740741, -0.3990740740740741, -0.3990740740740741, -0.3990740740740741, -0.3990740740740741, -0.3990740740740741, -0.3990740740740741, -0.3990740740740741, -0.3990740740740741, -0.3990740740740741, -0.3990740740740741, -0.3990740740740741, -0.3990740740740741]"	"[1, 1, 1, 1, 1, 1, 1, 1, 1, 1, 1, 1, 1, 1, 1, 1, 1, 1, 1, 1, 1, 1, 1, 1, 1, 1, 0]"	"[0, 0, 0, 0, 0, 0, 0, 0, 0, 0, 0, 0, 0, 0, 0, 0, 0, 0, 0, 0, 0, 0, 0, 0, 0, 0, 0]"	"[0, 0, 0, 0, 0, 0, 0, 0, 0, 0, 0, 0, 0, 0, 0, 0, 0, 0, 0, 0, 0, 0, 0, 0, 0, 0, 1]"	"[0.6421737000346184, 0.8255528999725357, 1.03384080005344, 1.2255139000480995, 1.425640600034967, 1.6339250999735668, 1.8422041999874637, 2.0672269000206143, 2.275434600072913, 2.500431500026025, 2.6921468999935314, 2.900457000010647, 3.1088357000844553, 3.3338243999751285, 3.542190600070171, 3.7423274000175297, 3.9841367000481114, 4.533917500055395, 4.717300400021486, 4.925629100063816, 5.125664400053211, 5.550836400012486, 5.784218600019813, 6.184212399995886, 6.525709600071423, 7.075904899975285, 7.4674582000589]"	27	"[0.6403055998962373, 0.8236835999414325, 1.031972499913536, 1.223649299936369, 1.4237767999293283, 1.6320622999919578, 1.8403366999700665, 2.0653574999887496, 2.27356499992311, 2.498563200002536, 2.6902784999692813, 2.8985871999757364, 3.10697490000166, 3.3237112999195233, 3.5403245999477804, 3.7404641999164596, 3.982271699933335, 4.532053099945188, 4.715432099997997, 4.923762699938379, 5.123796599917114, 5.548967899987474, 5.78235210001003, 6.182345899986103, 6.523844599956647, 7.074039199971594, 7.465527799911797]"	"[0.723368400009349, 0.9151655999012291, 1.114978399942629, 1.315082099987194, 1.506667299894616, 1.7233788999728858, 1.9400421999162063, 2.140274600009434, 2.3567401999607682, 2.556752400007099, 2.7650924999034032, 2.9817907999968156, 3.1984698999440297, 3.3985361999366432, 3.5901913999114186, 3.7986212999094278, 4.081851699971594, 4.606888599926606, 4.790231199935079, 4.990247499896213, 5.207133899908513, 5.656991199939512, 5.8569698999635875, 6.282021899940446, 6.6153632999630645, 7.165437099989504, 7.465532199945301]"	149.508593200007	149.514234700007	151.00618539995	151.022709399927	NA	NA	NA	NA	NA	NA	NA	24	"02"	"2024-02-15_13h15.09.984"	"BART_exp"	"2023.2.3"	119.957295268725	"2024-02-15 13h15.19.192646 +0100"	NA
"balloon.png"	10	0	14	14	2	151.022709399927	NA	NA	NA	NA	NA	NA	NA	NA	NA	NA	NA	NA	151.006362600019	151.022709399927	151.022709399927	151.022709399927	151.022709399927	151.022709399927	-0.00097389996517449	-0.00097389996517449	-0.00097389996517449	151.022709399927	153.366516000009	11	0.5	TRUE	"[-0.018518518518518517, -0.018518518518518517, -0.018518518518518517, -0.018518518518518517, -0.018518518518518517, -0.018518518518518517, -0.018518518518518517, -0.018518518518518517, -0.018518518518518517, -0.018518518518518517, -0.018518518518518517]"	"[-0.3962962962962963, -0.3962962962962963, -0.3962962962962963, -0.3962962962962963, -0.3962962962962963, -0.3962962962962963, -0.3962962962962963, -0.3962962962962963, -0.3962962962962963, -0.3962962962962963, -0.3962962962962963]"	"[1, 1, 1, 1, 1, 1, 1, 1, 1, 1, 1]"	"[0, 0, 0, 0, 0, 0, 0, 0, 0, 0, 0]"	"[0, 0, 0, 0, 0, 0, 0, 0, 0, 0, 0]"	"[0.4255020000273362, 0.5923098999774083, 0.7839019000530243, 0.9755769999464974, 1.1670661000534892, 1.3337025999790058, 1.525431500049308, 1.7087696000235155, 1.9087492999387905, 2.1004196000285447, 2.292127100052312]"	11	"[0.4150857999920845, 0.5819060000358149, 0.7734888000413775, 0.9651590000139549, 1.1566532000433654, 1.3232864000601694, 1.515017000027001, 1.6983551000012085, 1.8983332000207156, 2.0900025999872014, 2.2817070999881253]"	"[0.48144630005117506, 0.6897960000205785, 0.881437600008212, 1.0567111000418663, 1.248170700040646, 1.4232208000030369, 1.6149384999880567, 1.8066407999722287, 1.9815198000287637, 2.157965600024909, 2.3398937999736518]"	153.367233099998	153.372831100016	154.864824399934	154.889603400021	NA	NA	NA	NA	NA	NA	NA	24	"02"	"2024-02-15_13h15.09.984"	"BART_exp"	"2023.2.3"	119.957295268725	"2024-02-15 13h15.19.192646 +0100"	NA
"balloon.png"	101	0	15	15	23	154.889603400021	NA	NA	NA	NA	NA	NA	NA	NA	NA	NA	NA	NA	154.8650012	154.889603400021	154.889603400021	154.889603400021	154.889603400021	154.889603400021	-0.00092809996567666	-0.00092809996567666	-0.00092809996567666	154.889603400021	163.350326200016	28	1.4	FALSE	"[-0.024074074074074074, -0.024074074074074074, -0.024074074074074074, -0.024074074074074074, -0.024074074074074074, -0.024074074074074074, -0.024074074074074074, -0.024074074074074074, -0.024074074074074074, -0.024074074074074074, -0.024074074074074074, -0.024074074074074074, -0.024074074074074074, -0.024074074074074074, -0.024074074074074074, -0.024074074074074074, -0.024074074074074074, -0.024074074074074074, -0.024074074074074074, -0.024074074074074074, -0.024074074074074074, -0.024074074074074074, -0.024074074074074074, -0.024074074074074074, -0.024074074074074074, -0.024074074074074074, -0.024074074074074074, -0.024074074074074074, -0.024074074074074074]"	"[-0.39351851851851855, -0.39351851851851855, -0.39351851851851855, -0.39351851851851855, -0.39351851851851855, -0.39351851851851855, -0.39351851851851855, -0.39351851851851855, -0.39351851851851855, -0.39351851851851855, -0.39351851851851855, -0.39351851851851855, -0.39351851851851855, -0.39351851851851855, -0.39351851851851855, -0.39351851851851855, -0.39351851851851855, -0.39351851851851855, -0.39351851851851855, -0.39351851851851855, -0.39351851851851855, -0.39351851851851855, -0.39351851851851855, -0.39351851851851855, -0.39351851851851855, -0.39351851851851855, -0.39351851851851855, -0.39351851851851855, -0.39351851851851855]"	"[1, 1, 1, 1, 1, 1, 1, 1, 1, 1, 1, 1, 1, 1, 1, 1, 1, 1, 1, 1, 1, 1, 1, 1, 1, 1, 1, 1, 0]"	"[0, 0, 0, 0, 0, 0, 0, 0, 0, 0, 0, 0, 0, 0, 0, 0, 0, 0, 0, 0, 0, 0, 0, 0, 0, 0, 0, 0, 0]"	"[0, 0, 0, 0, 0, 0, 0, 0, 0, 0, 0, 0, 0, 0, 0, 0, 0, 0, 0, 0, 0, 0, 0, 0, 0, 0, 0, 0, 1]"	"[0.5505167000228539, 0.7255463000619784, 0.9338114999700338, 1.1505947000114247, 1.3338480000384152, 1.5338598999660462, 1.7255751000484452, 1.9255622000200674, 2.2837421000003815, 2.6671711000381038, 2.8587794000050053, 3.050447699963115, 3.2255153000587597, 3.4340158000122756, 3.608872100012377, 3.784013899974525, 3.9923624000512064, 4.1673848000355065, 4.392368900007568, 4.575771900010295, 4.7674574999837205, 5.033927800017409, 5.242303299950436, 5.442286400008015, 6.225780999986455, 6.900872900034301, 7.417620899970643, 7.900932100019418, 8.484395500039682]"	29	"[0.5388992999214679, 0.7139272999484092, 0.9221972998930141, 1.1389791999245062, 1.322228799923323, 1.5222462998935953, 1.7139582999516279, 1.9139382999856025, 2.27212569990661, 2.655551299918443, 2.8471590999979526, 3.0388311999849975, 3.2138984999619424, 3.422398699913174, 3.597252899897285, 3.772392899962142, 3.980748499976471, 4.1557624998968095, 4.380753599922173, 4.564155199914239, 4.755841000005603, 5.022307999897748, 5.230683699948713, 5.430667299893685, 6.214160099974833, 6.889254699926823, 7.406001099967398, 7.88930939999409, 8.472716699936427]"	"[0.5969275999814272, 0.7970576999941841, 0.9802195999072865, 1.1969158999854699, 1.388742999988608, 1.596990599995479, 1.7886814998928457, 1.9719553999602795, 2.3386569999856874, 2.730324300006032, 2.913683299906552, 3.080388500005938, 3.2970754998968914, 3.4720756999449804, 3.67221669992432, 3.847096599987708, 4.038803799892776, 4.263788999989629, 4.463843699893914, 4.647130899946205, 4.8471988999517635, 5.1138866998953745, 5.305532399914227, 5.522205199929886, 6.297317099990323, 7.0140069999033585, 7.489191500004381, 8.005695799947716, 8.472720899968408]"	163.351646599942	163.365202400018	164.857003199984	NA	NA	NA	NA	NA	NA	NA	NA	24	"02"	"2024-02-15_13h15.09.984"	"BART_exp"	"2023.2.3"	119.957295268725	"2024-02-15 13h15.19.192646 +0100"	NA
"balloon.png"	49	0	16	16	11	164.873641600017	NA	NA	NA	NA	NA	NA	NA	NA	NA	NA	NA	NA	164.857178600039	164.873641600017	164.873641600017	164.873641600017	164.873641600017	164.873641600017	0.00679040001705288	0.00679040001705288	0.00679040001705288	164.873641600017	171.867517099949	26	1.3	FALSE	"[0.006481481481481481, 0.006481481481481481, 0.006481481481481481, 0.006481481481481481, 0.006481481481481481, 0.006481481481481481, 0.006481481481481481, 0.006481481481481481, 0.006481481481481481, 0.006481481481481481, 0.006481481481481481, 0.006481481481481481, 0.006481481481481481, 0.006481481481481481, 0.006481481481481481, 0.006481481481481481, 0.006481481481481481, 0.006481481481481481, 0.006481481481481481, 0.006481481481481481, 0.006481481481481481, 0.006481481481481481, 0.006481481481481481, 0.006481481481481481, 0.006481481481481481, 0.006481481481481481, 0.006481481481481481]"	"[-0.3787037037037037, -0.3787037037037037, -0.3787037037037037, -0.3787037037037037, -0.3787037037037037, -0.3787037037037037, -0.3787037037037037, -0.3787037037037037, -0.3787037037037037, -0.3787037037037037, -0.3787037037037037, -0.3787037037037037, -0.3787037037037037, -0.3787037037037037, -0.3787037037037037, -0.3787037037037037, -0.3787037037037037, -0.3787037037037037, -0.3787037037037037, -0.3787037037037037, -0.3787037037037037, -0.3787037037037037, -0.3787037037037037, -0.3787037037037037, -0.3787037037037037, -0.3787037037037037, -0.3787037037037037]"	"[1, 1, 1, 1, 1, 1, 1, 1, 1, 1, 1, 1, 1, 1, 1, 1, 1, 1, 1, 1, 1, 1, 1, 1, 1, 1, 0]"	"[0, 0, 0, 0, 0, 0, 0, 0, 0, 0, 0, 0, 0, 0, 0, 0, 0, 0, 0, 0, 0, 0, 0, 0, 0, 0, 0]"	"[0, 0, 0, 0, 0, 0, 0, 0, 0, 0, 0, 0, 0, 0, 0, 0, 0, 0, 0, 0, 0, 0, 0, 0, 0, 0, 1]"	"[0.8590540000004694, 1.0089236999629065, 1.2007343999575824, 1.3757473999867216, 1.5424049999564886, 1.7007323999423534, 1.8757307999767363, 2.0589511999860406, 2.2340202999766916, 2.4008063999935985, 2.5758059000363573, 2.8008397000376135, 3.0924816000042483, 3.275696699973196, 3.4590818999568, 3.6523160999640822, 3.9759412000421435, 4.18432290002238, 4.525947000016458, 4.734299600007944, 5.025813900050707, 5.326057399972342, 5.54271599999629, 5.884406500030309, 6.084401899948716, 6.326092400006019, 7.009446099982597]"	27	"[0.8497354999417439, 0.9996073000365868, 1.1914185000350699, 1.3664320999523625, 1.5330908000469208, 1.6914155000122264, 1.8664102000184357, 2.049628200009465, 2.2247089999727905, 2.3914875000482425, 2.5664845999563113, 2.7915246000047773, 3.0831629999447614, 3.2663755000103265, 3.449772599968128, 3.643174299970269, 3.966628700029105, 4.175010000006296, 4.516630499972962, 4.724982799962163, 5.016496500000358, 5.316742199938744, 5.533396200044081, 5.875084799947217, 6.075082199997269, 6.316782400012016, 7.000062100007199]"	"[0.9162616999819875, 1.1077640999574214, 1.2828580000204965, 1.4744437000481412, 1.607795299962163, 1.7994643000420183, 1.9578000999754295, 2.1245955999474972, 2.2994923000223935, 2.4828323000110686, 2.6745466999709606, 2.8496785999741405, 3.1578856999985874, 3.332943100016564, 3.5163012000266463, 3.7080574999563396, 4.049608199973591, 4.258035199949518, 4.608105499995872, 4.808041500044055, 5.133009299985133, 5.4080449000466615, 5.608086199965328, 5.9497612999984995, 6.149766999995336, 6.383199900039472, 7.0000665000407025]"	171.86869579996	171.874135599937	173.36612339993	173.374278499978	NA	NA	NA	NA	NA	NA	NA	24	"02"	"2024-02-15_13h15.09.984"	"BART_exp"	"2023.2.3"	119.957295268725	"2024-02-15 13h15.19.192646 +0100"	NA
"balloon.png"	36	0	17	17	8	173.374278499978	NA	NA	NA	NA	NA	NA	NA	NA	NA	NA	NA	NA	173.366302900016	173.374278499978	173.374278499978	173.374278499978	173.374278499978	173.374278499978	0.00564549991395324	0.00564549991395324	0.00564549991395324	173.374278499978	176.542830299935	12	0.6	FALSE	"[0.008333333333333333, 0.008333333333333333, 0.008333333333333333, 0.008333333333333333, 0.008333333333333333, 0.008333333333333333, 0.008333333333333333, 0.008333333333333333, 0.008333333333333333, 0.008333333333333333, 0.008333333333333333, 0.008333333333333333, 0.008333333333333333]"	"[-0.362962962962963, -0.362962962962963, -0.362962962962963, -0.362962962962963, -0.362962962962963, -0.362962962962963, -0.362962962962963, -0.362962962962963, -0.362962962962963, -0.362962962962963, -0.362962962962963, -0.362962962962963, -0.362962962962963]"	"[1, 1, 1, 1, 1, 1, 1, 1, 1, 1, 1, 1, 0]"	"[0, 0, 0, 0, 0, 0, 0, 0, 0, 0, 0, 0, 0]"	"[0, 0, 0, 0, 0, 0, 0, 0, 0, 0, 0, 0, 1]"	"[0.5754195000045002, 0.7348429999547079, 0.9336398999439552, 1.1419851999962702, 1.3170089999912307, 1.5088404000271112, 1.6838816999224946, 1.8671967999543995, 2.058916899957694, 2.3838807999854907, 2.558880200027488, 2.7171046999283135, 3.175593600026332]"	13	"[0.5735496999695897, 0.7329727000324056, 0.931773400050588, 1.1401264000451192, 1.3151394999586046, 1.5069765000371262, 1.68201400001999, 1.8653368999948725, 2.057047500042245, 2.3820143999764696, 2.5570139000192285, 2.7152401000494137, 3.173663299996406]"	"[0.6649275000672787, 0.8400338999927044, 1.031665900023654, 1.214968999964185, 1.398528299992904, 1.5733425000216812, 1.7817972999764606, 1.956729399971664, 2.115059499978088, 2.4817713999655098, 2.6567518999800086, 2.798415799974464, 3.1736675000283867]"	176.543647399987	176.54946010001	178.041415299987	178.057899700012	NA	NA	NA	NA	NA	NA	NA	24	"02"	"2024-02-15_13h15.09.984"	"BART_exp"	"2023.2.3"	119.957295268725	"2024-02-15 13h15.19.192646 +0100"	NA
"balloon.png"	1	0	18	18	0	178.057899700012	NA	NA	NA	NA	NA	NA	NA	NA	NA	NA	NA	NA	178.041601800011	178.057899700012	178.057899700012	178.057899700012	178.057899700012	178.057899700012	-0.00081300002057105	-0.00081300002057105	-0.00081300002057105	178.057899700012	178.951613500016	2	0.05	TRUE	"[0.008333333333333333, 0.008333333333333333]"	"[-0.362962962962963, -0.362962962962963]"	"[1, 1]"	"[0, 0]"	"[0, 0]"	"[0.6420602999860421, 0.8004325999645516]"	2	"[0.636904799961485, 0.7952753000427037]"	"[0.7117429999634624, 0.895043299999088]"	178.952201899956	178.957965399954	180.450000999961	180.466405399959	NA	NA	NA	NA	NA	NA	NA	24	"02"	"2024-02-15_13h15.09.984"	"BART_exp"	"2023.2.3"	119.957295268725	"2024-02-15 13h15.19.192646 +0100"	NA
"balloon.png"	40	0	19	19	9	180.466405399959	NA	NA	NA	NA	NA	NA	NA	NA	NA	NA	NA	NA	180.450191800017	180.466405399959	180.466405399959	180.466405399959	180.466405399959	180.466405399959	-0.00067789992317557	-0.00067789992317557	-0.00067789992317557	180.466405399959	192.66050629993	36	1.8	FALSE	"[0.008333333333333333, 0.008333333333333333, 0.008333333333333333, 0.008333333333333333, 0.008333333333333333, 0.008333333333333333, 0.008333333333333333, 0.008333333333333333, 0.008333333333333333, 0.008333333333333333, 0.008333333333333333, 0.008333333333333333, 0.008333333333333333, 0.008333333333333333, 0.008333333333333333, 0.008333333333333333, 0.008333333333333333, 0.008333333333333333, 0.008333333333333333, 0.008333333333333333, 0.008333333333333333, 0.008333333333333333, 0.008333333333333333, 0.008333333333333333, 0.008333333333333333, 0.008333333333333333, 0.008333333333333333, 0.008333333333333333, 0.008333333333333333, 0.008333333333333333, 0.008333333333333333, 0.008333333333333333, 0.008333333333333333, 0.008333333333333333, 0.008333333333333333, 0.008333333333333333, 0.008333333333333333]"	"[-0.362962962962963, -0.362962962962963, -0.362962962962963, -0.362962962962963, -0.362962962962963, -0.362962962962963, -0.362962962962963, -0.362962962962963, -0.362962962962963, -0.362962962962963, -0.362962962962963, -0.362962962962963, -0.362962962962963, -0.362962962962963, -0.362962962962963, -0.362962962962963, -0.362962962962963, -0.362962962962963, -0.362962962962963, -0.362962962962963, -0.362962962962963, -0.362962962962963, -0.362962962962963, -0.362962962962963, -0.362962962962963, -0.362962962962963, -0.362962962962963, -0.362962962962963, -0.362962962962963, -0.362962962962963, -0.362962962962963, -0.362962962962963, -0.362962962962963, -0.362962962962963, -0.362962962962963, -0.362962962962963, -0.362962962962963]"	"[1, 1, 1, 1, 1, 1, 1, 1, 1, 1, 1, 1, 1, 1, 1, 1, 1, 1, 1, 1, 1, 1, 1, 1, 1, 1, 1, 1, 1, 1, 1, 1, 1, 1, 1, 1, 0]"	"[0, 0, 0, 0, 0, 0, 0, 0, 0, 0, 0, 0, 0, 0, 0, 0, 0, 0, 0, 0, 0, 0, 0, 0, 0, 0, 0, 0, 0, 0, 0, 0, 0, 0, 0, 0, 0]"	"[0, 0, 0, 0, 0, 0, 0, 0, 0, 0, 0, 0, 0, 0, 0, 0, 0, 0, 0, 0, 0, 0, 0, 0, 0, 0, 0, 0, 0, 0, 0, 0, 0, 0, 0, 0, 1]"	"[0.6171046999515966, 0.8251975999446586, 1.0171138000441715, 1.2085708000231534, 1.4002722000004724, 1.6002404999453574, 1.816964800003916, 2.016934199957177, 2.2003312000306323, 2.3920125999720767, 2.600467799929902, 2.833662800025195, 3.067153500043787, 3.2586959999753162, 3.709019999951124, 3.9089143000310287, 4.09224779997021, 4.292242299998179, 4.6922913999296725, 4.859007499995641, 5.067342299968004, 5.484036999987438, 5.700710100005381, 5.925742199993692, 6.1507659000344574, 6.69243940000888, 6.875815400038846, 7.2841532999882475, 7.5593266999349, 7.94252789998427, 8.542572399950586, 8.992439699941315, 9.542627100017853, 10.375955199939199, 11.050908599980175, 11.47622810001485, 12.209359399974346]"	37	"[0.6103551000123844, 0.8184462999925017, 1.0103622999740764, 1.201818999950774, 1.393523099948652, 1.5934861999703571, 1.8102149999467656, 2.010235199937597, 2.193582299980335, 2.385264499927871, 2.593715799972415, 2.8269154999870807, 3.060401299968362, 3.2519445000216365, 3.702269700006582, 3.9021622999571264, 4.0855091999983415, 4.285495099960826, 4.6855384999653324, 4.852256399928592, 5.060595299932174, 5.477285200031474, 5.693964499980211, 5.918990400037728, 6.144028199953027, 6.6856958999997005, 6.869066099985503, 7.2774002000223845, 7.552576899994165, 7.935776300029829, 8.535823700018227, 8.985691800015047, 9.535873899934813, 10.369203199981712, 11.044160699937493, 11.469481399981305, 12.202543999999762]"	"[0.7434123000130057, 0.9017107000108808, 1.1016411000164226, 1.2850244999863207, 1.4850020000012591, 1.6850355999777094, 1.8935599999967963, 2.1183731999481097, 2.3017595999408513, 2.493557499954477, 2.6852328999666497, 2.9601339999353513, 3.1518000999931246, 3.3352303999708965, 3.768542299978435, 3.960186699987389, 4.15187750000041, 4.3602437999797985, 4.760230500018224, 4.951910699950531, 5.127006300026551, 5.535605899989605, 5.75195409997832, 5.993697099969722, 6.226999699953012, 6.778445899952203, 6.960398499970324, 7.377128400024958, 7.61895849998109, 8.018845599959604, 8.618910799967125, 9.102245699963532, 9.618902800022624, 10.4524223000044, 11.160691499942914, 11.585710100014694, 12.202548200031742]"	192.661851999932	192.667265899945	194.15932690003	194.167365800007	NA	NA	NA	NA	NA	NA	NA	24	"02"	"2024-02-15_13h15.09.984"	"BART_exp"	"2023.2.3"	119.957295268725	"2024-02-15 13h15.19.192646 +0100"	NA
"balloon.png"	27	0	20	20	6	194.167365800007	NA	NA	NA	NA	NA	NA	NA	NA	NA	NA	NA	NA	194.159513999941	194.167365800007	194.167365800007	194.167365800007	194.167365800007	194.167365800007	0.00558130000717937	0.00558130000717937	0.00558130000717937	194.167365800007	199.361102399998	22	1.1	FALSE	"[0.017592592592592594, 0.017592592592592594, 0.017592592592592594, 0.017592592592592594, 0.017592592592592594, 0.017592592592592594, 0.017592592592592594, 0.017592592592592594, 0.017592592592592594, 0.017592592592592594, 0.017592592592592594, 0.017592592592592594, 0.017592592592592594, 0.017592592592592594, 0.017592592592592594, 0.017592592592592594, 0.017592592592592594, 0.017592592592592594, 0.017592592592592594, 0.017592592592592594, 0.017592592592592594, 0.017592592592592594, 0.017592592592592594]"	"[-0.36666666666666664, -0.36666666666666664, -0.36666666666666664, -0.36666666666666664, -0.36666666666666664, -0.36666666666666664, -0.36666666666666664, -0.36666666666666664, -0.36666666666666664, -0.36666666666666664, -0.36666666666666664, -0.36666666666666664, -0.36666666666666664, -0.36666666666666664, -0.36666666666666664, -0.36666666666666664, -0.36666666666666664, -0.36666666666666664, -0.36666666666666664, -0.36666666666666664, -0.36666666666666664, -0.36666666666666664, -0.36666666666666664]"	"[1, 1, 1, 1, 1, 1, 1, 1, 1, 1, 1, 1, 1, 1, 1, 1, 1, 1, 1, 1, 1, 1, 0]"	"[0, 0, 0, 0, 0, 0, 0, 0, 0, 0, 0, 0, 0, 0, 0, 0, 0, 0, 0, 0, 0, 0, 0]"	"[0, 0, 0, 0, 0, 0, 0, 0, 0, 0, 0, 0, 0, 0, 0, 0, 0, 0, 0, 0, 0, 0, 1]"	"[0.7837778000393882, 0.9339267000323161, 1.1420611999928951, 1.3087720000185072, 1.5169557000044733, 1.6836408000672236, 1.8669763000216335, 2.042000800021924, 2.225693800020963, 2.408843799959868, 2.5671939000021666, 2.775618499959819, 3.1338733000447974, 3.3254164999816567, 3.483754500048235, 3.642280900035985, 3.825614499975927, 3.942285700002685, 4.11714710004162, 4.275590399978682, 4.508843200048432, 4.658856500056572, 5.200687000062317]"	23	"[0.7818847000598907, 0.9320346000604331, 1.1317423000000417, 1.3068894000025466, 1.5150574001017958, 1.6817406000336632, 1.865072900080122, 2.0401037000119686, 2.2237950999988243, 2.4069502000929788, 2.5652922000736, 2.7737211000639945, 3.131978700053878, 3.3235196000896394, 3.481856400030665, 3.640382800018415, 3.82371760008391, 3.9403872000984848, 4.115248100017197, 4.273694600095041, 4.506948300055228, 4.656967699993402, 5.198727400042117]"	"[0.8316059000790119, 1.0233086000662297, 1.1982331000035629, 1.4066364000318572, 1.5657972000772133, 1.773258800036274, 1.9482728000730276, 2.1316179001005366, 2.306755100027658, 2.4649582999991253, 2.6650077000958845, 2.8400525000179186, 3.2234009000239894, 3.3817639000480995, 3.5650380000006407, 3.7401508000912145, 3.881740599987097, 4.023413000046276, 4.181867800070904, 4.323460399988107, 4.565140500082634, 4.756793100037612, 5.198731700074859]"	199.362076399964	199.367727700039	200.859707599971	200.876220599981	NA	NA	NA	NA	NA	NA	NA	24	"02"	"2024-02-15_13h15.09.984"	"BART_exp"	"2023.2.3"	119.957295268725	"2024-02-15 13h15.19.192646 +0100"	NA
"balloon.png"	79	0	21	21	18	200.876220599981	NA	NA	NA	NA	NA	NA	NA	NA	NA	NA	NA	NA	200.859890099964	200.876220599981	200.876220599981	200.876220599981	200.876220599981	200.876220599981	-0.00090079999063164	-0.00090079999063164	-0.00090079999063164	200.876220599981	207.994923099992	22	1.1	FALSE	"[0.012037037037037037, 0.012037037037037037, 0.012037037037037037, 0.012037037037037037, 0.012962962962962963, 0.012962962962962963, 0.012962962962962963, 0.012962962962962963, 0.012962962962962963, 0.012962962962962963, 0.012962962962962963, 0.012962962962962963, 0.012962962962962963, 0.012962962962962963, 0.012962962962962963, 0.012962962962962963, 0.012962962962962963, 0.012962962962962963, 0.012962962962962963, 0.012962962962962963, 0.012962962962962963, 0.012962962962962963, 0.012962962962962963]"	"[-0.3648148148148148, -0.3648148148148148, -0.3648148148148148, -0.3648148148148148, -0.3648148148148148, -0.3648148148148148, -0.3648148148148148, -0.3648148148148148, -0.3648148148148148, -0.3648148148148148, -0.3648148148148148, -0.3648148148148148, -0.3648148148148148, -0.3648148148148148, -0.3648148148148148, -0.3648148148148148, -0.3648148148148148, -0.3648148148148148, -0.3648148148148148, -0.3648148148148148, -0.3648148148148148, -0.3648148148148148, -0.3648148148148148]"	"[1, 1, 1, 1, 1, 1, 1, 1, 1, 1, 1, 1, 1, 1, 1, 1, 1, 1, 1, 1, 1, 1, 0]"	"[0, 0, 0, 0, 0, 0, 0, 0, 0, 0, 0, 0, 0, 0, 0, 0, 0, 0, 0, 0, 0, 0, 0]"	"[0, 0, 0, 0, 0, 0, 0, 0, 0, 0, 0, 0, 0, 0, 0, 0, 0, 0, 0, 0, 0, 0, 1]"	"[0.6838605999946594, 0.8421351999277249, 1.0338406999362633, 1.2254582999739796, 1.4087772999191657, 1.6087297999765724, 1.7670485000126064, 1.9420813999604434, 2.308936099987477, 2.500607999972999, 2.63390699995216, 2.825606899918057, 2.9921497999457642, 3.150487700011581, 3.8590376999927685, 4.034110100008547, 4.208878899924457, 4.693822799948975, 4.875768999918364, 5.367295900010504, 6.184131899964996, 6.534052699920721, 7.134099899907596]"	23	"[0.6772313000401482, 0.8355058000888675, 1.0272092000814155, 1.2188256001099944, 1.4021513001061976, 1.6021035000449046, 1.7604218000778928, 1.9354472000850365, 2.3023125000763685, 2.493978700018488, 2.6272723000729457, 2.818980900105089, 2.9855197001015767, 3.143854000023566, 3.852411500061862, 4.027476500021294, 4.202255600015633, 4.687360100098886, 4.869137700065039, 5.360667500062846, 6.177500000107102, 6.527425000094809, 7.127408500062302]"	"[0.7518812000053003, 0.9351929000113159, 1.1032717000925913, 1.2769474000670016, 1.4686012000311166, 1.6519361000973731, 1.8436190000502393, 2.0186474000802264, 2.3770388000411913, 2.5686579000903293, 2.7353343000868335, 2.8937281999969855, 3.0687346000922844, 3.2436960000777617, 3.9354397000279278, 4.127145800041035, 4.285456000012346, 4.760479700053111, 4.943842100095935, 5.435534900054336, 6.277328000054695, 6.6356245001079515, 7.1274129000958055]"	207.995925999945	208.001673599938	209.493643200025	209.510170600028	NA	NA	NA	NA	NA	NA	NA	24	"02"	"2024-02-15_13h15.09.984"	"BART_exp"	"2023.2.3"	119.957295268725	"2024-02-15 13h15.19.192646 +0100"	NA
"balloon.png"	53	0	22	22	12	209.510170600028	NA	NA	NA	NA	NA	NA	NA	NA	NA	NA	NA	NA	209.493815299938	209.510170600028	209.510170600028	209.510170600028	209.510170600028	209.510170600028	-0.00085920002311468	-0.00085920002311468	-0.00085920002311468	209.510170600028	214.545575900003	20	1	FALSE	"[0.012962962962962963, 0.012962962962962963, 0.012962962962962963, 0.012962962962962963, 0.012962962962962963, 0.012962962962962963, 0.012962962962962963, 0.012962962962962963, 0.012962962962962963, 0.012962962962962963, 0.012962962962962963, 0.012962962962962963, 0.012962962962962963, 0.012962962962962963, 0.012962962962962963, 0.012962962962962963, 0.012962962962962963, 0.012962962962962963, 0.012962962962962963, 0.012962962962962963, 0.012962962962962963]"	"[-0.3648148148148148, -0.3648148148148148, -0.3648148148148148, -0.3648148148148148, -0.3648148148148148, -0.3648148148148148, -0.3648148148148148, -0.3648148148148148, -0.3648148148148148, -0.3648148148148148, -0.3648148148148148, -0.3648148148148148, -0.3648148148148148, -0.3648148148148148, -0.3648148148148148, -0.3648148148148148, -0.3648148148148148, -0.3648148148148148, -0.3648148148148148, -0.3648148148148148, -0.3648148148148148]"	"[1, 1, 1, 1, 1, 1, 1, 1, 1, 1, 1, 1, 1, 1, 1, 1, 1, 1, 1, 1, 0]"	"[0, 0, 0, 0, 0, 0, 0, 0, 0, 0, 0, 0, 0, 0, 0, 0, 0, 0, 0, 0, 0]"	"[0, 0, 0, 0, 0, 0, 0, 0, 0, 0, 0, 0, 0, 0, 0, 0, 0, 0, 0, 0, 1]"	"[0.6421853000065312, 0.8421626000199467, 1.0256077999947593, 1.209047400043346, 1.4005776999983937, 1.6005710000172257, 1.7838605999713764, 1.992314500035718, 2.342166500049643, 2.550447699963115, 2.7587868999689817, 2.94215819996316, 3.133834399981424, 3.3171646000118926, 3.6173432000214234, 3.7924324000487104, 3.9590317000402138, 4.133898700005375, 4.292302599991672, 4.567286300007254, 5.050845699966885]"	21	"[0.6391485999338329, 0.8391221999190748, 1.0225632999790832, 1.2060025999089703, 1.3975372998975217, 1.5975266000023112, 1.7808194999815896, 1.9892732999287546, 2.3391211999114603, 2.5474039999535307, 2.7557443999685347, 2.9391182999825105, 3.1307928999885917, 3.314125199918635, 3.61430199991446, 3.7893864999059588, 3.955991999944672, 4.130851299967617, 4.289261500001885, 4.5642405999824405, 5.047738099936396]"	"[0.7054651998914778, 0.9221880999393761, 1.0971860999707133, 1.2971664998913184, 1.4888734999112785, 1.680594699922949, 1.8638730999082327, 2.088919899892062, 2.4305998999625444, 2.614076199941337, 2.788941100006923, 2.98896549991332, 3.1889716999139637, 3.3640068999957293, 3.7056843999307603, 3.889028299949132, 4.064019399927929, 4.189079499919899, 4.405770499957725, 4.664227499975823, 5.047742299968377]"	214.546811799984	214.55218540004	216.044120799983	216.052234499948	NA	NA	NA	NA	NA	NA	NA	24	"02"	"2024-02-15_13h15.09.984"	"BART_exp"	"2023.2.3"	119.957295268725	"2024-02-15 13h15.19.192646 +0100"	NA
"balloon.png"	5	0	23	23	1	216.052234499948	NA	NA	NA	NA	NA	NA	NA	NA	NA	NA	NA	NA	216.044301899965	216.052234499948	216.052234499948	216.052234499948	216.052234499948	216.052234499948	0.00548930000513792	0.00548930000513792	0.00548930000513792	216.052234499948	218.354496699991	6	0.25	TRUE	"[0.012962962962962963, 0.012962962962962963, 0.012962962962962963, 0.012962962962962963, 0.012962962962962963, 0.012962962962962963]"	"[-0.3648148148148148, -0.3648148148148148, -0.3648148148148148, -0.3648148148148148, -0.3648148148148148, -0.3648148148148148]"	"[1, 1, 1, 1, 1, 1]"	"[0, 0, 0, 0, 0, 0]"	"[0, 0, 0, 0, 0, 0]"	"[1.2088632999220863, 1.4005492000142112, 1.5753889000043273, 1.7338261000113562, 2.0255431999685243, 2.2088864999823272]"	6	"[1.207025000010617, 1.398698200006038, 1.573533899965696, 1.7319753000047058, 2.0236884000478312, 2.2070324000669643]"	"[1.2984816000098363, 1.49835340003483, 1.6747682000277564, 1.9401057000504807, 2.106738300062716, 2.2984182999935]"	218.355128600029	218.360729899956	219.852697900031	219.869192600017	NA	NA	NA	NA	NA	NA	NA	24	"02"	"2024-02-15_13h15.09.984"	"BART_exp"	"2023.2.3"	119.957295268725	"2024-02-15 13h15.19.192646 +0100"	NA
"balloon.png"	75	0	24	24	17	219.869192600017	NA	NA	NA	NA	NA	NA	NA	NA	NA	NA	NA	NA	219.852880400023	219.869192600017	219.869192600017	219.869192600017	219.869192600017	219.869192600017	-0.0009612999856472	-0.0009612999856472	-0.0009612999856472	219.869192600017	225.012757899938	20	1	FALSE	"[0.019444444444444445, 0.019444444444444445, 0.019444444444444445, 0.019444444444444445, 0.019444444444444445, 0.019444444444444445, 0.019444444444444445, 0.019444444444444445, 0.019444444444444445, 0.019444444444444445, 0.019444444444444445, 0.019444444444444445, 0.019444444444444445, 0.019444444444444445, 0.019444444444444445, 0.019444444444444445, 0.019444444444444445, 0.019444444444444445, 0.019444444444444445, 0.019444444444444445, 0.019444444444444445]"	"[-0.37222222222222223, -0.37222222222222223, -0.37222222222222223, -0.37222222222222223, -0.37222222222222223, -0.37222222222222223, -0.37222222222222223, -0.37222222222222223, -0.37222222222222223, -0.37222222222222223, -0.37222222222222223, -0.37222222222222223, -0.37222222222222223, -0.37222222222222223, -0.37222222222222223, -0.37222222222222223, -0.37222222222222223, -0.37222222222222223, -0.37222222222222223, -0.37222222222222223, -0.37222222222222223]"	"[1, 1, 1, 1, 1, 1, 1, 1, 1, 1, 1, 1, 1, 1, 1, 1, 1, 1, 1, 1, 0]"	"[0, 0, 0, 0, 0, 0, 0, 0, 0, 0, 0, 0, 0, 0, 0, 0, 0, 0, 0, 0, 0]"	"[0, 0, 0, 0, 0, 0, 0, 0, 0, 0, 0, 0, 0, 0, 0, 0, 0, 0, 0, 0, 1]"	"[0.925451899995096, 1.0923230999615043, 1.3089116999180987, 1.5005879999371246, 1.7006040000123903, 1.9006641999585554, 2.075635500019416, 2.2590871999273077, 2.450654999935068, 2.6340340999886394, 2.834122799918987, 3.0340030000079423, 3.200654099928215, 3.4007240999490023, 3.5755723000038415, 3.74225279991515, 3.950569999986328, 4.125856900005601, 4.309043799992651, 4.617453599930741, 5.15896899998188]"	21	"[0.9215273000299931, 1.0884068000596017, 1.3049887000815943, 1.4966641999781132, 1.6966786000411958, 1.896739499992691, 2.071708000032231, 2.255158100044355, 2.4467293000780046, 2.6301070000045, 2.8301940000383183, 3.0300719999941066, 3.1967264000559226, 3.396795800072141, 3.5716466000303626, 3.738323700032197, 3.9466380000812933, 4.1219433000078425, 4.305119600030594, 4.613521300023422, 5.1549782999791205]"	"[0.9796377000166103, 1.1962971000466496, 1.3880085999844596, 1.5880318999988958, 1.779725500033237, 1.9547242000699043, 2.1630512999836355, 2.3548139000777155, 2.5297066000057384, 2.729974600020796, 2.9228582000359893, 3.08809299999848, 3.2797819999977946, 3.47145620000083, 3.663149100029841, 3.8381553000072017, 4.013283399981447, 4.180535200051963, 4.379860399989411, 4.729869400034659, 5.154982500011101]"	225.013676899951	225.019537499989	226.511515200022	226.52799089998	NA	NA	NA	NA	NA	NA	NA	24	"02"	"2024-02-15_13h15.09.984"	"BART_exp"	"2023.2.3"	119.957295268725	"2024-02-15 13h15.19.192646 +0100"	NA
"balloon.png"	84	0	25	25	19	226.52799089998	NA	NA	NA	NA	NA	NA	NA	NA	NA	NA	NA	NA	226.511694199988	226.52799089998	226.52799089998	226.52799089998	226.52799089998	226.52799089998	-0.00069550005719065	-0.00069550005719065	-0.00069550005719065	226.52799089998	234.92201660003	34	1.7	FALSE	"[0.020370370370370372, 0.020370370370370372, 0.020370370370370372, 0.020370370370370372, 0.020370370370370372, 0.020370370370370372, 0.020370370370370372, 0.020370370370370372, 0.020370370370370372, 0.020370370370370372, 0.020370370370370372, 0.020370370370370372, 0.020370370370370372, 0.020370370370370372, 0.020370370370370372, 0.020370370370370372, 0.020370370370370372, 0.020370370370370372, 0.020370370370370372, 0.020370370370370372, 0.020370370370370372, 0.020370370370370372, 0.020370370370370372, 0.020370370370370372, 0.020370370370370372, 0.020370370370370372, 0.020370370370370372, 0.020370370370370372, 0.020370370370370372, 0.020370370370370372, 0.020370370370370372, 0.020370370370370372, 0.020370370370370372, 0.020370370370370372, 0.020370370370370372]"	"[-0.37222222222222223, -0.37222222222222223, -0.37222222222222223, -0.37222222222222223, -0.37222222222222223, -0.37222222222222223, -0.37222222222222223, -0.37222222222222223, -0.37222222222222223, -0.37222222222222223, -0.37222222222222223, -0.37222222222222223, -0.37222222222222223, -0.37222222222222223, -0.37222222222222223, -0.37222222222222223, -0.37222222222222223, -0.37222222222222223, -0.37222222222222223, -0.37222222222222223, -0.37222222222222223, -0.37222222222222223, -0.37222222222222223, -0.37222222222222223, -0.37222222222222223, -0.37222222222222223, -0.37222222222222223, -0.37222222222222223, -0.37222222222222223, -0.37222222222222223, -0.37222222222222223, -0.37222222222222223, -0.37222222222222223, -0.37222222222222223, -0.37222222222222223]"	"[1, 1, 1, 1, 1, 1, 1, 1, 1, 1, 1, 1, 1, 1, 1, 1, 1, 1, 1, 1, 1, 1, 1, 1, 1, 1, 1, 1, 1, 1, 1, 1, 1, 1, 0]"	"[0, 0, 0, 0, 0, 0, 0, 0, 0, 0, 0, 0, 0, 0, 0, 0, 0, 0, 0, 0, 0, 0, 0, 0, 0, 0, 0, 0, 0, 0, 0, 0, 0, 0, 0]"	"[0, 0, 0, 0, 0, 0, 0, 0, 0, 0, 0, 0, 0, 0, 0, 0, 0, 0, 0, 0, 0, 0, 0, 0, 0, 0, 0, 0, 0, 0, 0, 0, 0, 0, 1]"	"[0.42576050001662225, 0.5754511000122875, 0.7504558999789879, 0.9420897000236437, 1.1337852999567986, 1.33385559997987, 1.525466899969615, 1.7336766000371426, 1.90891370002646, 2.1253969999961555, 2.308826499967836, 2.517151099978946, 2.7004177999915555, 2.8920819000341, 3.0837971000000834, 3.2754611000418663, 3.4588177000405267, 3.6504825999727473, 3.8671696999808773, 4.117310400004499, 4.550709699979052, 4.76746370003093, 5.125724600045942, 5.308931899955496, 5.492295800009742, 5.667308600037359, 5.858994700014591, 6.050874699954875, 6.425690499949269, 6.634136499953456, 7.200920399976894, 7.409237900050357, 7.634257000056095, 8.050846299971454, 8.409380999975838]"	35	"[0.42085770005360246, 0.5705436000134796, 0.7455554000334814, 0.9371859000530094, 1.1288773000705987, 1.3289453000761569, 1.5205601000925526, 1.728765400010161, 1.9040032000048086, 2.120490700006485, 2.303912300034426, 2.5122411000775173, 2.695514400023967, 2.8871725000208244, 3.078885200084187, 3.2705530000384897, 3.4539059000089765, 3.6455710000591353, 3.86225910007488, 4.112399300094694, 4.545802300097421, 4.76255330001004, 5.120817100047134, 5.304022500058636, 5.487381700077094, 5.6623956999974325, 5.854086600011215, 6.045963000040501, 6.420778500032611, 6.629224200034514, 7.1960082000587136, 7.404328000033274, 7.629351600073278, 8.045934800058603, 8.404407600057311]"	"[0.5036201000912115, 0.6785925000440329, 0.85356459999457, 1.0452502000844106, 1.2119732000865042, 1.3952612000284716, 1.5952947000041604, 1.8036223000381142, 1.9870459000812843, 2.1953361000632867, 2.3870059000328183, 2.578684800071642, 2.7870258000912145, 2.9703736000228673, 3.1620697000762448, 3.370579000096768, 3.5454814000986516, 3.7120962000917643, 3.920514600002207, 4.212165000033565, 4.637175700045191, 4.828870500088669, 5.212211600039154, 5.3789448000025, 5.537236100062728, 5.720598000101745, 5.945692300098017, 6.137269800063223, 6.54571760003455, 6.712360500008799, 7.2790103000588715, 7.504028300056234, 7.7040871999925, 8.154117100057192, 8.40441160008777]"	234.923228099942	234.928615299985	236.420523899957	236.428690099972	NA	NA	NA	NA	NA	NA	NA	24	"02"	"2024-02-15_13h15.09.984"	"BART_exp"	"2023.2.3"	119.957295268725	"2024-02-15 13h15.19.192646 +0100"	NA
"balloon.png"	44	0	26	26	10	236.428690099972	NA	NA	NA	NA	NA	NA	NA	NA	NA	NA	NA	NA	236.420697699999	236.428690099972	236.428690099972	236.428690099972	236.428690099972	236.428690099972	0.00552989996504038	0.00552989996504038	0.00552989996504038	236.428690099972	241.213911099941	18	0.9	FALSE	"[0.012962962962962963, 0.012962962962962963, 0.012962962962962963, 0.012962962962962963, 0.012962962962962963, 0.012962962962962963, 0.012962962962962963, 0.012962962962962963, 0.012962962962962963, 0.012962962962962963, 0.012962962962962963, 0.012962962962962963, 0.012962962962962963, 0.012962962962962963, 0.012962962962962963, 0.012962962962962963, 0.012962962962962963, 0.012962962962962963, 0.012962962962962963]"	"[-0.39444444444444443, -0.39444444444444443, -0.39444444444444443, -0.39444444444444443, -0.39444444444444443, -0.39444444444444443, -0.39444444444444443, -0.39444444444444443, -0.39444444444444443, -0.39444444444444443, -0.39444444444444443, -0.39444444444444443, -0.39444444444444443, -0.39444444444444443, -0.39444444444444443, -0.39444444444444443, -0.39444444444444443, -0.39444444444444443, -0.3907407407407407]"	"[1, 1, 1, 1, 1, 1, 1, 1, 1, 1, 1, 1, 1, 1, 1, 1, 1, 1, 0]"	"[0, 0, 0, 0, 0, 0, 0, 0, 0, 0, 0, 0, 0, 0, 0, 0, 0, 0, 0]"	"[0, 0, 0, 0, 0, 0, 0, 0, 0, 0, 0, 0, 0, 0, 0, 0, 0, 0, 1]"	"[0.7503614999586716, 1.0505528999492526, 1.2506347999442369, 1.4171922999667004, 1.6005055999848992, 1.8004179999697953, 1.9672605999512598, 2.1172262999461964, 2.317157599958591, 2.400614400045015, 2.5588049000361934, 2.7171758000040427, 2.8840099000371993, 3.192247899947688, 3.350581799983047, 3.492478400003165, 3.7007504999637604, 3.892446000012569, 4.792320900014602]"	19	"[0.7485002999892458, 1.048692399985157, 1.2487797000212595, 1.4153338000178337, 1.598645000020042, 1.7985596000216901, 1.965404300019145, 2.115368099999614, 2.3153009000234306, 2.3987515999469906, 2.5569394999183714, 2.7153141999151558, 2.8821485999505967, 3.1903889999957755, 3.3487222000258043, 3.4906166999135166, 3.69888829998672, 3.8905830999137834, 4.790396999916993]"	"[0.9233479999238625, 1.1483649999136105, 1.315045699942857, 1.515098899952136, 1.690195299917832, 1.8818609999725595, 2.040094699943438, 2.1901723999762908, 2.356792000005953, 2.4819412999786437, 2.6485574999824166, 2.7901702999370173, 2.9666101000038907, 3.273519799928181, 3.4485458999406546, 3.5902470999863, 3.7902414000127465, 3.931954199913889, 4.790401299949735]"	241.214867400005	241.220665900037	242.712636800017	242.729142499971	NA	NA	NA	NA	NA	NA	NA	24	"02"	"2024-02-15_13h15.09.984"	"BART_exp"	"2023.2.3"	119.957295268725	"2024-02-15 13h15.19.192646 +0100"	NA
"balloon.png"	14	0	27	27	3	242.729142499971	NA	NA	NA	NA	NA	NA	NA	NA	NA	NA	NA	NA	242.712838800042	242.729142499971	242.729142499971	242.729142499971	242.729142499971	242.729142499971	-0.00075420003850013	-0.00075420003850013	-0.00075420003850013	242.729142499971	247.07445700001	15	0.7	TRUE	"[0.012962962962962963, 0.012962962962962963, 0.012962962962962963, 0.012962962962962963, 0.012962962962962963, 0.012962962962962963, 0.012962962962962963, 0.012962962962962963, 0.012962962962962963, 0.012962962962962963, 0.012962962962962963, 0.012962962962962963, 0.012962962962962963, 0.012962962962962963, 0.012962962962962963]"	"[-0.3907407407407407, -0.3907407407407407, -0.3907407407407407, -0.3907407407407407, -0.3907407407407407, -0.3907407407407407, -0.3907407407407407, -0.3907407407407407, -0.3907407407407407, -0.3907407407407407, -0.3907407407407407, -0.3907407407407407, -0.3907407407407407, -0.3907407407407407, -0.3907407407407407]"	"[1, 1, 1, 1, 1, 1, 1, 1, 1, 1, 1, 1, 1, 1, 1]"	"[0, 0, 0, 0, 0, 0, 0, 0, 0, 0, 0, 0, 0, 0, 0]"	"[0, 0, 0, 0, 0, 0, 0, 0, 0, 0, 0, 0, 0, 0, 0]"	"[1.108644700027071, 1.3172450000420213, 1.8171851999359205, 2.017042199964635, 2.2088796999305487, 2.417081299936399, 2.600619100034237, 2.825433799996972, 3.025611700024456, 3.2337886999594048, 3.442151000024751, 3.667151700006798, 3.8671956999460235, 4.067166300024837, 4.267284999950789]"	15	"[1.1049370999680832, 1.3135331999510527, 1.8134753999765962, 2.0133298999862745, 2.2051757000153884, 2.4133710999740288, 2.5969070999417454, 2.821719200001098, 3.021902499953285, 3.230073699960485, 3.438438699929975, 3.6634436999447644, 3.8634859999874607, 4.063456599949859, 4.263572999974713]"	"[1.1964447000063956, 1.3882343999575824, 1.9133632999146357, 2.0965368999168277, 2.2882089000195265, 2.4966119999298826, 2.696543399943039, 2.8882440999150276, 3.10490509995725, 3.2882563999155536, 3.5049577999161556, 3.7299534999765456, 3.9549849999602884, 4.155011700000614, 4.346864999970421]"	247.075309599983	247.087751199957	248.579580800026	NA	NA	NA	NA	NA	NA	NA	NA	24	"02"	"2024-02-15_13h15.09.984"	"BART_exp"	"2023.2.3"	119.957295268725	"2024-02-15 13h15.19.192646 +0100"	NA
"balloon.png"	110	0	28	28	25	248.596241099993	NA	NA	NA	NA	NA	NA	NA	NA	NA	NA	NA	NA	248.579757399973	248.596241099993	248.596241099993	248.596241099993	248.596241099993	248.596241099993	0.00579930003732442	0.00579930003732442	0.00579930003732442	248.596241099993	254.22329330002	23	1.15	FALSE	"[0.012962962962962963, 0.012962962962962963, 0.012962962962962963, 0.012962962962962963, 0.012962962962962963, 0.012962962962962963, 0.012962962962962963, 0.012962962962962963, 0.012962962962962963, 0.012962962962962963, 0.012962962962962963, 0.012962962962962963, 0.012962962962962963, 0.012962962962962963, 0.012962962962962963, 0.012962962962962963, 0.012962962962962963, 0.012962962962962963, 0.012962962962962963, 0.012962962962962963, 0.012962962962962963, 0.012962962962962963, 0.012962962962962963, 0.012962962962962963]"	"[-0.3907407407407407, -0.3907407407407407, -0.3907407407407407, -0.3907407407407407, -0.3907407407407407, -0.3907407407407407, -0.3907407407407407, -0.3907407407407407, -0.3907407407407407, -0.3907407407407407, -0.3907407407407407, -0.3907407407407407, -0.3907407407407407, -0.3907407407407407, -0.3907407407407407, -0.3907407407407407, -0.3907407407407407, -0.3907407407407407, -0.3907407407407407, -0.3907407407407407, -0.3907407407407407, -0.3907407407407407, -0.3907407407407407, -0.3907407407407407]"	"[1, 1, 1, 1, 1, 1, 1, 1, 1, 1, 1, 1, 1, 1, 1, 1, 1, 1, 1, 1, 1, 1, 1, 0]"	"[0, 0, 0, 0, 0, 0, 0, 0, 0, 0, 0, 0, 0, 0, 0, 0, 0, 0, 0, 0, 0, 0, 0, 0]"	"[0, 0, 0, 0, 0, 0, 0, 0, 0, 0, 0, 0, 0, 0, 0, 0, 0, 0, 0, 0, 0, 0, 0, 1]"	"[0.6339522999478504, 0.8338351999409497, 1.033954399987124, 1.2255018999567255, 1.4174712999956682, 1.609105399926193, 1.7755353999091312, 1.9839274999685585, 2.2174424999393523, 2.4340441999956965, 2.617268299916759, 2.783951099961996, 3.1507232999429107, 3.3507408999139443, 3.525825399905443, 3.875954099930823, 4.117537899990566, 4.275910199969076, 4.49256789998617, 4.651018499978818, 4.842635300010443, 5.026002799975686, 5.1924570999108255, 5.64263019990176]"	24	"[0.6267048000590876, 0.8265750000718981, 1.0267196000786498, 1.2182505000382662, 1.4102214000886306, 1.6018503000959754, 1.768281300086528, 1.9767376000527292, 2.2101820000680164, 2.426788500044495, 2.6100081000477076, 2.7766909000929445, 3.1434690000023693, 3.3434923000168055, 3.5185698000714183, 3.8686942000640556, 4.1102811000309885, 4.268652500002645, 4.485310800024308, 4.643763300031424, 4.835383900091983, 5.018750000046566, 5.185202000080608, 5.635311300051399]"	"[0.7348436000756919, 0.9264392000623047, 1.118096400052309, 1.2931138999992982, 1.5014650000957772, 1.6764715000754222, 1.843185200006701, 2.1099142000311986, 2.3098867000080645, 2.518222200102173, 2.7015795001061633, 2.8850108000915498, 3.209998100064695, 3.418274600058794, 3.726600000052713, 3.9599528000690043, 4.176637800061144, 4.360014600097202, 4.534999200026505, 4.7183447000570595, 4.893367300042883, 5.093393000075594, 5.260073300101794, 5.6353155000833794]"	254.224321399932	254.229912900017	255.721929199994	255.738357699942	NA	NA	NA	NA	NA	NA	NA	24	"02"	"2024-02-15_13h15.09.984"	"BART_exp"	"2023.2.3"	119.957295268725	"2024-02-15 13h15.19.192646 +0100"	NA
"balloon.png"	92	0	29	29	21	255.738357699942	NA	NA	NA	NA	NA	NA	NA	NA	NA	NA	NA	NA	255.722112899995	255.738357699942	255.738357699942	255.738357699942	255.738357699942	255.738357699942	-0.00096940004732459	-0.00096940004732459	-0.00096940004732459	255.738357699942	260.91531359998	20	1	FALSE	"[0.012962962962962963, 0.012962962962962963, 0.012962962962962963, 0.012962962962962963, 0.012962962962962963, 0.012962962962962963, 0.012037037037037037, 0.012037037037037037, 0.012037037037037037, 0.012037037037037037, 0.012037037037037037, 0.012037037037037037, 0.012037037037037037, 0.012037037037037037, 0.012037037037037037, 0.012037037037037037, 0.012037037037037037, 0.012037037037037037, 0.012037037037037037, 0.012037037037037037, 0.012037037037037037]"	"[-0.3907407407407407, -0.3907407407407407, -0.3907407407407407, -0.3907407407407407, -0.38796296296296295, -0.3851851851851852, -0.38333333333333336, -0.38333333333333336, -0.38333333333333336, -0.38333333333333336, -0.38333333333333336, -0.38333333333333336, -0.38333333333333336, -0.38333333333333336, -0.38333333333333336, -0.38333333333333336, -0.38333333333333336, -0.38333333333333336, -0.38333333333333336, -0.38333333333333336, -0.38333333333333336]"	"[1, 1, 1, 1, 1, 1, 1, 1, 1, 1, 1, 1, 1, 1, 1, 1, 1, 1, 1, 1, 0]"	"[0, 0, 0, 0, 0, 0, 0, 0, 0, 0, 0, 0, 0, 0, 0, 0, 0, 0, 0, 0, 0]"	"[0, 0, 0, 0, 0, 0, 0, 0, 0, 0, 0, 0, 0, 0, 0, 0, 0, 0, 0, 0, 1]"	"[0.5504450999433175, 0.717193300020881, 0.9422206999734044, 1.1755029999185354, 1.367191300028935, 1.5672482999507338, 1.7673610999481753, 1.983830799930729, 2.2003987999632955, 2.4170774000231177, 2.5922483999747783, 2.8087646999629214, 3.1506546000018716, 3.3257057999726385, 3.509000499965623, 3.64237110002432, 3.9423514999216422, 4.125699799973518, 4.4590210999595, 4.642229399993084, 5.192308699944988]"	21	"[0.54528990003746, 0.7120342999696732, 0.9370691999793053, 1.1703524000477046, 1.3620377000188455, 1.5620965999551117, 1.7622056000400335, 1.9786800000583753, 2.1952490999829024, 2.4119234000099823, 2.587102200021036, 2.803611099952832, 3.1454983999719843, 3.3205489000538364, 3.503849199973047, 3.6372154999990016, 3.9371964000165462, 4.120542900054716, 4.45386780006811, 4.637074499973096, 5.187096899957396]"	"[0.6033045999938622, 0.8116964000510052, 1.0367154000559822, 1.253375199972652, 1.4534900999860838, 1.6617271000286564, 1.8534183000447229, 2.078659799997695, 2.2784287000540644, 2.4867834000615403, 2.6702270000241697, 2.863215300021693, 3.211825800011866, 3.395183000015095, 3.5451986000407487, 3.6868772000307217, 4.036922800005414, 4.211929199984297, 4.536933899973519, 4.720307499985211, 5.187101599993184]"	260.916297800024	260.922101499978	262.41404059995	262.422174299951	NA	NA	NA	NA	NA	NA	NA	24	"02"	"2024-02-15_13h15.09.984"	"BART_exp"	"2023.2.3"	119.957295268725	"2024-02-15 13h15.19.192646 +0100"	NA
NA	NA	NA	NA	NA	NA	NA	NA	NA	NA	NA	NA	NA	NA	NA	NA	NA	NA	NA	NA	NA	NA	NA	NA	NA	NA	NA	NA	NA	NA	NA	NA	NA	NA	NA	NA	NA	NA	NA	NA	NA	NA	NA	NA	NA	NA	262.41407649999	262.422174299951	262.422174299951	271.339935699943	"space"	8.91105880006216	"None"	24	"02"	"2024-02-15_13h15.09.984"	"BART_exp"	"2023.2.3"	119.957295268725	"2024-02-15 13h15.19.192646 +0100"	NA
