"image"	"max_pumps"	"pump_loop.thisRepN"	"pump_loop.thisTrialN"	"pump_loop.thisN"	"pump_loop.thisIndex"	"thisRow.t"	"notes"	"Start.started"	"text_start.started"	"continue_start.started"	"mouse_start.started"	"Start.stopped"	"mouse_start.x"	"mouse_start.y"	"mouse_start.leftButton"	"mouse_start.midButton"	"mouse_start.rightButton"	"mouse_start.time"	"trials.started"	"stim_balloon.started"	"stim_balloon_burst.started"	"stim_balloon_burst.stopped"	"text_ballon_value.started"	"text_bank.started"	"mouse.started"	"sound_bang.started"	"sound_bang.stopped"	"button_balloon.started"	"trials.stopped"	"n_pumps"	"earnings"	"popped"	"mouse.x"	"mouse.y"	"mouse.leftButton"	"mouse.midButton"	"mouse.rightButton"	"mouse.time"	"button_balloon.numClicks"	"button_balloon.timesOn"	"button_balloon.timesOff"	"Feedback.started"	"text_feedback.started"	"Feedback.stopped"	"text_feedback.stopped"	"End.started"	"text_end.started"	"key_end.started"	"End.stopped"	"key_end.keys"	"key_end.rt"	"key_end.duration"	"participant"	"session"	"date"	"expName"	"psychopyVersion"	"frameRate"	"expStart"	"...61"
NA	NA	NA	NA	NA	NA	NA	NA	0.00105989999997291	0.00533870000003844	0.00533870000003844	0.00134800000000723	31.2982296	"[0.7268518518518519]"	"[-0.39166666666666666]"	"[1]"	"[0]"	"[0]"	"[31.296218800000133]"	NA	NA	NA	NA	NA	NA	NA	NA	NA	NA	NA	NA	NA	NA	NA	NA	NA	NA	NA	NA	NA	NA	NA	NA	NA	NA	NA	NA	NA	NA	NA	NA	NA	NA	30	"01"	"2024-02-21_09h11.53.942"	"BART_exp"	"2023.2.3"	119.922050666963	"2024-02-21 09h12.04.935450 +0100"	NA
"balloon.png"	36	0	0	0	8	31.3707856000001	NA	NA	NA	NA	NA	NA	NA	NA	NA	NA	NA	NA	31.3128145000001	31.3707856000001	31.3707856000001	31.3707856000001	31.3707856000001	31.3707856000001	0.016256599999906	0.016256599999906	0.016256599999906	31.3707856000001	36.5247023000002	5	0.25	FALSE	"[-0.10092592592592593, -0.10092592592592593, -0.10092592592592593, -0.10092592592592593, -0.10092592592592593, -0.10092592592592593]"	"[-0.38981481481481484, -0.38981481481481484, -0.38981481481481484, -0.38981481481481484, -0.38981481481481484, -0.38981481481481484]"	"[1, 1, 1, 1, 1, 0]"	"[0, 0, 0, 0, 0, 0]"	"[0, 0, 0, 0, 0, 1]"	"[2.2273131999997986, 2.8523255000000063, 3.485827999999856, 3.7522231999998894, 4.418921799999907, 5.210824499999944]"	6	"[2.1755636000000322, 2.8005900999999085, 3.434092899999996, 3.7004680000000008, 4.367168300000003, 5.15901319999989]"	"[2.3252800999998726, 2.983668200000011, 3.5670156999999563, 3.825494499999877, 4.467057399999931, 5.1590177000000494]"	36.5258966000001	36.5357433000001	38.0313803000001	NA	NA	NA	NA	NA	NA	NA	NA	30	"01"	"2024-02-21_09h11.53.942"	"BART_exp"	"2023.2.3"	119.922050666963	"2024-02-21 09h12.04.935450 +0100"	NA
"balloon.png"	101	0	1	1	23	38.0395206000001	NA	NA	NA	NA	NA	NA	NA	NA	NA	NA	NA	NA	38.0315895000001	38.0395206000001	38.0395206000001	38.0395206000001	38.0395206000001	38.0395206000001	0.00715409999997973	0.00715409999997973	0.00715409999997973	38.0395206000001	41.8666055000001	7	0.35	FALSE	"[-0.037037037037037035, -0.037037037037037035, -0.037037037037037035, -0.037037037037037035, -0.037037037037037035, -0.037037037037037035, -0.037037037037037035, -0.037037037037037035]"	"[-0.3685185185185185, -0.3685185185185185, -0.3685185185185185, -0.3685185185185185, -0.3685185185185185, -0.3685185185185185, -0.3685185185185185, -0.3685185185185185]"	"[1, 1, 1, 1, 1, 1, 1, 0]"	"[0, 0, 0, 0, 0, 0, 0, 0]"	"[0, 0, 0, 0, 0, 0, 0, 1]"	"[1.6504454000000806, 1.9006283999999596, 2.1922188999999435, 2.4253788000000895, 2.6504670000001624, 3.117447000000084, 3.425475100000085, 3.833908000000065]"	8	"[1.6478023999998186, 1.8980036999998902, 2.189600599999949, 2.4229544999998325, 2.6478137999999944, 3.11483219999991, 3.422822799999949, 3.831196099999943]"	"[1.7726249999998345, 2.0310042999999496, 2.2892749000000094, 2.522604999999885, 2.7476985999999215, 3.2492738999999347, 3.5394143999999415, 3.831200299999864]"	41.8673751000001	41.8730797000001	43.3653303000001	43.3799011000001	NA	NA	NA	NA	NA	NA	NA	30	"01"	"2024-02-21_09h11.53.942"	"BART_exp"	"2023.2.3"	119.922050666963	"2024-02-21 09h12.04.935450 +0100"	NA
"balloon.png"	105	0	2	2	24	43.3799011000001	NA	NA	NA	NA	NA	NA	NA	NA	NA	NA	NA	NA	43.3655444000001	43.3799011000001	43.3799011000001	43.3799011000001	43.3799011000001	43.3799011000001	-0.00021750000018982	-0.00021750000018982	-0.00021750000018982	43.3799011000001	46.7012324	6	0.3	FALSE	"[-0.037037037037037035, -0.037037037037037035, -0.037037037037037035, -0.037037037037037035, -0.037037037037037035, -0.037037037037037035, -0.037037037037037035]"	"[-0.3685185185185185, -0.3685185185185185, -0.3685185185185185, -0.3685185185185185, -0.3685185185185185, -0.3685185185185185, -0.3685185185185185]"	"[1, 1, 1, 1, 1, 1, 0]"	"[0, 0, 0, 0, 0, 0, 0]"	"[0, 0, 0, 0, 0, 0, 1]"	"[0.6170337999999447, 0.8670336999998653, 1.5919695999998567, 2.0338885999999547, 2.2503811999999925, 2.8839347999999063, 3.3343918999999005]"	7	"[0.6085206000000198, 0.858509099999992, 1.5834422000000359, 2.025379100000009, 2.24184769999988, 2.875401899999815, 3.325818300000037]"	"[0.7332291999998688, 1.0082730999999967, 1.733288899999934, 2.166571499999918, 2.3585295000000315, 2.9754169000000275, 3.325822899999821]"	46.7021928000001	46.7067265000001	48.2012599	48.2197227000001	NA	NA	NA	NA	NA	NA	NA	30	"01"	"2024-02-21_09h11.53.942"	"BART_exp"	"2023.2.3"	119.922050666963	"2024-02-21 09h12.04.935450 +0100"	NA
"balloon.png"	5	0	3	3	1	48.2197227000001	NA	NA	NA	NA	NA	NA	NA	NA	NA	NA	NA	NA	48.2015382000002	48.2197227000001	48.2197227000001	48.2197227000001	48.2197227000001	48.2197227000001	0.00090569999997569	0.00090569999997569	0.00090569999997569	48.2197227000001	51.1677392000001	6	0.25	TRUE	"[-0.037037037037037035, -0.037037037037037035, -0.037037037037037035, -0.037037037037037035, -0.037037037037037035, -0.037037037037037035]"	"[-0.3685185185185185, -0.3685185185185185, -0.3685185185185185, -0.3685185185185185, -0.3685185185185185, -0.3685185185185185]"	"[1, 1, 1, 1, 1, 1]"	"[0, 0, 0, 0, 0, 0]"	"[0, 0, 0, 0, 0, 0]"	"[0.5644785999998021, 1.0476526999998441, 1.2893845999999485, 1.6227143999999498, 2.61446049999995, 2.831093099999862]"	6	"[0.5522512999998526, 1.0353803999998945, 1.2771135999998933, 1.6104404000000159, 2.602190599999858, 2.818817699999954]"	"[0.6685171999999966, 1.1686010999999326, 1.3936549000000014, 1.7437843000000157, 2.7353941999999734, 2.943857699999853]"	51.1684663000001	51.1754307000001	52.6740618000001	NA	NA	NA	NA	NA	NA	NA	NA	30	"01"	"2024-02-21_09h11.53.942"	"BART_exp"	"2023.2.3"	119.922050666963	"2024-02-21 09h12.04.935450 +0100"	NA
"balloon.png"	92	0	4	4	21	52.6890449	NA	NA	NA	NA	NA	NA	NA	NA	NA	NA	NA	NA	52.6742743	52.6890449	52.6890449	52.6890449	52.6890449	52.6890449	0.00731350000000929	0.00731350000000929	0.00731350000000929	52.6890449	54.8768747000001	5	0.25	FALSE	"[-0.037037037037037035, -0.037037037037037035, -0.037037037037037035, -0.037037037037037035, -0.037037037037037035, -0.037037037037037035]"	"[-0.3685185185185185, -0.3685185185185185, -0.3685185185185185, -0.3685185185185185, -0.3685185185185185, -0.3685185185185185]"	"[1, 1, 1, 1, 1, 0]"	"[0, 0, 0, 0, 0, 0]"	"[0, 0, 0, 0, 0, 1]"	"[0.708840999999893, 0.9421176999999261, 1.200555199999826, 1.6674032999999326, 1.900756599999795, 2.201144699999986]"	6	"[0.6992262000001119, 0.9324992000001657, 1.1909335000000283, 1.6578025000001162, 1.8911734000000706, 2.1916075999999975]"	"[0.8074950000000172, 1.074119699999983, 1.3241054000000076, 1.7741766000001462, 2.007699700000103, 2.191614800000025]"	54.8777681000001	54.8823340000001	56.3763940000001	56.3894661000002	NA	NA	NA	NA	NA	NA	NA	30	"01"	"2024-02-21_09h11.53.942"	"BART_exp"	"2023.2.3"	119.922050666963	"2024-02-21 09h12.04.935450 +0100"	NA
"balloon.png"	23	0	5	5	5	56.3894661000002	NA	NA	NA	NA	NA	NA	NA	NA	NA	NA	NA	NA	56.3766727	56.3894661000002	56.3894661000002	56.3894661000002	56.3894661000002	56.3894661000002	0.00037979999979143	0.00037979999979143	0.00037979999979143	56.3894661000002	58.3345889	5	0.25	FALSE	"[-0.037037037037037035, -0.037037037037037035, -0.037037037037037035, -0.037037037037037035, -0.037037037037037035, -0.037037037037037035]"	"[-0.3685185185185185, -0.3685185185185185, -0.3685185185185185, -0.3685185185185185, -0.3685185185185185, -0.3685185185185185]"	"[1, 1, 1, 1, 1, 0]"	"[0, 0, 0, 0, 0, 0]"	"[0, 0, 0, 0, 0, 1]"	"[0.5732599000000391, 1.1064452000000529, 1.3577808999998524, 1.5399853999999777, 1.6899071000000276, 1.9567078999998557]"	6	"[0.5656340000000455, 1.0988110999999208, 1.3503215999999156, 1.532361999999921, 1.6822738999999274, 1.9490203999998812]"	"[0.6820442999999159, 1.2820581999999376, 1.4904916999998932, 1.640339099999892, 1.7821466000000328, 1.9490246999998817]"	58.3353072	58.3408768000002	59.8331756	59.8502805000001	NA	NA	NA	NA	NA	NA	NA	30	"01"	"2024-02-21_09h11.53.942"	"BART_exp"	"2023.2.3"	119.922050666963	"2024-02-21 09h12.04.935450 +0100"	NA
"balloon.png"	66	0	6	6	15	59.8502805000001	NA	NA	NA	NA	NA	NA	NA	NA	NA	NA	NA	NA	59.8333987000001	59.8502805000001	59.8502805000001	59.8502805000001	59.8502805000001	59.8502805000001	-0.00043010000013055	-0.00043010000013055	-0.00043010000013055	59.8502805000001	62.6848347	6	0.3	FALSE	"[-0.037037037037037035, -0.037037037037037035, -0.037037037037037035, -0.037037037037037035, -0.037037037037037035, -0.037037037037037035, -0.037037037037037035]"	"[-0.3685185185185185, -0.3685185185185185, -0.3685185185185185, -0.3685185185185185, -0.3685185185185185, -0.3685185185185185, -0.3685185185185185]"	"[1, 1, 1, 1, 1, 1, 0]"	"[0, 0, 0, 0, 0, 0, 0]"	"[0, 0, 0, 0, 0, 0, 1]"	"[0.48364470000001347, 1.1002568999999767, 1.3170279999999366, 1.5003280999999333, 1.6501556999999138, 2.4418253999999706, 2.8503251999998156]"	7	"[0.47309199999995144, 1.0896761999999853, 1.3064692000000377, 1.489753999999948, 1.639591399999972, 2.4312419999998838, 2.8396797999998853]"	"[0.647535199999993, 1.2143734999999651, 1.4227872999999818, 1.5977465999999367, 1.7394707999999355, 2.4977453999999852, 2.8396838999999545]"	62.6856958000001	62.6911790000001	64.1837259000001	64.1999369	NA	NA	NA	NA	NA	NA	NA	30	"01"	"2024-02-21_09h11.53.942"	"BART_exp"	"2023.2.3"	119.922050666963	"2024-02-21 09h12.04.935450 +0100"	NA
"balloon.png"	14	0	7	7	3	64.1999369	NA	NA	NA	NA	NA	NA	NA	NA	NA	NA	NA	NA	64.183943	64.1999369	64.1999369	64.1999369	64.1999369	64.1999369	-0.00025540000001456	-0.00025540000001456	-0.00025540000001456	64.1999369	68.0516068000002	7	0.35	FALSE	"[-0.037037037037037035, -0.037037037037037035, -0.037037037037037035, -0.037037037037037035, -0.037037037037037035, -0.037037037037037035, -0.037037037037037035, -0.037037037037037035]"	"[-0.3685185185185185, -0.3685185185185185, -0.3685185185185185, -0.3685185185185185, -0.3685185185185185, -0.3685185185185185, -0.3685185185185185, -0.3685185185185185]"	"[1, 1, 1, 1, 1, 1, 1, 0]"	"[0, 0, 0, 0, 0, 0, 0, 0]"	"[0, 0, 0, 0, 0, 0, 0, 1]"	"[0.5249476999999843, 1.3249945000000025, 1.5670952000000398, 1.7668740999999955, 2.041518200000155, 3.2498897000000397, 3.4416705000001, 3.866563000000042]"	8	"[0.5147166000001562, 1.3147502000001623, 1.5569417000001522, 1.7567877000001317, 2.0312694000001557, 3.2396534000001793, 3.4314178000001903, 3.8562556000001678]"	"[0.6144066000001658, 1.439586400000053, 1.6396486000001005, 1.8730863000000681, 2.1645043000000896, 3.3394841000001634, 3.539611500000092, 3.8562599000001683]"	68.0523756	68.05818	69.5521397	69.5692594000002	NA	NA	NA	NA	NA	NA	NA	30	"01"	"2024-02-21_09h11.53.942"	"BART_exp"	"2023.2.3"	119.922050666963	"2024-02-21 09h12.04.935450 +0100"	NA
"balloon.png"	10	0	8	8	2	69.5692594000002	NA	NA	NA	NA	NA	NA	NA	NA	NA	NA	NA	NA	69.5524104000001	69.5692594000002	69.5692594000002	69.5692594000002	69.5692594000002	69.5692594000002	0.00153610000006665	0.00153610000006665	0.00153610000006665	69.5692594000002	72.4520357000001	8	0.4	FALSE	"[-0.037037037037037035, -0.037037037037037035, -0.037037037037037035, -0.037037037037037035, -0.037037037037037035, -0.037037037037037035, -0.037037037037037035, -0.037037037037037035, -0.037037037037037035]"	"[-0.3685185185185185, -0.3685185185185185, -0.3685185185185185, -0.3685185185185185, -0.3685185185185185, -0.3685185185185185, -0.3685185185185185, -0.3685185185185185, -0.3685185185185185]"	"[1, 1, 1, 1, 1, 1, 1, 1, 0]"	"[0, 0, 0, 0, 0, 0, 0, 0, 0]"	"[0, 0, 0, 0, 0, 0, 0, 0, 1]"	"[0.8362514000000374, 1.0235202999999728, 1.2316565000000992, 1.406955200000084, 1.5903364000000693, 1.814965900000061, 1.9986079000000245, 2.492307799999935, 2.898431099999925]"	9	"[0.8162077999998019, 1.011926499999845, 1.220046499999853, 1.3953672999998616, 1.5787660999999389, 1.803360399999974, 1.9870171000000028, 2.4807040999999117, 2.886754099999962]"	"[0.9076422999999068, 1.11989299999982, 1.3212903999999526, 1.5127707999999984, 1.6950925999999527, 1.8866270999999415, 2.095213599999852, 2.59513899999979, 2.8867584999998144]"	72.4527904000001	72.4586177000001	73.9507854000001	73.9596603	NA	NA	NA	NA	NA	NA	NA	30	"01"	"2024-02-21_09h11.53.942"	"BART_exp"	"2023.2.3"	119.922050666963	"2024-02-21 09h12.04.935450 +0100"	NA
"balloon.png"	75	0	9	9	17	73.9596603	NA	NA	NA	NA	NA	NA	NA	NA	NA	NA	NA	NA	73.9510162000001	73.9596603	73.9596603	73.9596603	73.9596603	73.9596603	-0.00028140000017629	-0.00028140000017629	-0.00028140000017629	73.9596603	76.8689762000001	8	0.4	FALSE	"[-0.037037037037037035, -0.037037037037037035, -0.037037037037037035, -0.037037037037037035, -0.037037037037037035, -0.037037037037037035, -0.037037037037037035, -0.037037037037037035, -0.037037037037037035]"	"[-0.3685185185185185, -0.3685185185185185, -0.3685185185185185, -0.3685185185185185, -0.3685185185185185, -0.3685185185185185, -0.3685185185185185, -0.3685185185185185, -0.3685185185185185]"	"[1, 1, 1, 1, 1, 1, 1, 1, 0]"	"[0, 0, 0, 0, 0, 0, 0, 0, 0]"	"[0, 0, 0, 0, 0, 0, 0, 0, 1]"	"[0.3422344999999041, 0.5588976999999886, 0.7588432999998531, 0.9421901999999136, 1.116902600000003, 1.275023999999803, 1.4501255999998648, 1.9503379999998742, 2.916880199999923]"	9	"[0.3389741999999387, 0.5556280999999217, 0.7556268000000728, 0.9390206000000489, 1.113582899999983, 1.2649956000000202, 1.4467878000000383, 1.9470103000001018, 2.9134828999999627]"	"[0.5052668000000722, 0.6799275999999281, 0.8633082999999715, 1.0235271999999895, 1.1799833000000035, 1.329982100000052, 1.5049822000000859, 2.063419300000078, 2.9134873000000425]"	76.8697374000001	76.8755257	78.3677420000001	78.3802787000002	NA	NA	NA	NA	NA	NA	NA	30	"01"	"2024-02-21_09h11.53.942"	"BART_exp"	"2023.2.3"	119.922050666963	"2024-02-21 09h12.04.935450 +0100"	NA
"balloon.png"	84	0	10	10	19	78.3802787000002	NA	NA	NA	NA	NA	NA	NA	NA	NA	NA	NA	NA	78.3679531	78.3802787000002	78.3802787000002	78.3802787000002	78.3802787000002	78.3802787000002	-0.00024080000002868	-0.00024080000002868	-0.00024080000002868	78.3802787000002	81.4697511000002	9	0.45	FALSE	"[-0.037037037037037035, -0.037037037037037035, -0.037037037037037035, -0.037037037037037035, -0.037037037037037035, -0.037037037037037035, -0.037037037037037035, -0.037037037037037035, -0.037037037037037035, -0.037037037037037035]"	"[-0.3685185185185185, -0.3685185185185185, -0.3685185185185185, -0.3685185185185185, -0.3685185185185185, -0.3685185185185185, -0.3685185185185185, -0.3685185185185185, -0.3685185185185185, -0.3685185185185185]"	"[1, 1, 1, 1, 1, 1, 1, 1, 1, 0]"	"[0, 0, 0, 0, 0, 0, 0, 0, 0, 0]"	"[0, 0, 0, 0, 0, 0, 0, 0, 0, 1]"	"[0.7002907999999479, 0.9420195000000149, 1.1504201000000194, 1.3586883999998918, 1.5419514000000163, 1.708793900000046, 1.8751589999999396, 2.0419263999999657, 2.55052569999998, 3.100611699999945]"	10	"[0.6937583000001268, 0.935485700000072, 1.1438998000000993, 1.3521685000000616, 1.5354081000000406, 1.7022621000000981, 1.8686285999999654, 2.035395600000129, 2.544006099999933, 3.094039900000098]"	"[0.8184332999999242, 1.0435024999999314, 1.251798400000098, 1.42820370000004, 1.593571699999984, 1.7684802000001127, 1.9450683000000026, 2.10186560000011, 2.6437144999999873, 3.094044500000109]"	81.4705463	81.4757824000001	82.9684904000001	82.9790977	NA	NA	NA	NA	NA	NA	NA	30	"01"	"2024-02-21_09h11.53.942"	"BART_exp"	"2023.2.3"	119.922050666963	"2024-02-21 09h12.04.935450 +0100"	NA
"balloon.png"	62	0	11	11	14	82.9790977	NA	NA	NA	NA	NA	NA	NA	NA	NA	NA	NA	NA	82.9688822000001	82.9790977	82.9790977	82.9790977	82.9790977	82.9790977	-1.87000000551052e-05	-1.87000000551052e-05	-1.87000000551052e-05	82.9790977	85.1114496	5	0.25	FALSE	"[-0.037037037037037035, -0.037037037037037035, -0.037037037037037035, -0.037037037037037035, -0.037037037037037035, -0.037037037037037035]"	"[-0.3685185185185185, -0.3685185185185185, -0.3685185185185185, -0.3685185185185185, -0.3685185185185185, -0.3685185185185185]"	"[1, 1, 1, 1, 1, 0]"	"[0, 0, 0, 0, 0, 0]"	"[0, 0, 0, 0, 0, 1]"	"[0.3743633999999929, 0.557942500000081, 0.916424300000017, 1.0996938000000682, 1.6497223000001213, 2.1413324000000102]"	6	"[0.3693697000001066, 0.5529569000000265, 0.9115977999999814, 1.0947544000000562, 1.6448173000001134, 2.136278100000027]"	"[0.4778240000000551, 0.8277943000000505, 1.0277298000000883, 1.212108599999965, 1.752840200000037, 2.136282299999948]"	85.1122563000001	85.1178964000001	86.6100322	86.6195632000001	NA	NA	NA	NA	NA	NA	NA	30	"01"	"2024-02-21_09h11.53.942"	"BART_exp"	"2023.2.3"	119.922050666963	"2024-02-21 09h12.04.935450 +0100"	NA
"balloon.png"	123	0	12	12	28	86.6195632000001	NA	NA	NA	NA	NA	NA	NA	NA	NA	NA	NA	NA	86.6102696	86.6195632000001	86.6195632000001	86.6195632000001	86.6195632000001	86.6195632000001	-0.00047489999997196	-0.00047489999997196	-0.00047489999997196	86.6195632000001	88.6364160000001	6	0.3	FALSE	"[-0.037037037037037035, -0.037037037037037035, -0.037037037037037035, -0.037037037037037035, -0.037037037037037035, -0.037037037037037035, -0.037037037037037035]"	"[-0.3685185185185185, -0.3685185185185185, -0.3685185185185185, -0.3685185185185185, -0.3685185185185185, -0.3685185185185185, -0.3685185185185185]"	"[1, 1, 1, 1, 1, 1, 0]"	"[0, 0, 0, 0, 0, 0, 0]"	"[0, 0, 0, 0, 0, 0, 1]"	"[0.5169369000000188, 0.7433786000001419, 1.0083741999999347, 1.2502827000000707, 1.4670604000000367, 1.6670627999999397, 2.0250906999999643]"	7	"[0.5128932999998597, 0.7394990999998754, 1.0043072999999367, 1.2462289999998575, 1.463025000000016, 1.6630256999999347, 2.0209626999999273]"	"[0.6541250000000218, 0.887469499999952, 1.1291956000000027, 1.3626380999999128, 1.5626788999998098, 1.7877536999999393, 2.0209672999999384]"	88.6371512000001	88.6430334000001	90.135248	90.1493009000001	NA	NA	NA	NA	NA	NA	NA	30	"01"	"2024-02-21_09h11.53.942"	"BART_exp"	"2023.2.3"	119.922050666963	"2024-02-21 09h12.04.935450 +0100"	NA
"balloon.png"	57	0	13	13	13	90.1493009000001	NA	NA	NA	NA	NA	NA	NA	NA	NA	NA	NA	NA	90.1354755	90.1493009000001	90.1493009000001	90.1493009000001	90.1493009000001	90.1493009000001	-0.00017320000006293	-0.00017320000006293	-0.00017320000006293	90.1493009000001	94.5368762	7	0.35	FALSE	"[-0.037037037037037035, -0.037037037037037035, -0.037037037037037035, -0.037037037037037035, -0.037037037037037035, -0.037037037037037035, -0.037037037037037035, -0.037037037037037035]"	"[-0.3685185185185185, -0.3685185185185185, -0.3685185185185185, -0.3685185185185185, -0.3685185185185185, -0.3685185185185185, -0.3685185185185185, -0.3685185185185185]"	"[1, 1, 1, 1, 1, 1, 1, 0]"	"[0, 0, 0, 0, 0, 0, 0, 0]"	"[0, 0, 0, 0, 0, 0, 0, 1]"	"[0.3753405999998449, 0.6166826999999557, 0.8420298999999432, 1.0500818000000436, 2.200145799999973, 2.933734799999911, 3.9505291999998917, 4.400327599999855]"	8	"[0.3667416000000685, 0.6080598999999438, 0.8334073999999418, 1.0414573999998993, 2.191529599999967, 2.9251328000000285, 3.9419333000000734, 4.391643499999873]"	"[0.49138139999990926, 0.7246622000000116, 0.933412399999952, 1.1414288000000852, 2.3335027000000537, 3.0414937000000464, 4.066496200000074, 4.391647799999873]"	94.5376036	94.5433378	96.0356525	96.0497509000002	NA	NA	NA	NA	NA	NA	NA	30	"01"	"2024-02-21_09h11.53.942"	"BART_exp"	"2023.2.3"	119.922050666963	"2024-02-21 09h12.04.935450 +0100"	NA
"balloon.png"	127	0	14	14	29	96.0497509000002	NA	NA	NA	NA	NA	NA	NA	NA	NA	NA	NA	NA	96.0358696000001	96.0497509000002	96.0497509000002	96.0497509000002	96.0497509000002	96.0497509000002	-0.00025219999997716	-0.00025219999997716	-0.00025219999997716	96.0497509000002	98.1954491000001	6	0.3	FALSE	"[-0.037037037037037035, -0.037037037037037035, -0.037037037037037035, -0.037037037037037035, -0.037037037037037035, -0.037037037037037035, -0.037037037037037035]"	"[-0.3685185185185185, -0.3685185185185185, -0.3685185185185185, -0.3685185185185185, -0.3685185185185185, -0.3685185185185185, -0.3685185185185185]"	"[1, 1, 1, 1, 1, 1, 0]"	"[0, 0, 0, 0, 0, 0, 0]"	"[0, 0, 0, 0, 0, 0, 1]"	"[0.4917156999999861, 0.9667976000000635, 1.1919566000001396, 1.383537300000171, 1.5751027999999678, 1.7169585999999981, 2.158512700000074]"	7	"[0.48311199999989185, 0.9581980000000385, 1.1833606999998665, 1.374943599999824, 1.5665014999999585, 1.7083549999999832, 2.149853799999846]"	"[0.6247298999999202, 1.0580949999998666, 1.2415058999999928, 1.4664602000000286, 1.6330794000000424, 1.7998152000000118, 2.1498580999998467]"	98.1962194	98.202023	99.6942769	99.7120797	NA	NA	NA	NA	NA	NA	NA	30	"01"	"2024-02-21_09h11.53.942"	"BART_exp"	"2023.2.3"	119.922050666963	"2024-02-21 09h12.04.935450 +0100"	NA
"balloon.png"	88	0	15	15	20	99.7120797	NA	NA	NA	NA	NA	NA	NA	NA	NA	NA	NA	NA	99.6944945	99.7120797	99.7120797	99.7120797	99.7120797	99.7120797	-0.00024210000015045	-0.00024210000015045	-0.00024210000015045	99.7120797	102.1790507	6	0.3	FALSE	"[-0.037037037037037035, -0.037037037037037035, -0.037037037037037035, -0.037037037037037035, -0.037037037037037035, -0.037037037037037035, -0.037037037037037035]"	"[-0.3685185185185185, -0.3685185185185185, -0.3685185185185185, -0.3685185185185185, -0.3685185185185185, -0.3685185185185185, -0.3685185185185185]"	"[1, 1, 1, 1, 1, 1, 0]"	"[0, 0, 0, 0, 0, 0, 0]"	"[0, 0, 0, 0, 0, 0, 1]"	"[0.3502395999998953, 0.766858799999909, 0.983666299999868, 1.1669236000000183, 1.366873399999804, 1.9921272999999928, 2.4834704999998394]"	7	"[0.3407015999998748, 0.7573052999998708, 0.9741334999998799, 1.1573730000000069, 1.3573322999998254, 1.9827084999999443, 2.4738499000000047]"	"[0.5990997999999763, 0.8736760999997841, 1.0490275999998175, 1.2403417999998965, 1.4736967999999706, 2.099014699999998, 2.473854099999926]"	102.1797849	102.1855754	103.6778961	103.6890793	NA	NA	NA	NA	NA	NA	NA	30	"01"	"2024-02-21_09h11.53.942"	"BART_exp"	"2023.2.3"	119.922050666963	"2024-02-21 09h12.04.935450 +0100"	NA
"balloon.png"	44	0	16	16	10	103.6890793	NA	NA	NA	NA	NA	NA	NA	NA	NA	NA	NA	NA	103.6781247	103.6890793	103.6890793	103.6890793	103.6890793	103.6890793	-0.00020670000003519	-0.00020670000003519	-0.00020670000003519	103.6890793	106.237874	8	0.4	FALSE	"[-0.037037037037037035, -0.037037037037037035, -0.037037037037037035, -0.037037037037037035, -0.037037037037037035, -0.037037037037037035, -0.037037037037037035, -0.037037037037037035, -0.037037037037037035]"	"[-0.3685185185185185, -0.3685185185185185, -0.3685185185185185, -0.3685185185185185, -0.3685185185185185, -0.3685185185185185, -0.3685185185185185, -0.3685185185185185, -0.3685185185185185]"	"[1, 1, 1, 1, 1, 1, 1, 1, 0]"	"[0, 0, 0, 0, 0, 0, 0, 0, 0]"	"[0, 0, 0, 0, 0, 0, 0, 0, 1]"	"[0.29259159999992335, 0.5417347999998583, 0.7835925999997926, 1.010288699999819, 1.217042599999786, 1.4085779999998067, 1.6168811000000005, 2.0584086999999727, 2.5586704999998346]"	9	"[0.2870570999998563, 0.5359739999998965, 0.7778473999999278, 1.0047027999999045, 1.2112976999999319, 1.4028191999998398, 1.6111283000000185, 2.052644399999963, 2.5528503999998975]"	"[0.4441082999999253, 0.6608443999998599, 0.8942211999999472, 1.0857356999999865, 1.294293899999957, 1.4857591999998476, 1.7192145999999866, 2.194278899999972, 2.5528549000000567]"	106.2387114	106.244168	107.736673	107.7508604	NA	NA	NA	NA	NA	NA	NA	30	"01"	"2024-02-21_09h11.53.942"	"BART_exp"	"2023.2.3"	119.922050666963	"2024-02-21 09h12.04.935450 +0100"	NA
"balloon.png"	79	0	17	17	18	107.7508604	NA	NA	NA	NA	NA	NA	NA	NA	NA	NA	NA	NA	107.7369212	107.7508604	107.7508604	107.7508604	107.7508604	107.7508604	0.00066749999996318	0.00066749999996318	0.00066749999996318	107.7508604	110.5588635	10	0.5	FALSE	"[-0.037037037037037035, -0.037037037037037035, -0.037037037037037035, -0.037037037037037035, -0.037037037037037035, -0.037037037037037035, -0.037037037037037035, -0.037037037037037035, -0.037037037037037035, -0.037037037037037035]"	"[-0.3685185185185185, -0.3685185185185185, -0.3685185185185185, -0.3685185185185185, -0.3685185185185185, -0.3685185185185185, -0.3685185185185185, -0.3685185185185185, -0.3685185185185185, -0.3685185185185185]"	"[1, 1, 1, 1, 1, 1, 1, 1, 1, 0]"	"[0, 0, 0, 0, 0, 0, 0, 0, 0, 0]"	"[0, 0, 0, 0, 0, 0, 0, 0, 0, 1]"	"[0.2997275999998692, 0.5351619999999002, 0.7439445999998497, 0.9373255999998946, 1.116732299999967, 1.3252496000000065, 1.4943091000000095, 1.673100199999908, 2.3196949000000586, 2.820436799999925]"	10	"[0.292549599999802, 0.5279972999999245, 0.7368961999998191, 0.9301467999998749, 1.1095479999999043, 1.3180856999999833, 1.4871252999998887, 1.666108599999916, 2.312759099999994, 2.813196199999993]"	"[0.41750329999990754, 0.6255729999998039, 0.8197063000000071, 1.0039438999999675, 1.2017207999999755, 1.417811699999902, 1.595276899999817, 1.7677620999997998, 2.4073587999998836, 2.813200699999925]"	110.5603277	110.5663987	112.0615375	NA	NA	NA	NA	NA	NA	NA	NA	30	"01"	"2024-02-21_09h11.53.942"	"BART_exp"	"2023.2.3"	119.922050666963	"2024-02-21 09h12.04.935450 +0100"	NA
"balloon.png"	49	0	18	18	11	112.0794161	NA	NA	NA	NA	NA	NA	NA	NA	NA	NA	NA	NA	112.0617623	112.0794161	112.0794161	112.0794161	112.0794161	112.0794161	0.0034570000000258	0.0034570000000258	0.0034570000000258	112.0794161	114.3552572	5	0.25	FALSE	"[-0.037037037037037035, -0.037037037037037035, -0.037037037037037035, -0.037037037037037035, -0.037037037037037035, -0.037037037037037035]"	"[-0.3685185185185185, -0.3685185185185185, -0.3685185185185185, -0.3685185185185185, -0.3685185185185185, -0.3685185185185185]"	"[1, 1, 1, 1, 1, 0]"	"[0, 0, 0, 0, 0, 0]"	"[0, 0, 0, 0, 0, 1]"	"[0.575672399999803, 0.7873222999999143, 0.9936996999999792, 1.1890003999999408, 1.3670955999998569, 2.2922790999998597]"	6	"[0.5634943999998541, 0.7751672999997936, 0.9815870999998424, 1.176799899999878, 1.3548699999998917, 2.280004199999894]"	"[0.6785608999998658, 0.8997334999999111, 1.104971199999909, 1.2796690000000126, 1.4544859000000088, 2.280011800000011]"	114.3561054	114.3614014	115.8538671	115.8700789	NA	NA	NA	NA	NA	NA	NA	30	"01"	"2024-02-21_09h11.53.942"	"BART_exp"	"2023.2.3"	119.922050666963	"2024-02-21 09h12.04.935450 +0100"	NA
"balloon.png"	114	0	19	19	26	115.8700789	NA	NA	NA	NA	NA	NA	NA	NA	NA	NA	NA	NA	115.854137	115.8700789	115.8700789	115.8700789	115.8700789	115.8700789	-0.00039140000012594	-0.00039140000012594	-0.00039140000012594	115.8700789	118.5332214	9	0.45	FALSE	"[-0.046296296296296294, -0.046296296296296294, -0.046296296296296294, -0.046296296296296294, -0.046296296296296294, -0.046296296296296294, -0.046296296296296294, -0.046296296296296294, -0.046296296296296294, -0.046296296296296294]"	"[-0.3768518518518518, -0.3768518518518518, -0.3768518518518518, -0.3768518518518518, -0.3768518518518518, -0.3768518518518518, -0.3768518518518518, -0.3768518518518518, -0.3768518518518518, -0.3768518518518518]"	"[1, 1, 1, 1, 1, 1, 1, 1, 1, 0]"	"[0, 0, 0, 0, 0, 0, 0, 0, 0, 0]"	"[0, 0, 0, 0, 0, 0, 0, 0, 0, 1]"	"[0.624990999999909, 0.8860924999999042, 1.1092217000000346, 1.3453299999998762, 1.5771283999999923, 1.7970413999998982, 2.0298992000000453, 2.2072524000000158, 2.376379699999916, 2.6777380000000903]"	10	"[0.6146935000001577, 0.8758086000000276, 1.0989062000001013, 1.3350211000001764, 1.5668317000001935, 1.786809200000107, 2.019715099999985, 2.197068000000172, 2.3662495000000945, 2.6674466000001757]"	"[0.7728374000000713, 0.9853358000000298, 1.2247656000001825, 1.4580024000001686, 1.6910897000000205, 1.9010949000000892, 2.122596200000089, 2.3146150000000034, 2.4895920999999817, 2.6674531000001025]"	118.5346383	118.5425468	120.0373067	NA	NA	NA	NA	NA	NA	NA	NA	30	"01"	"2024-02-21_09h11.53.942"	"BART_exp"	"2023.2.3"	119.922050666963	"2024-02-21 09h12.04.935450 +0100"	NA
"balloon.png"	118	0	20	20	27	120.0730123	NA	NA	NA	NA	NA	NA	NA	NA	NA	NA	NA	NA	120.0376974	120.0730123	120.0730123	120.0730123	120.0730123	120.0730123	0.00660020000009353	0.00660020000009353	0.00660020000009353	120.0730123	124.6146052	9	0.45	FALSE	"[-0.046296296296296294, -0.046296296296296294, -0.046296296296296294, -0.046296296296296294, -0.046296296296296294, -0.046296296296296294, -0.046296296296296294, -0.046296296296296294, -0.046296296296296294, -0.046296296296296294]"	"[-0.3768518518518518, -0.3768518518518518, -0.3768518518518518, -0.3768518518518518, -0.3768518518518518, -0.3768518518518518, -0.3768518518518518, -0.3768518518518518, -0.3768518518518518, -0.3768518518518518]"	"[1, 1, 1, 1, 1, 1, 1, 1, 1, 0]"	"[0, 0, 0, 0, 0, 0, 0, 0, 0, 0]"	"[0, 0, 0, 0, 0, 0, 0, 0, 0, 1]"	"[2.0480684999999994, 2.741870800000015, 2.944450199999892, 3.158863899999915, 3.377163699999983, 3.5990650999999616, 3.775918099999899, 3.9585010000000693, 4.207619000000022, 4.574437100000068]"	10	"[2.0233209000000443, 2.716946800000187, 2.919628800000055, 3.1340630000001966, 3.3523357000001397, 3.574275400000033, 3.7510838000000604, 3.9339512000001378, 4.183155100000022, 4.549447699999973]"	"[2.17850169999997, 2.8324150000000827, 3.032278099999985, 3.2219168000001446, 3.439602100000002, 3.6490885000000617, 3.8598868000001403, 4.057361200000059, 4.290459700000156, 4.5494522000001325]"	124.6154737	124.6205551	126.1127889	126.1294671	NA	NA	NA	NA	NA	NA	NA	30	"01"	"2024-02-21_09h11.53.942"	"BART_exp"	"2023.2.3"	119.922050666963	"2024-02-21 09h12.04.935450 +0100"	NA
"balloon.png"	97	0	21	21	22	126.1294671	NA	NA	NA	NA	NA	NA	NA	NA	NA	NA	NA	NA	126.1130174	126.1294671	126.1294671	126.1294671	126.1294671	126.1294671	-0.00094950000016069	-0.00094950000016069	-0.00094950000016069	126.1294671	128.7350147	9	0.45	FALSE	"[-0.046296296296296294, -0.046296296296296294, -0.046296296296296294, -0.046296296296296294, -0.046296296296296294, -0.046296296296296294, -0.046296296296296294, -0.046296296296296294, -0.046296296296296294, -0.046296296296296294]"	"[-0.3768518518518518, -0.3768518518518518, -0.3768518518518518, -0.3768518518518518, -0.3768518518518518, -0.3768518518518518, -0.3768518518518518, -0.3768518518518518, -0.3768518518518518, -0.3768518518518518]"	"[1, 1, 1, 1, 1, 1, 1, 1, 1, 0]"	"[0, 0, 0, 0, 0, 0, 0, 0, 0, 0]"	"[0, 0, 0, 0, 0, 0, 0, 0, 0, 1]"	"[0.3023547000000235, 0.5337306000001263, 0.7673091999999997, 1.000470899999982, 1.2338583000000654, 1.4416949999999815, 1.6354964000001928, 1.8283673000000817, 2.0190590000001976, 2.62061830000016]"	10	"[0.29123219999996763, 0.5225026999999045, 0.7560882999998739, 0.9892288999999437, 1.2226192999999057, 1.4304436999998416, 1.6243200999999772, 1.8173002999999426, 2.008103199999823, 2.609413399999994]"	"[0.44699339999988297, 0.65565289999995, 0.863736499999959, 1.0892147999998087, 1.3224903999998787, 1.5393784999998843, 1.7327591999999186, 1.9160635999999158, 2.121436899999935, 2.6094223000000056]"	128.7367505	128.7395067	130.2316237	130.2407517	NA	NA	NA	NA	NA	NA	NA	30	"01"	"2024-02-21_09h11.53.942"	"BART_exp"	"2023.2.3"	119.922050666963	"2024-02-21 09h12.04.935450 +0100"	NA
"balloon.png"	27	0	22	22	6	130.2407517	NA	NA	NA	NA	NA	NA	NA	NA	NA	NA	NA	NA	130.2320768	130.2407517	130.2407517	130.2407517	130.2407517	130.2407517	0.00407549999999901	0.00407549999999901	0.00407549999999901	130.2407517	132.0146454	5	0.25	FALSE	"[-0.046296296296296294, -0.046296296296296294, -0.046296296296296294, -0.046296296296296294, -0.046296296296296294, -0.046296296296296294]"	"[-0.3768518518518518, -0.3768518518518518, -0.3768518518518518, -0.3768518518518518, -0.3768518518518518, -0.3768518518518518]"	"[1, 1, 1, 1, 1, 0]"	"[0, 0, 0, 0, 0, 0]"	"[0, 0, 0, 0, 0, 1]"	"[0.5301872000000003, 0.7304037999999764, 0.9302275000000009, 1.0887089000000287, 1.246932999999899, 1.78050589999998]"	6	"[0.527846800000134, 0.7280677000001106, 0.927907500000174, 1.0863969000001816, 1.2445975000000544, 1.7781031000001803]"	"[0.6276785000000018, 0.8362045000001217, 1.002908400000024, 1.1777951999999914, 1.3529671999999664, 1.7781074000001809]"	132.0153438	132.0209894	133.5133243	133.5293488	NA	NA	NA	NA	NA	NA	NA	30	"01"	"2024-02-21_09h11.53.942"	"BART_exp"	"2023.2.3"	119.922050666963	"2024-02-21 09h12.04.935450 +0100"	NA
"balloon.png"	1	0	23	23	0	133.5293488	NA	NA	NA	NA	NA	NA	NA	NA	NA	NA	NA	NA	133.5135427	133.5293488	133.5293488	133.5293488	133.5293488	133.5293488	-0.00028689999999187	-0.00028689999999187	-0.00028689999999187	133.5293488	134.173742	2	0.05	TRUE	"[-0.046296296296296294, -0.046296296296296294]"	"[-0.3768518518518518, -0.3768518518518518]"	"[1, 1]"	"[0, 0]"	"[0, 0]"	"[0.3169797999998991, 0.5501550999999836]"	2	"[0.30646520000004784, 0.5396150000001398]"	"[0.42269439999995484, 0.6393259999999827]"	134.1743532	134.1794215	135.6718246	135.6892169	NA	NA	NA	NA	NA	NA	NA	30	"01"	"2024-02-21_09h11.53.942"	"BART_exp"	"2023.2.3"	119.922050666963	"2024-02-21 09h12.04.935450 +0100"	NA
"balloon.png"	110	0	24	24	25	135.6892169	NA	NA	NA	NA	NA	NA	NA	NA	NA	NA	NA	NA	135.6720338	135.6892169	135.6892169	135.6892169	135.6892169	135.6892169	-0.00075459999993654	-0.00075459999993654	-0.00075459999993654	135.6892169	138.7233416	6	0.3	FALSE	"[-0.046296296296296294, -0.046296296296296294, -0.046296296296296294, -0.046296296296296294, -0.046296296296296294, -0.046296296296296294, -0.046296296296296294]"	"[-0.3768518518518518, -0.3768518518518518, -0.3768518518518518, -0.3768518518518518, -0.3768518518518518, -0.3768518518518518, -0.3768518518518518]"	"[1, 1, 1, 1, 1, 1, 0]"	"[0, 0, 0, 0, 0, 0, 0]"	"[0, 0, 0, 0, 0, 0, 1]"	"[0.7418367999998736, 0.9418656000000283, 1.2916837999998734, 1.7505912999999964, 2.2167910000000575, 2.68363260000001, 3.0501480000000356]"	7	"[0.7298723000001246, 0.9298928000000615, 1.2797096000001602, 1.7388218000000961, 2.2048520000000735, 2.6717111000000386, 3.038115600000083]"	"[0.8385087000001477, 1.0962561000001187, 1.4629448000000593, 1.8796314999999595, 2.338043200000129, 2.821371900000031, 3.038119800000004]"	138.7243773	138.7297608	140.2236564	140.239081	NA	NA	NA	NA	NA	NA	NA	30	"01"	"2024-02-21_09h11.53.942"	"BART_exp"	"2023.2.3"	119.922050666963	"2024-02-21 09h12.04.935450 +0100"	NA
"balloon.png"	40	0	25	25	9	140.239081	NA	NA	NA	NA	NA	NA	NA	NA	NA	NA	NA	NA	140.2239299	140.239081	140.239081	140.239081	140.239081	140.239081	0.00207879999993565	0.00207879999993565	0.00207879999993565	140.239081	142.6237809	7	0.35	FALSE	"[-0.046296296296296294, -0.046296296296296294, -0.046296296296296294, -0.046296296296296294, -0.046296296296296294, -0.046296296296296294, -0.046296296296296294, -0.046296296296296294]"	"[-0.3768518518518518, -0.3768518518518518, -0.3768518518518518, -0.3768518518518518, -0.3768518518518518, -0.3768518518518518, -0.3768518518518518, -0.3768518518518518]"	"[1, 1, 1, 1, 1, 1, 1, 0]"	"[0, 0, 0, 0, 0, 0, 0, 0]"	"[0, 0, 0, 0, 0, 0, 0, 1]"	"[0.33152180000001863, 0.6400175999999647, 0.923267800000076, 1.165197600000056, 1.4068529000001035, 1.640208199999961, 1.8983825000000252, 2.3985806000000593]"	7	"[0.6300994999999148, 0.9133478000001105, 1.1552874999999858, 1.3969374999999218, 1.6302978000001076, 1.8884588000000804, 2.3886110999999346]"	"[0.7966294000000289, 1.0382939999999508, 1.279993000000104, 1.5133058999999776, 1.746676799999932, 2.00678199999993, 2.388615399999935]"	142.6245639	142.630055	144.1223263	144.1388901	NA	NA	NA	NA	NA	NA	NA	30	"01"	"2024-02-21_09h11.53.942"	"BART_exp"	"2023.2.3"	119.922050666963	"2024-02-21 09h12.04.935450 +0100"	NA
"balloon.png"	53	0	26	26	12	144.1388901	NA	NA	NA	NA	NA	NA	NA	NA	NA	NA	NA	NA	144.1225421	144.1388901	144.1388901	144.1388901	144.1388901	144.1388901	-0.00050459999988561	-0.00050459999988561	-0.00050459999988561	144.1388901	147.9155366	7	0.35	FALSE	"[-0.046296296296296294, -0.046296296296296294, -0.046296296296296294, -0.046296296296296294, -0.046296296296296294, -0.046296296296296294, -0.046296296296296294, -0.046296296296296294]"	"[-0.3768518518518518, -0.3768518518518518, -0.3768518518518518, -0.3768518518518518, -0.3768518518518518, -0.3768518518518518, -0.3768518518518518, -0.3768518518518518]"	"[1, 1, 1, 1, 1, 1, 1, 0]"	"[0, 0, 0, 0, 0, 0, 0, 0]"	"[0, 0, 0, 0, 0, 0, 0, 1]"	"[0.3333657000000585, 1.7421699999999873, 2.000117100000125, 2.2355047999999442, 2.4756130000000667, 2.9918153000000984, 3.2085056999999324, 3.7918879000001198]"	8	"[0.32216699999980847, 1.7309832999999344, 1.9889174999998431, 2.2243091000000277, 2.4645722000000205, 2.980656199999885, 3.1973392999998396, 3.780630199999905]"	"[1.4974708999998256, 1.93126929999994, 2.1640253999999004, 2.3888741999999183, 2.6555120999998962, 3.1472232999999505, 3.355603799999926, 3.7806344999999055]"	147.9164866	147.9221358	149.4159659	149.4294905	NA	NA	NA	NA	NA	NA	NA	30	"01"	"2024-02-21_09h11.53.942"	"BART_exp"	"2023.2.3"	119.922050666963	"2024-02-21 09h12.04.935450 +0100"	NA
"balloon.png"	18	0	27	27	4	149.4294905	NA	NA	NA	NA	NA	NA	NA	NA	NA	NA	NA	NA	149.4162219	149.4294905	149.4294905	149.4294905	149.4294905	149.4294905	0.00181160000011004	0.00181160000011004	0.00181160000011004	149.4294905	152.1412501	6	0.3	FALSE	"[-0.046296296296296294, -0.046296296296296294, -0.046296296296296294, -0.046296296296296294, -0.046296296296296294, -0.046296296296296294, -0.046296296296296294]"	"[-0.3768518518518518, -0.3768518518518518, -0.3768518518518518, -0.3768518518518518, -0.3768518518518518, -0.3768518518518518, -0.3768518518518518]"	"[1, 1, 1, 1, 1, 1, 0]"	"[0, 0, 0, 0, 0, 0, 0]"	"[0, 0, 0, 0, 0, 0, 1]"	"[0.2983102000000599, 0.9568214999999327, 1.1985055999998622, 1.4401225999999951, 2.0568659999999, 2.265061299999843, 2.723799099999951]"	7	"[0.2903182000000015, 0.9488433000001351, 1.1905117000001155, 1.4321330000000216, 2.0488718000001427, 2.2570685000000594, 2.7157658000000993]"	"[0.8818825000000743, 1.1152875000000222, 1.3403003000000808, 1.5903253999999833, 2.157086000000163, 2.3654723000001923, 2.715770200000179]"	152.1420343	152.1473452	153.6401181	153.64911	NA	NA	NA	NA	NA	NA	NA	30	"01"	"2024-02-21_09h11.53.942"	"BART_exp"	"2023.2.3"	119.922050666963	"2024-02-21 09h12.04.935450 +0100"	NA
"balloon.png"	31	0	28	28	7	153.64911	NA	NA	NA	NA	NA	NA	NA	NA	NA	NA	NA	NA	153.6403383	153.64911	153.64911	153.64911	153.64911	153.64911	-4.31999999364052e-05	-4.31999999364052e-05	-4.31999999364052e-05	153.64911	155.5418612	6	0.3	FALSE	"[-0.046296296296296294, -0.046296296296296294, -0.046296296296296294, -0.046296296296296294, -0.046296296296296294, -0.046296296296296294, -0.046296296296296294]"	"[-0.3768518518518518, -0.3768518518518518, -0.3768518518518518, -0.3768518518518518, -0.3768518518518518, -0.3768518518518518, -0.3768518518518518]"	"[1, 1, 1, 1, 1, 1, 0]"	"[0, 0, 0, 0, 0, 0, 0]"	"[0, 0, 0, 0, 0, 0, 1]"	"[0.2911471999998412, 0.5002348000000438, 0.7080380999998397, 0.9247272000000066, 1.1247349000000213, 1.3081167999998797, 1.900089699999853]"	7	"[0.27996889999985797, 0.49676660000000084, 0.7045619000000443, 0.9212313999998969, 1.1212459000000763, 1.3046649999998863, 1.8966460999999981]"	"[0.4296729999998661, 0.6376118999999107, 0.8376031999998759, 1.0296045999998569, 1.212890199999947, 1.379564000000073, 1.8966527000000042]"	155.5426762	155.5476617	157.0398719	157.0494966	NA	NA	NA	NA	NA	NA	NA	30	"01"	"2024-02-21_09h11.53.942"	"BART_exp"	"2023.2.3"	119.922050666963	"2024-02-21 09h12.04.935450 +0100"	NA
"balloon.png"	71	0	29	29	16	157.0494966	NA	NA	NA	NA	NA	NA	NA	NA	NA	NA	NA	NA	157.0400854	157.0494966	157.0494966	157.0494966	157.0494966	157.0494966	-0.00078490000009878	-0.00078490000009878	-0.00078490000009878	157.0494966	158.8166144	6	0.3	FALSE	"[-0.046296296296296294, -0.046296296296296294, -0.046296296296296294, -0.046296296296296294, -0.046296296296296294, -0.046296296296296294, -0.046296296296296294]"	"[-0.3768518518518518, -0.3768518518518518, -0.3768518518518518, -0.3768518518518518, -0.3768518518518518, -0.3768518518518518, -0.3768518518518518]"	"[1, 1, 1, 1, 1, 1, 0]"	"[0, 0, 0, 0, 0, 0, 0]"	"[0, 0, 0, 0, 0, 0, 1]"	"[0.07504930000004606, 0.30016710000018065, 0.5168064000001777, 0.7335811000000376, 0.9419099000001552, 1.2920062000000598, 1.775394500000175]"	7	"[0.07093959999997423, 0.29611660000000484, 0.5127078000000438, 0.7294853999999305, 0.9378077999999732, 1.2879189000000224, 1.771242999999913]"	"[0.2290574999999535, 0.43749559999992016, 0.6292074000000412, 0.8208845999999994, 1.0626385000000482, 1.404311000000007, 1.7712470999999823]"	158.8173601	158.8228508	160.3151112	160.3231372	NA	NA	NA	NA	NA	NA	NA	30	"01"	"2024-02-21_09h11.53.942"	"BART_exp"	"2023.2.3"	119.922050666963	"2024-02-21 09h12.04.935450 +0100"	NA
NA	NA	NA	NA	NA	NA	NA	NA	NA	NA	NA	NA	NA	NA	NA	NA	NA	NA	NA	NA	NA	NA	NA	NA	NA	NA	NA	NA	NA	NA	NA	NA	NA	NA	NA	NA	NA	NA	NA	NA	NA	NA	NA	NA	NA	NA	160.3151514	160.3231372	160.3231372	175.7247412	"space"	15.4005157000001	"None"	30	"01"	"2024-02-21_09h11.53.942"	"BART_exp"	"2023.2.3"	119.922050666963	"2024-02-21 09h12.04.935450 +0100"	NA
