"diceImage"	"d_number"	"dice_loop.thisRepN"	"dice_loop.thisTrialN"	"dice_loop.thisN"	"dice_loop.thisIndex"	"thisRow.t"	"notes"	"Start.started"	"text_start.started"	"continue_start.started"	"mouse_start.started"	"Start.stopped"	"mouse_start.x"	"mouse_start.y"	"mouse_start.leftButton"	"mouse_start.midButton"	"mouse_start.rightButton"	"mouse_start.time"	"trial.started"	"box_dice.started"	"text_dice_header.started"	"text_gain.started"	"value_gain.started"	"text_bank.started"	"value_bank.started"	"img_dice_1.started"	"img_dice_2.started"	"img_dice_3.started"	"img_dice_4.started"	"img_dice_5.started"	"img_dice_6.started"	"img_dice_1_2.started"	"img_dice_3_4.started"	"img_dice_5_6.started"	"img_dice_1_2_3.started"	"img_dice_4_5_6.started"	"img_dice_1_2_3_4.started"	"img_dice_2_3_4_5.started"	"img_dice_3_4_5_6.started"	"text_value_header.started"	"text_value_1000.started"	"text_value_500.started"	"text_value_200.started"	"text_value_100.started"	"mouse_task.started"	"gain_sound.started"	"img_dice_throw_trials.started"	"gain_sound.stopped"	"img_dice_throw_trials.stopped"	"trial.stopped"	"mouse_task.x"	"mouse_task.y"	"mouse_task.leftButton"	"mouse_task.midButton"	"mouse_task.rightButton"	"mouse_task.time"	"choice"	"gain"	"loss_sound.started"	"End.started"	"text_end.started"	"key_end.started"	"End.stopped"	"key_end.keys"	"key_end.rt"	"key_end.duration"	"participant"	"session"	"date"	"expName"	"psychopyVersion"	"frameRate"	"expStart"	"...75"
NA	NA	NA	NA	NA	NA	NA	NA	0.0384343000041554	0.0446865999983856	0.0446865999983856	0.0387601000111317	31.5391404999973	"[0.7240740740740741]"	"[-0.38796296296296295]"	"[1]"	"[0]"	"[0]"	"[31.499784800005727]"	NA	NA	NA	NA	NA	NA	NA	NA	NA	NA	NA	NA	NA	NA	NA	NA	NA	NA	NA	NA	NA	NA	NA	NA	NA	NA	NA	NA	NA	NA	NA	NA	NA	NA	NA	NA	NA	NA	NA	NA	NA	NA	NA	NA	NA	NA	NA	NA	12	"02"	"2024-02-07_11h52.49.715"	"GDT_exp"	"2023.2.3"	120.01934711238	"2024-02-07 11h53.10.012997 +0100"	NA
"dice_4.png"	4	0	0	0	3	31.6218222000025	NA	NA	NA	NA	NA	NA	NA	NA	NA	NA	NA	NA	31.5439505999966	31.6218222000025	31.6218222000025	31.6218222000025	31.6218222000025	31.6218222000025	31.6218222000025	31.6218222000025	31.6218222000025	31.6218222000025	31.6218222000025	31.6218222000025	31.6218222000025	31.6218222000025	31.6218222000025	31.6218222000025	31.6218222000025	31.6218222000025	31.6218222000025	31.6218222000025	31.6218222000025	31.6218222000025	31.6218222000025	31.6218222000025	31.6218222000025	31.6218222000025	0.022941199989873	2.8078114999953	34.4136728000012	4.32483030000003	35.9804663999967	35.9334535999951	"[-0.1111111111111111, -0.09537037037037037]"	"[-0.24537037037037038, 0.1537037037037037]"	"[1, 0]"	"[0, 0]"	"[0, 1]"	"[2.0614442999940366, 2.753120499997749]"	3	200	NA	NA	NA	NA	NA	NA	NA	NA	12	"02"	"2024-02-07_11h52.49.715"	"GDT_exp"	"2023.2.3"	120.01934711238	"2024-02-07 11h53.10.012997 +0100"	NA
"dice_5.png"	5	0	1	1	4	35.9804663999967	NA	NA	NA	NA	NA	NA	NA	NA	NA	NA	NA	NA	35.9342565999978	35.9804663999967	35.9804663999967	35.9804663999967	35.9804663999967	35.9804663999967	35.9804663999967	35.9804663999967	35.9804663999967	35.9804663999967	35.9804663999967	35.9804663999967	35.9804663999967	35.9804663999967	35.9804663999967	35.9804663999967	35.9804663999967	35.9804663999967	35.9804663999967	35.9804663999967	35.9804663999967	35.9804663999967	35.9804663999967	35.9804663999967	35.9804663999967	35.9804663999967	0.0184166000108235	2.37989240000024	38.388959200005	3.91345930000534	39.9557139999961	39.9080778999923	"[-0.12129629629629629, -0.1638888888888889]"	"[-0.24259259259259258, 0.14351851851851852]"	"[1, 0]"	"[0, 0]"	"[0, 1]"	"[1.4528138000023318, 2.361410600002273]"	3	200	NA	NA	NA	NA	NA	NA	NA	NA	12	"02"	"2024-02-07_11h52.49.715"	"GDT_exp"	"2023.2.3"	120.01934711238	"2024-02-07 11h53.10.012997 +0100"	NA
"dice_2.png"	2	0	2	2	1	39.9557139999961	NA	NA	NA	NA	NA	NA	NA	NA	NA	NA	NA	NA	39.9086589999933	39.9557139999961	39.9557139999961	39.9557139999961	39.9557139999961	39.9557139999961	39.9557139999961	39.9557139999961	39.9557139999961	39.9557139999961	39.9557139999961	39.9557139999961	39.9557139999961	39.9557139999961	39.9557139999961	39.9557139999961	39.9557139999961	39.9557139999961	39.9557139999961	39.9557139999961	39.9557139999961	39.9557139999961	39.9557139999961	39.9557139999961	39.9557139999961	39.9557139999961	0.0182437000039499	NA	42.547564499997	NA	44.1060061000026	44.0588235000032	"[-0.28888888888888886, -0.27685185185185185]"	"[-0.15925925925925927, 0.14722222222222223]"	"[1, 0]"	"[0, 0]"	"[0, 1]"	"[1.8789376999920933, 2.5541450000018813]"	2	-500	2.57240410000668	NA	NA	NA	NA	NA	NA	NA	12	"02"	"2024-02-07_11h52.49.715"	"GDT_exp"	"2023.2.3"	120.01934711238	"2024-02-07 11h53.10.012997 +0100"	NA
"dice_6.png"	6	0	3	3	5	44.1060061000026	NA	NA	NA	NA	NA	NA	NA	NA	NA	NA	NA	NA	44.0594258000055	44.1060061000026	44.1060061000026	44.1060061000026	44.1060061000026	44.1060061000026	44.1060061000026	44.1060061000026	44.1060061000026	44.1060061000026	44.1060061000026	44.1060061000026	44.1060061000026	44.1060061000026	44.1060061000026	44.1060061000026	44.1060061000026	44.1060061000026	44.1060061000026	44.1060061000026	44.1060061000026	44.1060061000026	44.1060061000026	44.1060061000026	44.1060061000026	44.1060061000026	0.018459900005837	NA	45.581163099996	NA	47.1395678999979	47.0924909000023	"[-0.39814814814814814, -0.3277777777777778]"	"[-0.24722222222222223, 0.2074074074074074]"	"[1, 0]"	"[0, 0]"	"[0, 1]"	"[0.8282165999989957, 1.4365701000060653]"	3	-200	1.45521700000972	NA	NA	NA	NA	NA	NA	NA	12	"02"	"2024-02-07_11h52.49.715"	"GDT_exp"	"2023.2.3"	120.01934711238	"2024-02-07 11h53.10.012997 +0100"	NA
"dice_3.png"	3	0	4	4	2	47.1395678999979	NA	NA	NA	NA	NA	NA	NA	NA	NA	NA	NA	NA	47.0930299000029	47.1395678999979	47.1395678999979	47.1395678999979	47.1395678999979	47.1395678999979	47.1395678999979	47.1395678999979	47.1395678999979	47.1395678999979	47.1395678999979	47.1395678999979	47.1395678999979	47.1395678999979	47.1395678999979	47.1395678999979	47.1395678999979	47.1395678999979	47.1395678999979	47.1395678999979	47.1395678999979	47.1395678999979	47.1395678999979	47.1395678999979	47.1395678999979	47.1395678999979	0.0180460999981733	1.88011630000256	49.0398225999961	3.38029819999065	50.5814855999924	50.5424847999966	"[-0.4462962962962963, -0.32037037037037036]"	"[-0.23055555555555557, 0.1648148148148148]"	"[1, 0]"	"[0, 0]"	"[0, 1]"	"[1.0617884999956004, 1.8617644000041764]"	3	200	NA	NA	NA	NA	NA	NA	NA	NA	12	"02"	"2024-02-07_11h52.49.715"	"GDT_exp"	"2023.2.3"	120.01934711238	"2024-02-07 11h53.10.012997 +0100"	NA
"dice_1.png"	1	0	5	5	0	50.5814855999924	NA	NA	NA	NA	NA	NA	NA	NA	NA	NA	NA	NA	50.543056399998	50.5814855999924	50.5814855999924	50.5814855999924	50.5814855999924	50.5814855999924	50.5814855999924	50.5814855999924	50.5814855999924	50.5814855999924	50.5814855999924	50.5814855999924	50.5814855999924	50.5814855999924	50.5814855999924	50.5814855999924	50.5814855999924	50.5814855999924	50.5814855999924	50.5814855999924	50.5814855999924	50.5814855999924	50.5814855999924	50.5814855999924	50.5814855999924	50.5814855999924	0.014382299996214	3.29712119999749	53.9151564000058	4.82240069999534	55.465137399995	55.4258475999959	"[-0.38055555555555554, -0.2833333333333333]"	"[-0.25462962962962965, 0.15648148148148147]"	"[1, 0]"	"[0, 0]"	"[0, 1]"	"[2.490790999989258, 3.2825392999948235]"	3	200	NA	NA	NA	NA	NA	NA	NA	NA	12	"02"	"2024-02-07_11h52.49.715"	"GDT_exp"	"2023.2.3"	120.01934711238	"2024-02-07 11h53.10.012997 +0100"	NA
"dice_6.png"	6	1	0	6	5	55.465137399995	NA	NA	NA	NA	NA	NA	NA	NA	NA	NA	NA	NA	55.4263687000057	55.465137399995	55.465137399995	55.465137399995	55.465137399995	55.465137399995	55.465137399995	55.465137399995	55.465137399995	55.465137399995	55.465137399995	55.465137399995	55.465137399995	55.465137399995	55.465137399995	55.465137399995	55.465137399995	55.465137399995	55.465137399995	55.465137399995	55.465137399995	55.465137399995	55.465137399995	55.465137399995	55.465137399995	55.465137399995	0.0150087999936659	2.83910219999962	58.3403133999964	4.33923420000065	59.9154268999991	59.8684682000021	"[-0.07037037037037037, -0.16296296296296298]"	"[-0.24814814814814815, 0.18518518518518517]"	"[1, 0]"	"[0, 0]"	"[0, 1]"	"[2.165585499998997, 2.8239532000006875]"	3	200	NA	NA	NA	NA	NA	NA	NA	NA	12	"02"	"2024-02-07_11h52.49.715"	"GDT_exp"	"2023.2.3"	120.01934711238	"2024-02-07 11h53.10.012997 +0100"	NA
"dice_2.png"	2	1	1	7	1	59.9154268999991	NA	NA	NA	NA	NA	NA	NA	NA	NA	NA	NA	NA	59.8690382999921	59.9154268999991	59.9154268999991	59.9154268999991	59.9154268999991	59.9154268999991	59.9154268999991	59.9154268999991	59.9154268999991	59.9154268999991	59.9154268999991	59.9154268999991	59.9154268999991	59.9154268999991	59.9154268999991	59.9154268999991	59.9154268999991	59.9154268999991	59.9154268999991	59.9154268999991	59.9154268999991	59.9154268999991	59.9154268999991	59.9154268999991	59.9154268999991	59.9154268999991	0.0180622000043513	NA	61.7573566999927	NA	63.3240110000042	63.2766339999944	"[-0.11851851851851852, -0.18703703703703703]"	"[-0.2490740740740741, 0.16944444444444445]"	"[1, 0]"	"[0, 0]"	"[0, 1]"	"[1.1951593999983743, 1.8036817999964114]"	3	-200	1.82167230000778	NA	NA	NA	NA	NA	NA	NA	12	"02"	"2024-02-07_11h52.49.715"	"GDT_exp"	"2023.2.3"	120.01934711238	"2024-02-07 11h53.10.012997 +0100"	NA
"dice_5.png"	5	1	2	8	4	63.3240110000042	NA	NA	NA	NA	NA	NA	NA	NA	NA	NA	NA	NA	63.2772314000031	63.3240110000042	63.3240110000042	63.3240110000042	63.3240110000042	63.3240110000042	63.3240110000042	63.3240110000042	63.3240110000042	63.3240110000042	63.3240110000042	63.3240110000042	63.3240110000042	63.3240110000042	63.3240110000042	63.3240110000042	63.3240110000042	63.3240110000042	63.3240110000042	63.3240110000042	63.3240110000042	63.3240110000042	63.3240110000042	63.3240110000042	63.3240110000042	63.3240110000042	0.0150914999976521	1.86370609998994	65.2075885999948	3.3638740000024	66.774228299997	66.7351183999999	"[-0.07777777777777778, -0.05740740740740741]"	"[-0.24814814814814815, 0.13240740740740742]"	"[1, 0]"	"[0, 0]"	"[0, 1]"	"[1.0647812000097474, 1.8481331000075443]"	3	200	NA	NA	NA	NA	NA	NA	NA	NA	12	"02"	"2024-02-07_11h52.49.715"	"GDT_exp"	"2023.2.3"	120.01934711238	"2024-02-07 11h53.10.012997 +0100"	NA
"dice_3.png"	3	1	3	9	2	66.774228299997	NA	NA	NA	NA	NA	NA	NA	NA	NA	NA	NA	NA	66.7356923000043	66.774228299997	66.774228299997	66.774228299997	66.774228299997	66.774228299997	66.774228299997	66.774228299997	66.774228299997	66.774228299997	66.774228299997	66.774228299997	66.774228299997	66.774228299997	66.774228299997	66.774228299997	66.774228299997	66.774228299997	66.774228299997	66.774228299997	66.774228299997	66.774228299997	66.774228299997	66.774228299997	66.774228299997	66.774228299997	0.0143322000076296	NA	68.7410313	NA	70.2996073999966	70.2603883999982	"[-0.1111111111111111, -0.0962962962962963]"	"[-0.262037037037037, 0.16296296296296298]"	"[1, 0]"	"[0, 0]"	"[0, 1]"	"[1.0325213000032818, 1.9160390000033658]"	3	-200	1.9304911000072	NA	NA	NA	NA	NA	NA	NA	12	"02"	"2024-02-07_11h52.49.715"	"GDT_exp"	"2023.2.3"	120.01934711238	"2024-02-07 11h53.10.012997 +0100"	NA
"dice_4.png"	4	1	4	10	3	70.2996073999966	NA	NA	NA	NA	NA	NA	NA	NA	NA	NA	NA	NA	70.2609166000038	70.2996073999966	70.2996073999966	70.2996073999966	70.2996073999966	70.2996073999966	70.2996073999966	70.2996073999966	70.2996073999966	70.2996073999966	70.2996073999966	70.2996073999966	70.2996073999966	70.2996073999966	70.2996073999966	70.2996073999966	70.2996073999966	70.2996073999966	70.2996073999966	70.2996073999966	70.2996073999966	70.2996073999966	70.2996073999966	70.2996073999966	70.2996073999966	70.2996073999966	0.0145836000010604	NA	71.8579150000005	NA	73.3997046000004	73.3609354999935	"[-0.3888888888888889, -0.22870370370370371]"	"[-0.23148148148148148, 0.18611111111111112]"	"[1, 0]"	"[0, 0]"	"[0, 1]"	"[0.8744946000078926, 1.5073450000054436]"	3	-200	1.52213159999519	NA	NA	NA	NA	NA	NA	NA	12	"02"	"2024-02-07_11h52.49.715"	"GDT_exp"	"2023.2.3"	120.01934711238	"2024-02-07 11h53.10.012997 +0100"	NA
"dice_1.png"	1	1	5	11	0	73.3997046000004	NA	NA	NA	NA	NA	NA	NA	NA	NA	NA	NA	NA	73.3614955999947	73.3997046000004	73.3997046000004	73.3997046000004	73.3997046000004	73.3997046000004	73.3997046000004	73.3997046000004	73.3997046000004	73.3997046000004	73.3997046000004	73.3997046000004	73.3997046000004	73.3997046000004	73.3997046000004	73.3997046000004	73.3997046000004	73.3997046000004	73.3997046000004	73.3997046000004	73.3997046000004	73.3997046000004	73.3997046000004	73.3997046000004	73.3997046000004	73.3997046000004	0.0149171000084607	0.971725000010338	74.3998826000025	2.47188460000325	75.9416554000054	75.9024433000013	"[-0.3990740740740741, -0.2490740740740741]"	"[-0.24166666666666667, 0.1648148148148148]"	"[1, 0]"	"[0, 0]"	"[0, 1]"	"[0.24802210000052582, 0.9563392999989446]"	3	200	NA	NA	NA	NA	NA	NA	NA	NA	12	"02"	"2024-02-07_11h52.49.715"	"GDT_exp"	"2023.2.3"	120.01934711238	"2024-02-07 11h53.10.012997 +0100"	NA
"dice_3.png"	3	2	0	12	2	75.9416554000054	NA	NA	NA	NA	NA	NA	NA	NA	NA	NA	NA	NA	75.903014800002	75.9416554000054	75.9416554000054	75.9416554000054	75.9416554000054	75.9416554000054	75.9416554000054	75.9416554000054	75.9416554000054	75.9416554000054	75.9416554000054	75.9416554000054	75.9416554000054	75.9416554000054	75.9416554000054	75.9416554000054	75.9416554000054	75.9416554000054	75.9416554000054	75.9416554000054	75.9416554000054	75.9416554000054	75.9416554000054	75.9416554000054	75.9416554000054	75.9416554000054	0.0144551999983378	NA	79.1834202000027	NA	80.7669889999961	80.7195741000032	"[0.09537037037037037, -0.12407407407407407]"	"[-0.14074074074074075, 0.16296296296296298]"	"[1, 0]"	"[0, 0]"	"[0, 1]"	"[2.215802299993811, 3.199158499992336]"	2	-500	3.21387630001118	NA	NA	NA	NA	NA	NA	NA	12	"02"	"2024-02-07_11h52.49.715"	"GDT_exp"	"2023.2.3"	120.01934711238	"2024-02-07 11h53.10.012997 +0100"	NA
"dice_5.png"	5	2	1	13	4	80.7669889999961	NA	NA	NA	NA	NA	NA	NA	NA	NA	NA	NA	NA	80.7201422999933	80.7669889999961	80.7669889999961	80.7669889999961	80.7669889999961	80.7669889999961	80.7669889999961	80.7669889999961	80.7669889999961	80.7669889999961	80.7669889999961	80.7669889999961	80.7669889999961	80.7669889999961	80.7669889999961	80.7669889999961	80.7669889999961	80.7669889999961	80.7669889999961	80.7669889999961	80.7669889999961	80.7669889999961	80.7669889999961	80.7669889999961	80.7669889999961	80.7669889999961	0.0174289999995381	3.0887420999934	83.8755196999991	4.59724350000033	85.4256888999953	85.3789978999994	"[-0.10462962962962963, -0.16574074074074074]"	"[-0.225, 0.13796296296296295]"	"[1, 0]"	"[0, 0]"	"[0, 1]"	"[2.279544800010626, 3.071081200003391]"	3	200	NA	NA	NA	NA	NA	NA	NA	NA	12	"02"	"2024-02-07_11h52.49.715"	"GDT_exp"	"2023.2.3"	120.01934711238	"2024-02-07 11h53.10.012997 +0100"	NA
"dice_2.png"	2	2	2	14	1	85.4256888999953	NA	NA	NA	NA	NA	NA	NA	NA	NA	NA	NA	NA	85.3795723999938	85.4256888999953	85.4256888999953	85.4256888999953	85.4256888999953	85.4256888999953	85.4256888999953	85.4256888999953	85.4256888999953	85.4256888999953	85.4256888999953	85.4256888999953	85.4256888999953	85.4256888999953	85.4256888999953	85.4256888999953	85.4256888999953	85.4256888999953	85.4256888999953	85.4256888999953	85.4256888999953	85.4256888999953	85.4256888999953	85.4256888999953	85.4256888999953	85.4256888999953	0.0178597000049194	NA	87.117293599993	NA	88.6590683999966	88.6201648999995	"[-0.2111111111111111, -0.28888888888888886]"	"[-0.14444444444444443, 0.1361111111111111]"	"[1, 0]"	"[0, 0]"	"[0, 1]"	"[0.7613824000000022, 1.6451507000019774]"	2	-500	1.66300770000089	NA	NA	NA	NA	NA	NA	NA	12	"02"	"2024-02-07_11h52.49.715"	"GDT_exp"	"2023.2.3"	120.01934711238	"2024-02-07 11h53.10.012997 +0100"	NA
"dice_4.png"	4	2	3	15	3	88.6590683999966	NA	NA	NA	NA	NA	NA	NA	NA	NA	NA	NA	NA	88.6206870000024	88.6590683999966	88.6590683999966	88.6590683999966	88.6590683999966	88.6590683999966	88.6590683999966	88.6590683999966	88.6590683999966	88.6590683999966	88.6590683999966	88.6590683999966	88.6590683999966	88.6590683999966	88.6590683999966	88.6590683999966	88.6590683999966	88.6590683999966	88.6590683999966	88.6590683999966	88.6590683999966	88.6590683999966	88.6590683999966	88.6590683999966	88.6590683999966	88.6590683999966	0.0146193000109633	NA	90.6258611999947	NA	92.1843003999966	92.1452108999947	"[-0.42407407407407405, -0.24722222222222223]"	"[-0.24351851851851852, 0.1398148148148148]"	"[1, 0]"	"[0, 0]"	"[0, 1]"	"[0.7403691999934381, 1.92375919999904]"	3	-200	1.93865540000843	NA	NA	NA	NA	NA	NA	NA	12	"02"	"2024-02-07_11h52.49.715"	"GDT_exp"	"2023.2.3"	120.01934711238	"2024-02-07 11h53.10.012997 +0100"	NA
"dice_1.png"	1	2	4	16	0	92.1843003999966	NA	NA	NA	NA	NA	NA	NA	NA	NA	NA	NA	NA	92.1457381999935	92.1843003999966	92.1843003999966	92.1843003999966	92.1843003999966	92.1843003999966	92.1843003999966	92.1843003999966	92.1843003999966	92.1843003999966	92.1843003999966	92.1843003999966	92.1843003999966	92.1843003999966	92.1843003999966	92.1843003999966	92.1843003999966	92.1843003999966	92.1843003999966	92.1843003999966	92.1843003999966	92.1843003999966	92.1843003999966	92.1843003999966	92.1843003999966	92.1843003999966	0.0148541999951703	NA	95.0928346000001	NA	96.6512900999951	96.6121992999979	"[-0.23055555555555557, -0.23796296296296296]"	"[-0.35185185185185186, 0.1537037037037037]"	"[1, 0]"	"[0, 0]"	"[0, 1]"	"[2.098748999997042, 2.8656359000015073]"	4	-100	2.88058169999567	NA	NA	NA	NA	NA	NA	NA	12	"02"	"2024-02-07_11h52.49.715"	"GDT_exp"	"2023.2.3"	120.01934711238	"2024-02-07 11h53.10.012997 +0100"	NA
"dice_6.png"	6	2	5	17	5	96.6512900999951	NA	NA	NA	NA	NA	NA	NA	NA	NA	NA	NA	NA	96.6127691000002	96.6512900999951	96.6512900999951	96.6512900999951	96.6512900999951	96.6512900999951	96.6512900999951	96.6512900999951	96.6512900999951	96.6512900999951	96.6512900999951	96.6512900999951	96.6512900999951	96.6512900999951	96.6512900999951	96.6512900999951	96.6512900999951	96.6512900999951	96.6512900999951	96.6512900999951	96.6512900999951	96.6512900999951	96.6512900999951	96.6512900999951	96.6512900999951	96.6512900999951	0.0148956000048201	3.48893500000122	100.176538300002	5.00581200000306	101.693444699995	101.679314699999	"[0.07777777777777778, -0.1712962962962963]"	"[-0.3398148148148148, 0.14629629629629629]"	"[1, 0]"	"[0, 0]"	"[0, 1]"	"[2.3736782999912975, 3.473823499996797]"	4	100	NA	NA	NA	NA	NA	NA	NA	NA	12	"02"	"2024-02-07_11h52.49.715"	"GDT_exp"	"2023.2.3"	120.01934711238	"2024-02-07 11h53.10.012997 +0100"	NA
NA	NA	NA	NA	NA	NA	NA	NA	NA	NA	NA	NA	NA	NA	NA	NA	NA	NA	NA	NA	NA	NA	NA	NA	NA	NA	NA	NA	NA	NA	NA	NA	NA	NA	NA	NA	NA	NA	NA	NA	NA	NA	NA	NA	NA	NA	NA	NA	NA	NA	NA	NA	NA	NA	NA	NA	NA	NA	NA	NA	101.679744599998	101.693444699995	101.693444699995	108.760769999993	"space"	7.05887049999728	"None"	12	"02"	"2024-02-07_11h52.49.715"	"GDT_exp"	"2023.2.3"	120.01934711238	"2024-02-07 11h53.10.012997 +0100"	NA
