"diceImage"	"d_number"	"dice_loop.thisRepN"	"dice_loop.thisTrialN"	"dice_loop.thisN"	"dice_loop.thisIndex"	"thisRow.t"	"notes"	"Start.started"	"text_start.started"	"continue_start.started"	"mouse_start.started"	"Start.stopped"	"mouse_start.x"	"mouse_start.y"	"mouse_start.leftButton"	"mouse_start.midButton"	"mouse_start.rightButton"	"mouse_start.time"	"trial.started"	"box_dice.started"	"text_dice_header.started"	"text_gain.started"	"value_gain.started"	"text_bank.started"	"value_bank.started"	"img_dice_1.started"	"img_dice_2.started"	"img_dice_3.started"	"img_dice_4.started"	"img_dice_5.started"	"img_dice_6.started"	"img_dice_1_2.started"	"img_dice_3_4.started"	"img_dice_5_6.started"	"img_dice_1_2_3.started"	"img_dice_4_5_6.started"	"img_dice_1_2_3_4.started"	"img_dice_2_3_4_5.started"	"img_dice_3_4_5_6.started"	"text_value_header.started"	"text_value_1000.started"	"text_value_500.started"	"text_value_200.started"	"text_value_100.started"	"mouse_task.started"	"loss_sound.started"	"img_dice_throw_trials.started"	"img_dice_throw_trials.stopped"	"trial.stopped"	"mouse_task.x"	"mouse_task.y"	"mouse_task.leftButton"	"mouse_task.midButton"	"mouse_task.rightButton"	"mouse_task.time"	"choice"	"gain"	"gain_sound.started"	"gain_sound.stopped"	"End.started"	"text_end.started"	"key_end.started"	"End.stopped"	"key_end.keys"	"key_end.rt"	"key_end.duration"	"participant"	"session"	"date"	"expName"	"psychopyVersion"	"frameRate"	"expStart"	"...75"
NA	NA	NA	NA	NA	NA	NA	NA	0.0381326999922749	0.0467945999989752	0.0467945999989752	0.0384801000036532	20.365475899991	"[0.7055555555555556]"	"[-0.40370370370370373]"	"[1]"	"[0]"	"[0]"	"[20.3263936000003]"	NA	NA	NA	NA	NA	NA	NA	NA	NA	NA	NA	NA	NA	NA	NA	NA	NA	NA	NA	NA	NA	NA	NA	NA	NA	NA	NA	NA	NA	NA	NA	NA	NA	NA	NA	NA	NA	NA	NA	NA	NA	NA	NA	NA	NA	NA	NA	NA	12	"03"	"2024-02-07_11h59.46.230"	"GDT_exp"	"2023.2.3"	120.001776032824	"2024-02-07 12h00.00.718939 +0100"	NA
"dice_5.png"	5	0	0	0	4	20.448164699992	NA	NA	NA	NA	NA	NA	NA	NA	NA	NA	NA	NA	20.3703161999874	20.448164699992	20.448164699992	20.448164699992	20.448164699992	20.448164699992	20.448164699992	20.448164699992	20.448164699992	20.448164699992	20.448164699992	20.448164699992	20.448164699992	20.448164699992	20.448164699992	20.448164699992	20.448164699992	20.448164699992	20.448164699992	20.448164699992	20.448164699992	20.448164699992	20.448164699992	20.448164699992	20.448164699992	20.448164699992	0.0230980000051204	5.29137110000011	25.7235648999922	27.2903117999958	27.2431396999891	"[-0.2351851851851852, -0.2712962962962963]"	"[-0.14166666666666666, 0.1425925925925926]"	"[1, 0]"	"[0, 0]"	"[0, 1]"	"[3.3281158000027062, 5.236626500001876]"	2	-500	NA	NA	NA	NA	NA	NA	NA	NA	NA	12	"03"	"2024-02-07_11h59.46.230"	"GDT_exp"	"2023.2.3"	120.001776032824	"2024-02-07 12h00.00.718939 +0100"	NA
"dice_2.png"	2	0	1	1	1	27.2903117999958	NA	NA	NA	NA	NA	NA	NA	NA	NA	NA	NA	NA	27.2439465999923	27.2903117999958	27.2903117999958	27.2903117999958	27.2903117999958	27.2903117999958	27.2903117999958	27.2903117999958	27.2903117999958	27.2903117999958	27.2903117999958	27.2903117999958	27.2903117999958	27.2903117999958	27.2903117999958	27.2903117999958	27.2903117999958	27.2903117999958	27.2903117999958	27.2903117999958	27.2903117999958	27.2903117999958	27.2903117999958	27.2903117999958	27.2903117999958	27.2903117999958	0.0176773999992292	NA	29.8154728999943	31.3989145999949	31.3514364000002	"[-0.44537037037037036, -0.1787037037037037]"	"[-0.22314814814814815, 0.10462962962962963]"	"[1, 0]"	"[0, 0]"	"[0, 1]"	"[1.0036964999890188, 2.4874448999908054]"	3	200	2.50514959999418	4.0385346999974	NA	NA	NA	NA	NA	NA	NA	12	"03"	"2024-02-07_11h59.46.230"	"GDT_exp"	"2023.2.3"	120.001776032824	"2024-02-07 12h00.00.718939 +0100"	NA
"dice_1.png"	1	0	2	2	0	31.3989145999949	NA	NA	NA	NA	NA	NA	NA	NA	NA	NA	NA	NA	31.3520407999895	31.3989145999949	31.3989145999949	31.3989145999949	31.3989145999949	31.3989145999949	31.3989145999949	31.3989145999949	31.3989145999949	31.3989145999949	31.3989145999949	31.3989145999949	31.3989145999949	31.3989145999949	31.3989145999949	31.3989145999949	31.3989145999949	31.3989145999949	31.3989145999949	31.3989145999949	31.3989145999949	31.3989145999949	31.3989145999949	31.3989145999949	31.3989145999949	31.3989145999949	0.0178144000092288	2.1805435000133	33.6074018999934	35.182639199993	35.135117599988	"[-0.28055555555555556, -0.0787037037037037]"	"[-0.35185185185185186, 0.15185185185185185]"	"[1, 0]"	"[0, 0]"	"[0, 1]"	"[1.3290025000023888, 2.162561699995422]"	4	-100	NA	NA	NA	NA	NA	NA	NA	NA	NA	12	"03"	"2024-02-07_11h59.46.230"	"GDT_exp"	"2023.2.3"	120.001776032824	"2024-02-07 12h00.00.718939 +0100"	NA
"dice_6.png"	6	0	3	3	5	35.182639199993	NA	NA	NA	NA	NA	NA	NA	NA	NA	NA	NA	NA	35.1357011999935	35.182639199993	35.182639199993	35.182639199993	35.182639199993	35.182639199993	35.182639199993	35.182639199993	35.182639199993	35.182639199993	35.182639199993	35.182639199993	35.182639199993	35.182639199993	35.182639199993	35.182639199993	35.182639199993	35.182639199993	35.182639199993	35.182639199993	35.182639199993	35.182639199993	35.182639199993	35.182639199993	35.182639199993	35.182639199993	0.0182258999993792	NA	36.9326651999872	38.4993983999884	38.4520812999981	"[-0.003703703703703704, -0.01574074074074074]"	"[-0.25277777777777777, 0.16296296296296298]"	"[1, 0]"	"[0, 0]"	"[0, 1]"	"[0.8119261000101687, 1.7121945000108099]"	3	200	1.73050020000665	3.25557220001065	NA	NA	NA	NA	NA	NA	NA	12	"03"	"2024-02-07_11h59.46.230"	"GDT_exp"	"2023.2.3"	120.001776032824	"2024-02-07 12h00.00.718939 +0100"	NA
"dice_4.png"	4	0	4	4	3	38.4993983999884	NA	NA	NA	NA	NA	NA	NA	NA	NA	NA	NA	NA	38.4526082999946	38.4993983999884	38.4993983999884	38.4993983999884	38.4993983999884	38.4993983999884	38.4993983999884	38.4993983999884	38.4993983999884	38.4993983999884	38.4993983999884	38.4993983999884	38.4993983999884	38.4993983999884	38.4993983999884	38.4993983999884	38.4993983999884	38.4993983999884	38.4993983999884	38.4993983999884	38.4993983999884	38.4993983999884	38.4993983999884	38.4993983999884	38.4993983999884	38.4993983999884	0.0176764000061667	NA	40.1328691999952	41.691421999989	41.6519709999993	"[-0.07407407407407407, -0.1925925925925926]"	"[-0.25, 0.13240740740740742]"	"[1, 0]"	"[0, 0]"	"[0, 1]"	"[0.720759600008023, 1.587455900007626]"	3	200	1.60538020000968	3.13052440001047	NA	NA	NA	NA	NA	NA	NA	12	"03"	"2024-02-07_11h59.46.230"	"GDT_exp"	"2023.2.3"	120.001776032824	"2024-02-07 12h00.00.718939 +0100"	NA
"dice_3.png"	3	0	5	5	2	41.691421999989	NA	NA	NA	NA	NA	NA	NA	NA	NA	NA	NA	NA	41.6525433999923	41.691421999989	41.691421999989	41.691421999989	41.691421999989	41.691421999989	41.691421999989	41.691421999989	41.691421999989	41.691421999989	41.691421999989	41.691421999989	41.691421999989	41.691421999989	41.691421999989	41.691421999989	41.691421999989	41.691421999989	41.691421999989	41.691421999989	41.691421999989	41.691421999989	41.691421999989	41.691421999989	41.691421999989	41.691421999989	0.0144932999974117	NA	43.5747413999925	45.1498520999885	45.1023477999988	"[-0.4222222222222222, -0.16203703703703703]"	"[-0.24814814814814815, 0.13055555555555556]"	"[1, 0]"	"[0, 0]"	"[0, 1]"	"[1.1908268999977736, 1.8409935999952722]"	3	200	1.85568189999321	3.38084429998707	NA	NA	NA	NA	NA	NA	NA	12	"03"	"2024-02-07_11h59.46.230"	"GDT_exp"	"2023.2.3"	120.001776032824	"2024-02-07 12h00.00.718939 +0100"	NA
"dice_5.png"	5	1	0	6	4	45.1498520999885	NA	NA	NA	NA	NA	NA	NA	NA	NA	NA	NA	NA	45.1029268999991	45.1498520999885	45.1498520999885	45.1498520999885	45.1498520999885	45.1498520999885	45.1498520999885	45.1498520999885	45.1498520999885	45.1498520999885	45.1498520999885	45.1498520999885	45.1498520999885	45.1498520999885	45.1498520999885	45.1498520999885	45.1498520999885	45.1498520999885	45.1498520999885	45.1498520999885	45.1498520999885	45.1498520999885	45.1498520999885	45.1498520999885	45.1498520999885	45.1498520999885	0.0178828999924008	2.20555790000071	47.3750110999972	48.9251399999921	48.8863417999965	"[-0.42685185185185187, -0.13796296296296295]"	"[-0.23981481481481481, 0.13518518518518519]"	"[1, 0]"	"[0, 0]"	"[0, 1]"	"[1.5122766999993473, 2.1872747000015806]"	3	-200	NA	NA	NA	NA	NA	NA	NA	NA	NA	12	"03"	"2024-02-07_11h59.46.230"	"GDT_exp"	"2023.2.3"	120.001776032824	"2024-02-07 12h00.00.718939 +0100"	NA
"dice_3.png"	3	1	1	7	2	48.9251399999921	NA	NA	NA	NA	NA	NA	NA	NA	NA	NA	NA	NA	48.8869199999899	48.9251399999921	48.9251399999921	48.9251399999921	48.9251399999921	48.9251399999921	48.9251399999921	48.9251399999921	48.9251399999921	48.9251399999921	48.9251399999921	48.9251399999921	48.9251399999921	48.9251399999921	48.9251399999921	48.9251399999921	48.9251399999921	48.9251399999921	48.9251399999921	48.9251399999921	48.9251399999921	48.9251399999921	48.9251399999921	48.9251399999921	48.9251399999921	48.9251399999921	0.0145880000054603	1.45519670000067	50.4252333999902	51.9836748999951	51.9448482999869	"[-0.09074074074074075, -0.10277777777777777]"	"[-0.24074074074074073, 0.12222222222222222]"	"[1, 0]"	"[0, 0]"	"[0, 1]"	"[0.4985574999882374, 1.4403676999936579]"	3	-200	NA	NA	NA	NA	NA	NA	NA	NA	NA	12	"03"	"2024-02-07_11h59.46.230"	"GDT_exp"	"2023.2.3"	120.001776032824	"2024-02-07 12h00.00.718939 +0100"	NA
"dice_2.png"	2	1	2	8	1	51.9836748999951	NA	NA	NA	NA	NA	NA	NA	NA	NA	NA	NA	NA	51.9453821999923	51.9836748999951	51.9836748999951	51.9836748999951	51.9836748999951	51.9836748999951	51.9836748999951	51.9836748999951	51.9836748999951	51.9836748999951	51.9836748999951	51.9836748999951	51.9836748999951	51.9836748999951	51.9836748999951	51.9836748999951	51.9836748999951	51.9836748999951	51.9836748999951	51.9836748999951	51.9836748999951	51.9836748999951	51.9836748999951	51.9836748999951	51.9836748999951	51.9836748999951	0.0151235999946948	1.48851470000227	53.500566799994	55.0673315999884	55.0281082000001	"[-0.07222222222222222, 0.24722222222222223]"	"[-0.2462962962962963, -0.21944444444444444]"	"[1, 0]"	"[0, 0]"	"[0, 1]"	"[0.3650008999975398, 1.5065044000075432]"	3	-200	NA	NA	NA	NA	NA	NA	NA	NA	NA	12	"03"	"2024-02-07_11h59.46.230"	"GDT_exp"	"2023.2.3"	120.001776032824	"2024-02-07 12h00.00.718939 +0100"	NA
"dice_6.png"	6	1	3	9	5	55.0673315999884	NA	NA	NA	NA	NA	NA	NA	NA	NA	NA	NA	NA	55.0286450999993	55.0673315999884	55.0673315999884	55.0673315999884	55.0673315999884	55.0673315999884	55.0673315999884	55.0673315999884	55.0673315999884	55.0673315999884	55.0673315999884	55.0673315999884	55.0673315999884	55.0673315999884	55.0673315999884	55.0673315999884	55.0673315999884	55.0673315999884	55.0673315999884	55.0673315999884	55.0673315999884	55.0673315999884	55.0673315999884	55.0673315999884	55.0673315999884	55.0673315999884	0.014495800001896	NA	56.3839635999902	57.9425367999938	57.9034104999882	"[0.012037037037037037, 0.05092592592592592]"	"[-0.3472222222222222, -0.25925925925925924]"	"[1, 0]"	"[0, 0]"	"[0, 1]"	"[0.7657291000068653, 1.2742448000062723]"	4	100	1.28879779999261	2.80563889999758	NA	NA	NA	NA	NA	NA	NA	12	"03"	"2024-02-07_11h59.46.230"	"GDT_exp"	"2023.2.3"	120.001776032824	"2024-02-07 12h00.00.718939 +0100"	NA
"dice_4.png"	4	1	4	10	3	57.9425367999938	NA	NA	NA	NA	NA	NA	NA	NA	NA	NA	NA	NA	57.9039981999958	57.9425367999938	57.9425367999938	57.9425367999938	57.9425367999938	57.9425367999938	57.9425367999938	57.9425367999938	57.9425367999938	57.9425367999938	57.9425367999938	57.9425367999938	57.9425367999938	57.9425367999938	57.9425367999938	57.9425367999938	57.9425367999938	57.9425367999938	57.9425367999938	57.9425367999938	57.9425367999938	57.9425367999938	57.9425367999938	57.9425367999938	57.9425367999938	57.9425367999938	0.0146041999978479	NA	60.792618099993	62.3510700999905	62.3119410999934	"[0.013888888888888888, 0.013888888888888888]"	"[-0.337037037037037, -0.337037037037037]"	"[1, 0]"	"[0, 0]"	"[0, 1]"	"[1.473713500003214, 2.7988190000032773]"	4	100	2.81378240000049	4.3139128999901	NA	NA	NA	NA	NA	NA	NA	12	"03"	"2024-02-07_11h59.46.230"	"GDT_exp"	"2023.2.3"	120.001776032824	"2024-02-07 12h00.00.718939 +0100"	NA
"dice_1.png"	1	1	5	11	0	62.3510700999905	NA	NA	NA	NA	NA	NA	NA	NA	NA	NA	NA	NA	62.3125423999882	62.3510700999905	62.3510700999905	62.3510700999905	62.3510700999905	62.3510700999905	62.3510700999905	62.3510700999905	62.3510700999905	62.3510700999905	62.3510700999905	62.3510700999905	62.3510700999905	62.3510700999905	62.3510700999905	62.3510700999905	62.3510700999905	62.3510700999905	62.3510700999905	62.3510700999905	62.3510700999905	62.3510700999905	62.3510700999905	62.3510700999905	62.3510700999905	62.3510700999905	0.0147591999993892	NA	66.4096604999941	67.9764211999864	67.9372683999973	"[-0.37037037037037035, -0.37037037037037035]"	"[-0.26944444444444443, -0.26851851851851855]"	"[1, 0]"	"[0, 0]"	"[0, 1]"	"[2.840402299989364, 4.015549899995676]"	3	200	4.03066270001	5.56406560000323	NA	NA	NA	NA	NA	NA	NA	12	"03"	"2024-02-07_11h59.46.230"	"GDT_exp"	"2023.2.3"	120.001776032824	"2024-02-07 12h00.00.718939 +0100"	NA
"dice_3.png"	3	2	0	12	2	67.9764211999864	NA	NA	NA	NA	NA	NA	NA	NA	NA	NA	NA	NA	67.9378413999948	67.9764211999864	67.9764211999864	67.9764211999864	67.9764211999864	67.9764211999864	67.9764211999864	67.9764211999864	67.9764211999864	67.9764211999864	67.9764211999864	67.9764211999864	67.9764211999864	67.9764211999864	67.9764211999864	67.9764211999864	67.9764211999864	67.9764211999864	67.9764211999864	67.9764211999864	67.9764211999864	67.9764211999864	67.9764211999864	67.9764211999864	67.9764211999864	67.9764211999864	0.0147452999954112	NA	71.2851276000001	72.8517674999894	72.8126839999895	"[-0.26481481481481484, -0.26481481481481484]"	"[-0.14351851851851852, -0.14351851851851852]"	"[1, 0]"	"[0, 0]"	"[0, 1]"	"[2.7753750999982003, 3.2490371000021696]"	2	500	3.26397580000048	4.76409519999288	NA	NA	NA	NA	NA	NA	NA	12	"03"	"2024-02-07_11h59.46.230"	"GDT_exp"	"2023.2.3"	120.001776032824	"2024-02-07 12h00.00.718939 +0100"	NA
"dice_6.png"	6	2	1	13	5	72.8517674999894	NA	NA	NA	NA	NA	NA	NA	NA	NA	NA	NA	NA	72.8132696999965	72.8517674999894	72.8517674999894	72.8517674999894	72.8517674999894	72.8517674999894	72.8517674999894	72.8517674999894	72.8517674999894	72.8517674999894	72.8517674999894	72.8517674999894	72.8517674999894	72.8517674999894	72.8517674999894	72.8517674999894	72.8517674999894	72.8517674999894	72.8517674999894	72.8517674999894	72.8517674999894	72.8517674999894	72.8517674999894	72.8517674999894	72.8517674999894	72.8517674999894	0.014961900000344	NA	75.8686435999989	77.4271986999956	77.3877573999926	"[-0.1398148148148148, -0.1398148148148148]"	"[-0.24259259259259258, -0.24259259259259258]"	"[1, 0]"	"[0, 0]"	"[0, 1]"	"[2.2818559000006644, 2.965345399992657]"	3	200	2.98057529999642	4.51406119999592	NA	NA	NA	NA	NA	NA	NA	12	"03"	"2024-02-07_11h59.46.230"	"GDT_exp"	"2023.2.3"	120.001776032824	"2024-02-07 12h00.00.718939 +0100"	NA
"dice_5.png"	5	2	2	14	4	77.4271986999956	NA	NA	NA	NA	NA	NA	NA	NA	NA	NA	NA	NA	77.3882874999981	77.4271986999956	77.4271986999956	77.4271986999956	77.4271986999956	77.4271986999956	77.4271986999956	77.4271986999956	77.4271986999956	77.4271986999956	77.4271986999956	77.4271986999956	77.4271986999956	77.4271986999956	77.4271986999956	77.4271986999956	77.4271986999956	77.4271986999956	77.4271986999956	77.4271986999956	77.4271986999956	77.4271986999956	77.4271986999956	77.4271986999956	77.4271986999956	77.4271986999956	0.0145100999943679	NA	81.3939964999881	82.9608114999864	82.9220896999905	"[0.06388888888888888, 0.06388888888888888]"	"[-0.15833333333333333, -0.15833333333333333]"	"[1, 0]"	"[0, 0]"	"[0, 1]"	"[2.832974599994486, 3.9244274999946356]"	2	500	3.93918589998793	5.43932929998846	NA	NA	NA	NA	NA	NA	NA	12	"03"	"2024-02-07_11h59.46.230"	"GDT_exp"	"2023.2.3"	120.001776032824	"2024-02-07 12h00.00.718939 +0100"	NA
"dice_2.png"	2	2	3	15	1	82.9608114999864	NA	NA	NA	NA	NA	NA	NA	NA	NA	NA	NA	NA	82.9226326999924	82.9608114999864	82.9608114999864	82.9608114999864	82.9608114999864	82.9608114999864	82.9608114999864	82.9608114999864	82.9608114999864	82.9608114999864	82.9608114999864	82.9608114999864	82.9608114999864	82.9608114999864	82.9608114999864	82.9608114999864	82.9608114999864	82.9608114999864	82.9608114999864	82.9608114999864	82.9608114999864	82.9608114999864	82.9608114999864	82.9608114999864	82.9608114999864	82.9608114999864	0.0150905999907991	NA	86.8110441999888	88.3778367999912	88.330297499997	"[-0.375, -0.375]"	"[-0.24259259259259258, -0.24259259259259258]"	"[1, 0]"	"[0, 0]"	"[0, 1]"	"[2.8649946999939857, 3.7981781999988016]"	3	200	3.81357779999962	5.33869129999948	NA	NA	NA	NA	NA	NA	NA	12	"03"	"2024-02-07_11h59.46.230"	"GDT_exp"	"2023.2.3"	120.001776032824	"2024-02-07 12h00.00.718939 +0100"	NA
"dice_1.png"	1	2	4	16	0	88.3778367999912	NA	NA	NA	NA	NA	NA	NA	NA	NA	NA	NA	NA	88.3308551999944	88.3778367999912	88.3778367999912	88.3778367999912	88.3778367999912	88.3778367999912	88.3778367999912	88.3778367999912	88.3778367999912	88.3778367999912	88.3778367999912	88.3778367999912	88.3778367999912	88.3778367999912	88.3778367999912	88.3778367999912	88.3778367999912	88.3778367999912	88.3778367999912	88.3778367999912	88.3778367999912	88.3778367999912	88.3778367999912	88.3778367999912	88.3778367999912	88.3778367999912	0.01784129999578	NA	92.9697898999875	94.5448981999944	94.4973787999916	"[-0.6037037037037037, -0.6037037037037037]"	"[-0.14537037037037037, -0.14537037037037037]"	"[1, 0]"	"[0, 0]"	"[0, 1]"	"[4.021033800003352, 4.546252900006948]"	2	500	4.56425250000029	6.06422509999538	NA	NA	NA	NA	NA	NA	NA	12	"03"	"2024-02-07_11h59.46.230"	"GDT_exp"	"2023.2.3"	120.001776032824	"2024-02-07 12h00.00.718939 +0100"	NA
"dice_4.png"	4	2	5	17	3	94.5448981999944	NA	NA	NA	NA	NA	NA	NA	NA	NA	NA	NA	NA	94.4979653999908	94.5448981999944	94.5448981999944	94.5448981999944	94.5448981999944	94.5448981999944	94.5448981999944	94.5448981999944	94.5448981999944	94.5448981999944	94.5448981999944	94.5448981999944	94.5448981999944	94.5448981999944	94.5448981999944	94.5448981999944	94.5448981999944	94.5448981999944	94.5448981999944	94.5448981999944	94.5448981999944	94.5448981999944	94.5448981999944	94.5448981999944	94.5448981999944	94.5448981999944	0.0180994999973336	NA	97.0117925999948	98.5536319999956	98.5391663999908	"[-0.3, -0.3]"	"[-0.1648148148148148, -0.1648148148148148]"	"[1, 0]"	"[0, 0]"	"[0, 1]"	"[1.653884500003187, 2.4303370999987237]"	2	500	2.44729370001005	3.9474237000104	NA	NA	NA	NA	NA	NA	NA	12	"03"	"2024-02-07_11h59.46.230"	"GDT_exp"	"2023.2.3"	120.001776032824	"2024-02-07 12h00.00.718939 +0100"	NA
NA	NA	NA	NA	NA	NA	NA	NA	NA	NA	NA	NA	NA	NA	NA	NA	NA	NA	NA	NA	NA	NA	NA	NA	NA	NA	NA	NA	NA	NA	NA	NA	NA	NA	NA	NA	NA	NA	NA	NA	NA	NA	NA	NA	NA	NA	NA	NA	NA	NA	NA	NA	NA	NA	NA	NA	NA	NA	NA	NA	98.5396098999918	98.5536319999956	98.5536319999956	106.196147899987	"space"	7.64115159999346	"None"	12	"03"	"2024-02-07_11h59.46.230"	"GDT_exp"	"2023.2.3"	120.001776032824	"2024-02-07 12h00.00.718939 +0100"	NA
