"image"	"max_pumps"	"pump_loop.thisRepN"	"pump_loop.thisTrialN"	"pump_loop.thisN"	"pump_loop.thisIndex"	"thisRow.t"	"notes"	"Start.started"	"text_start.started"	"continue_start.started"	"mouse_start.started"	"Start.stopped"	"mouse_start.x"	"mouse_start.y"	"mouse_start.leftButton"	"mouse_start.midButton"	"mouse_start.rightButton"	"mouse_start.time"	"trials.started"	"stim_balloon.started"	"stim_balloon_burst.started"	"stim_balloon_burst.stopped"	"text_ballon_value.started"	"text_bank.started"	"mouse.started"	"sound_bang.started"	"sound_bang.stopped"	"button_balloon.started"	"trials.stopped"	"n_pumps"	"earnings"	"popped"	"mouse.x"	"mouse.y"	"mouse.leftButton"	"mouse.midButton"	"mouse.rightButton"	"mouse.time"	"button_balloon.numClicks"	"button_balloon.timesOn"	"button_balloon.timesOff"	"Feedback.started"	"text_feedback.started"	"Feedback.stopped"	"text_feedback.stopped"	"End.started"	"text_end.started"	"key_end.started"	"End.stopped"	"key_end.keys"	"key_end.rt"	"key_end.duration"	"participant"	"session"	"date"	"expName"	"psychopyVersion"	"frameRate"	"expStart"	"...61"
NA	NA	NA	NA	NA	NA	NA	NA	0.0414605997502804	0.0498247998766601	0.0498247998766601	0.0418006000109017	54.6875145998783	"[0.7]"	"[-0.36574074074074076]"	"[1]"	"[0]"	"[0]"	"[54.64512709993869]"	NA	NA	NA	NA	NA	NA	NA	NA	NA	NA	NA	NA	NA	NA	NA	NA	NA	NA	NA	NA	NA	NA	NA	NA	NA	NA	NA	NA	NA	NA	NA	NA	NA	NA	"02"	"01"	"2024-01-30_15h57.08.934"	"BART_exp"	"2023.2.3"	119.917448590691	"2024-01-30 15h57.20.731492 +0100"	NA
"balloon.png"	101	0	0	0	23	54.7619107998908	NA	NA	NA	NA	NA	NA	NA	NA	NA	NA	NA	NA	54.6952676996589	54.7619107998908	54.7619107998908	54.7619107998908	54.7619107998908	54.7619107998908	0.00951190013438463	0.00951190013438463	0.00951190013438463	54.7619107998908	61.3973948997445	12	0.6	FALSE	"[-0.07407407407407407, -0.07407407407407407, -0.07407407407407407, -0.07407407407407407, -0.07407407407407407, -0.07407407407407407, -0.07407407407407407, -0.07407407407407407, -0.07407407407407407, -0.07407407407407407, -0.07407407407407407, -0.07407407407407407, 0.025]"	"[-0.4009259259259259, -0.4009259259259259, -0.4009259259259259, -0.4009259259259259, -0.4009259259259259, -0.4009259259259259, -0.4009259259259259, -0.4009259259259259, -0.4009259259259259, -0.4009259259259259, -0.4009259259259259, -0.4009259259259259, -0.2490740740740741]"	"[1, 1, 1, 1, 1, 1, 1, 1, 1, 1, 1, 1, 0]"	"[0, 0, 0, 0, 0, 0, 0, 0, 0, 0, 0, 0, 0]"	"[0, 0, 0, 0, 0, 0, 0, 0, 0, 0, 0, 0, 1]"	"[1.2340543000027537, 1.5509500000625849, 1.809057999867946, 2.1757713998667896, 2.417432799935341, 2.859132600016892, 3.542844300158322, 3.9843259998597205, 4.259361700154841, 4.526113499887288, 5.018934800289571, 5.942859800066799, 6.701193400193006]"	12	"[1.1834244998171926, 1.5003279000520706, 1.7584274001419544, 2.125139799900353, 2.366806599777192, 2.8085004999302328, 3.492217699997127, 3.933696699794382, 4.208730999846011, 4.475486000068486, 4.968462099786848, 5.892228899989277]"	"[1.324967300053686, 1.6166169997304678, 1.8666261001490057, 2.241618299856782, 2.4750871998257935, 2.9251574999652803, 3.6167341000400484, 4.058466000016779, 4.325103099923581, 4.591949800029397, 5.075233899988234, 5.99189079971984]"	61.3986949999817	61.4122508000582	62.9041705997661	NA	NA	NA	NA	NA	NA	NA	NA	"02"	"01"	"2024-01-30_15h57.08.934"	"BART_exp"	"2023.2.3"	119.917448590691	"2024-01-30 15h57.20.731492 +0100"	NA
"balloon.png"	57	0	1	1	13	62.9207849996165	NA	NA	NA	NA	NA	NA	NA	NA	NA	NA	NA	NA	62.9043449996971	62.9207849996165	62.9207849996165	62.9207849996165	62.9207849996165	62.9207849996165	0.0068656001240015	0.0068656001240015	0.0068656001240015	62.9207849996165	71.9400106999092	15	0.75	FALSE	"[0.014814814814814815, 0.014814814814814815, 0.014814814814814815, 0.014814814814814815, 0.014814814814814815, 0.014814814814814815, 0.014814814814814815, 0.014814814814814815, 0.014814814814814815, 0.014814814814814815, 0.014814814814814815, 0.014814814814814815, 0.014814814814814815, 0.014814814814814815, 0.012962962962962963, 0.028703703703703703]"	"[-0.3712962962962963, -0.3712962962962963, -0.3712962962962963, -0.3712962962962963, -0.3712962962962963, -0.3712962962962963, -0.3712962962962963, -0.3712962962962963, -0.3712962962962963, -0.3712962962962963, -0.3712962962962963, -0.3712962962962963, -0.3712962962962963, -0.3712962962962963, -0.3851851851851852, -0.28888888888888886]"	"[1, 1, 1, 1, 1, 1, 1, 1, 1, 1, 1, 1, 1, 1, 1, 0]"	"[0, 0, 0, 0, 0, 0, 0, 0, 0, 0, 0, 0, 0, 0, 0, 0]"	"[0, 0, 0, 0, 0, 0, 0, 0, 0, 0, 0, 0, 0, 0, 0, 1]"	"[0.7838294999673963, 1.0338688003830612, 1.2424622001126409, 1.450676300097257, 1.6506696003489196, 1.8507983000017703, 2.2173806000500917, 2.4422526000998914, 3.050616200082004, 3.2592480001039803, 4.142534600105137, 4.37574930023402, 4.617408399935812, 5.442804800346494, 6.350928500294685, 9.034726400393993]"	14	"[0.7817506003193557, 1.0317971003241837, 1.2403901000507176, 1.448598500341177, 1.648588600102812, 1.848715000320226, 2.2153009003959596, 2.4318958004005253, 3.2571646003052592, 4.140455100219697, 4.373672000132501, 4.615329600404948, 5.440722499974072, 6.3488493002951145]"	"[0.9149193000048399, 1.1482993001118302, 1.3567290999926627, 1.5649620001204312, 1.7652072003111243, 1.9649946000427008, 2.340076600201428, 3.1734024002216756, 3.373496999964118, 4.248570000287145, 4.481826200149953, 4.731897300109267, 5.590244000311941, 6.456949300132692]"	71.9408921999857	71.946384599898	73.4384140996262	73.4548667999916	NA	NA	NA	NA	NA	NA	NA	"02"	"01"	"2024-01-30_15h57.08.934"	"BART_exp"	"2023.2.3"	119.917448590691	"2024-01-30 15h57.20.731492 +0100"	NA
"balloon.png"	92	0	2	2	21	73.4548667999916	NA	NA	NA	NA	NA	NA	NA	NA	NA	NA	NA	NA	73.4386008000001	73.4548667999916	73.4548667999916	73.4548667999916	73.4548667999916	73.4548667999916	-0.00093440013006329	-0.00093440013006329	-0.00093440013006329	73.4548667999916	82.2486302996986	19	0.95	FALSE	"[0.004629629629629629, 0.004629629629629629, 0.004629629629629629, 0.004629629629629629, 0.004629629629629629, 0.004629629629629629, 0.004629629629629629, 0.004629629629629629, 0.004629629629629629, 0.004629629629629629, 0.004629629629629629, 0.004629629629629629, 0.004629629629629629, 0.004629629629629629, 0.004629629629629629, 0.004629629629629629, 0.009259259259259259, 0.009259259259259259, -0.005555555555555556, 0.025925925925925925]"	"[-0.3861111111111111, -0.3861111111111111, -0.3861111111111111, -0.3861111111111111, -0.3861111111111111, -0.3861111111111111, -0.3861111111111111, -0.3861111111111111, -0.3861111111111111, -0.3861111111111111, -0.3861111111111111, -0.3861111111111111, -0.3861111111111111, -0.3861111111111111, -0.3861111111111111, -0.3861111111111111, -0.3787037037037037, -0.3787037037037037, -0.3972222222222222, -0.28888888888888886]"	"[1, 1, 1, 1, 1, 1, 1, 1, 1, 1, 1, 1, 1, 1, 1, 1, 1, 1, 1, 0]"	"[0, 0, 0, 0, 0, 0, 0, 0, 0, 0, 0, 0, 0, 0, 0, 0, 0, 0, 0, 0]"	"[0, 0, 0, 0, 0, 0, 0, 0, 0, 0, 0, 0, 0, 0, 0, 0, 0, 0, 0, 1]"	"[0.7921075001358986, 1.0335944001562893, 1.2503709001466632, 1.4921011002734303, 1.6851070998236537, 2.216991300228983, 2.4336644001305103, 2.642008800059557, 2.8587413001805544, 3.0754117001779377, 3.2754044998437166, 3.6920865001156926, 3.9172642999328673, 4.1172833000309765, 4.4671411998569965, 5.184054899960756, 6.442297799978405, 6.608946800231934, 7.90086629986763, 8.809095399919897]"	19	"[0.7846878999844193, 1.0261726998724043, 1.242961899843067, 1.4846859001554549, 1.6778430002741516, 2.209567400161177, 2.426236200146377, 2.634584200102836, 2.8513162001036108, 3.067990900017321, 3.267982500139624, 3.684660800267011, 3.909839400090277, 4.109859200194478, 4.459712199866772, 5.176632999908179, 6.434875099919736, 6.601539600174874, 7.8934439001604915]"	"[0.8843404999934137, 1.1177999000065029, 1.3594412999227643, 1.5927511998452246, 1.7927260999567807, 2.294117100071162, 2.5427843001671135, 2.759519000072032, 2.95957800000906, 3.176180399954319, 3.3762126001529396, 3.8095197998918593, 4.017867600079626, 4.22621180023998, 4.5846660998649895, 5.267980299890041, 6.493203100282699, 6.701439700089395, 8.034845700021833]"	82.2495490997098	82.2554527996108	83.7474646996707	83.7639112998731	NA	NA	NA	NA	NA	NA	NA	"02"	"01"	"2024-01-30_15h57.08.934"	"BART_exp"	"2023.2.3"	119.917448590691	"2024-01-30 15h57.20.731492 +0100"	NA
"balloon.png"	5	0	3	3	1	83.7639112998731	NA	NA	NA	NA	NA	NA	NA	NA	NA	NA	NA	NA	83.7476530997083	83.7639112998731	83.7639112998731	83.7639112998731	83.7639112998731	83.7639112998731	-0.00055840006098151	-0.00055840006098151	-0.00055840006098151	83.7639112998731	86.3909173998982	6	0.25	TRUE	"[-0.04259259259259259, -0.044444444444444446, -0.044444444444444446, -0.041666666666666664, -0.041666666666666664, -0.041666666666666664]"	"[-0.36944444444444446, -0.37037037037037035, -0.37037037037037035, -0.3675925925925926, -0.36666666666666664, -0.36666666666666664]"	"[1, 1, 1, 1, 1, 1]"	"[0, 0, 0, 0, 0, 0]"	"[0, 0, 0, 0, 0, 0]"	"[1.0504187997430563, 1.642106699757278, 1.891991099808365, 2.1169587997719646, 2.333741399925202, 2.52533599967137]"	6	"[1.041953899897635, 1.6336373998783529, 1.8835338996723294, 2.108492999803275, 2.3252897998318076, 2.5168701000511646]"	"[1.183360899798572, 1.7667258996516466, 1.9833760997280478, 2.20004429994151, 2.4250802998431027, 2.6264745998196304]"	86.3915637000464	86.4056975999847	87.8975165998563	NA	NA	NA	NA	NA	NA	NA	NA	"02"	"01"	"2024-01-30_15h57.08.934"	"BART_exp"	"2023.2.3"	119.917448590691	"2024-01-30 15h57.20.731492 +0100"	NA
"balloon.png"	105	0	4	4	24	87.9141555000097	NA	NA	NA	NA	NA	NA	NA	NA	NA	NA	NA	NA	87.8976932996884	87.9141555000097	87.9141555000097	87.9141555000097	87.9141555000097	87.9141555000097	0.00750279985368251	0.00750279985368251	0.00750279985368251	87.9141555000097	100.199942399748	20	1	FALSE	"[-0.018518518518518517, -0.018518518518518517, -0.018518518518518517, -0.018518518518518517, -0.018518518518518517, -0.018518518518518517, -0.018518518518518517, -0.018518518518518517, -0.018518518518518517, -0.018518518518518517, -0.018518518518518517, -0.018518518518518517, -0.018518518518518517, -0.018518518518518517, -0.018518518518518517, -0.018518518518518517, -0.018518518518518517, -0.011111111111111112, -0.011111111111111112, -0.011111111111111112, -0.003703703703703704]"	"[-0.38981481481481484, -0.38981481481481484, -0.38981481481481484, -0.38981481481481484, -0.38981481481481484, -0.38981481481481484, -0.38981481481481484, -0.38981481481481484, -0.38981481481481484, -0.38981481481481484, -0.38981481481481484, -0.38981481481481484, -0.38981481481481484, -0.38981481481481484, -0.38981481481481484, -0.38981481481481484, -0.38981481481481484, -0.387037037037037, -0.387037037037037, -0.387037037037037, -0.24814814814814815]"	"[1, 1, 1, 1, 1, 1, 1, 1, 1, 1, 1, 1, 1, 1, 1, 1, 1, 1, 1, 1, 0]"	"[0, 0, 0, 0, 0, 0, 0, 0, 0, 0, 0, 0, 0, 0, 0, 0, 0, 0, 0, 0, 0]"	"[0, 0, 0, 0, 0, 0, 0, 0, 0, 0, 0, 0, 0, 0, 0, 0, 0, 0, 0, 0, 1]"	"[2.1839226000010967, 2.4424248998984694, 2.684103200212121, 3.067457700148225, 3.459178199991584, 3.884222500026226, 4.192382300272584, 4.4343071999028325, 4.850913499947637, 5.450952600222081, 5.834419200196862, 6.1093490002676845, 6.367592399939895, 6.634386999998242, 7.601006899960339, 8.04284350015223, 8.40112920012325, 9.517781400121748, 10.534491000231355, 10.976183699909598, 12.301353000104427]"	20	"[2.175581800285727, 2.4340870999731123, 2.6757609001360834, 3.0591159998439252, 3.450836000032723, 3.87588099995628, 4.184044700115919, 4.42597070010379, 4.8425755999051034, 5.442609000019729, 5.826081200037152, 6.101009100209922, 6.359263000078499, 6.626044900156558, 7.592664700001478, 8.034500500187278, 8.3927833000198, 9.509437600150704, 10.526145500130951, 10.967840699944645]"	"[2.292095100041479, 2.550430300179869, 2.7671047998592257, 3.167151500005275, 3.57550449995324, 3.975734999869019, 4.300551100168377, 4.5506413001567125, 4.967269999906421, 5.558969600126147, 5.942323100287467, 6.192347399890423, 6.46740989992395, 6.800744399894029, 7.700787300243974, 8.127183199860156, 8.517515500076115, 9.61760100023821, 10.617711500264704, 11.092684700153768]"	100.20114749996	100.206657100003	101.698588599917	101.706752299797	NA	NA	NA	NA	NA	NA	NA	"02"	"01"	"2024-01-30_15h57.08.934"	"BART_exp"	"2023.2.3"	119.917448590691	"2024-01-30 15h57.20.731492 +0100"	NA
"balloon.png"	10	0	5	5	2	101.706752299797	NA	NA	NA	NA	NA	NA	NA	NA	NA	NA	NA	NA	101.698764899746	101.706752299797	101.706752299797	101.706752299797	101.706752299797	101.706752299797	0.00566609995439648	0.00566609995439648	0.00566609995439648	101.706752299797	110.167733700015	11	0.5	TRUE	"[-0.03796296296296296, -0.03796296296296296, -0.03796296296296296, -0.03796296296296296, -0.03796296296296296, -0.03796296296296296, -0.03796296296296296, -0.03796296296296296, -0.03796296296296296, -0.03796296296296296, -0.03796296296296296]"	"[-0.3907407407407407, -0.3907407407407407, -0.3907407407407407, -0.3907407407407407, -0.3907407407407407, -0.3907407407407407, -0.3907407407407407, -0.3907407407407407, -0.3907407407407407, -0.3907407407407407, -0.3907407407407407]"	"[1, 1, 1, 1, 1, 1, 1, 1, 1, 1, 1]"	"[0, 0, 0, 0, 0, 0, 0, 0, 0, 0, 0]"	"[0, 0, 0, 0, 0, 0, 0, 0, 0, 0, 0]"	"[5.567373599857092, 5.984178599901497, 6.225961400195956, 6.425898999907076, 6.6342926998622715, 6.859385100193322, 7.167607800103724, 7.450973299797624, 7.8676626002416015, 8.134219400119036, 8.334170099813491]"	11	"[5.5655359998345375, 5.98233179980889, 6.224122199695557, 6.424060499761254, 6.63245389983058, 6.857539900112897, 7.165764099918306, 7.4491364997811615, 7.865820100065321, 8.132386100012809, 8.332327099982649]"	"[5.673666599672288, 6.0987050998955965, 6.315503699705005, 6.532058599870652, 6.765409999992698, 6.99878800008446, 7.282114299945533, 7.557155800051987, 8.007170700002462, 8.223892400041223, 8.457199699711055]"	110.168529999908	110.173987099901	111.666022799909	111.682432899717	NA	NA	NA	NA	NA	NA	NA	"02"	"01"	"2024-01-30_15h57.08.934"	"BART_exp"	"2023.2.3"	119.917448590691	"2024-01-30 15h57.20.731492 +0100"	NA
"balloon.png"	123	0	6	6	28	111.682432899717	NA	NA	NA	NA	NA	NA	NA	NA	NA	NA	NA	NA	111.666214199737	111.682432899717	111.682432899717	111.682432899717	111.682432899717	111.682432899717	-0.00087539991363883	-0.00087539991363883	-0.00087539991363883	111.682432899717	121.976334299892	14	0.7	FALSE	"[-0.023148148148148147, -0.023148148148148147, -0.023148148148148147, -0.023148148148148147, -0.023148148148148147, -0.023148148148148147, -0.023148148148148147, -0.023148148148148147, -0.023148148148148147, -0.023148148148148147, -0.018518518518518517, -0.018518518518518517, -0.009259259259259259, -0.001851851851851852, 0.007407407407407408]"	"[-0.4046296296296296, -0.4046296296296296, -0.4046296296296296, -0.40370370370370373, -0.40370370370370373, -0.40370370370370373, -0.4027777777777778, -0.4027777777777778, -0.4027777777777778, -0.4027777777777778, -0.38333333333333336, -0.38333333333333336, -0.3731481481481482, -0.37407407407407406, -0.30092592592592593]"	"[1, 1, 1, 1, 1, 1, 1, 1, 1, 1, 1, 1, 1, 1, 0]"	"[0, 0, 0, 0, 0, 0, 0, 0, 0, 0, 0, 0, 0, 0, 0]"	"[0, 0, 0, 0, 0, 0, 0, 0, 0, 0, 0, 0, 0, 0, 1]"	"[0.4753212998621166, 0.7251732996664941, 0.9918470997363329, 1.2420709999278188, 1.6089138998650014, 1.8755881995894015, 2.566953799687326, 2.783823599573225, 3.008834999985993, 3.5337599995546043, 4.500682999845594, 6.192326399963349, 7.8591585997492075, 9.542436499614269, 10.309140399564058]"	14	"[0.465425499714911, 0.7152795000001788, 0.981951099820435, 1.232180300168693, 1.5990249998867512, 1.865701099857688, 2.557068499736488, 2.7739367997273803, 2.9989474997855723, 3.5238665998913348, 4.490814399905503, 6.182433699723333, 7.849265799857676, 9.532543200068176]"	"[0.5901040998287499, 0.8484637998044491, 1.0901520000770688, 1.4151503997854888, 1.7569714998826385, 1.9739247998222709, 2.6652524997480214, 2.898591599892825, 3.1319371997378767, 3.6653201999142766, 4.623722900170833, 6.3404767997562885, 7.9656404997222126, 9.640788400080055]"	121.977192899678	121.983103599865	123.475100500043	123.499865799677	NA	NA	NA	NA	NA	NA	NA	"02"	"01"	"2024-01-30_15h57.08.934"	"BART_exp"	"2023.2.3"	119.917448590691	"2024-01-30 15h57.20.731492 +0100"	NA
"balloon.png"	75	0	7	7	17	123.499865799677	NA	NA	NA	NA	NA	NA	NA	NA	NA	NA	NA	NA	123.475277999882	123.499865799677	123.499865799677	123.499865799677	123.499865799677	123.499865799677	-0.00067370012402534	-0.00067370012402534	-0.00067370012402534	123.499865799677	130.285393999889	13	0.65	FALSE	"[-0.014814814814814815, -0.014814814814814815, -0.014814814814814815, -0.014814814814814815, -0.014814814814814815, -0.014814814814814815, -0.014814814814814815, -0.014814814814814815, -0.014814814814814815, -0.014814814814814815, -0.014814814814814815, -0.014814814814814815, -0.014814814814814815, 0.03518518518518519]"	"[-0.3861111111111111, -0.3861111111111111, -0.3861111111111111, -0.3861111111111111, -0.3861111111111111, -0.3861111111111111, -0.3861111111111111, -0.3861111111111111, -0.3861111111111111, -0.3861111111111111, -0.3861111111111111, -0.3861111111111111, -0.3861111111111111, -0.2712962962962963]"	"[1, 1, 1, 1, 1, 1, 1, 1, 1, 1, 1, 1, 1, 0]"	"[0, 0, 0, 0, 0, 0, 0, 0, 0, 0, 0, 0, 0, 0]"	"[0, 0, 0, 0, 0, 0, 0, 0, 0, 0, 0, 0, 0, 1]"	"[0.32546439999714494, 0.6671362002380192, 1.0505408002063632, 1.4338966999202967, 1.7671789000742137, 2.1588691999204457, 2.5505618997849524, 2.9504331001080573, 3.2339514000341296, 3.6089933002367616, 4.275689200032502, 4.708902799990028, 5.059166999999434, 6.809193899855018]"	13	"[0.3144315998069942, 0.6561087998561561, 1.0395116996951401, 1.4228610000573099, 1.7561466000042856, 2.1478352998383343, 2.539527699816972, 2.9393981997855008, 3.222916199825704, 3.5979575999081135, 4.264659599866718, 4.6978730000555515, 5.048134699929506]"	"[0.4223947999998927, 0.739102500025183, 1.1475052000023425, 1.5308675998821855, 1.8808456999249756, 2.2560636000707746, 2.6393353999592364, 3.047693199943751, 3.355967099778354, 3.7142968997359276, 4.414379199966788, 4.797708199825138, 5.181056399829686]"	130.286315099802	130.291995099746	131.783958999906	131.808757300023	NA	NA	NA	NA	NA	NA	NA	"02"	"01"	"2024-01-30_15h57.08.934"	"BART_exp"	"2023.2.3"	119.917448590691	"2024-01-30 15h57.20.731492 +0100"	NA
"balloon.png"	88	0	8	8	20	131.808757300023	NA	NA	NA	NA	NA	NA	NA	NA	NA	NA	NA	NA	131.78413729975	131.808757300023	131.808757300023	131.808757300023	131.808757300023	131.808757300023	-0.00092050014063715	-0.00092050014063715	-0.00092050014063715	131.808757300023	144.461343699601	18	0.9	FALSE	"[0.003703703703703704, 0.003703703703703704, 0.003703703703703704, 0.003703703703703704, 0.003703703703703704, 0.003703703703703704, 0.003703703703703704, 0.003703703703703704, 0.003703703703703704, 0.003703703703703704, 0.003703703703703704, 0.000925925925925926, 0.000925925925925926, -0.013888888888888888, -0.013888888888888888, -0.013888888888888888, -0.013888888888888888, -0.018518518518518517, 0.020370370370370372]"	"[-0.37222222222222223, -0.37222222222222223, -0.37222222222222223, -0.37222222222222223, -0.37222222222222223, -0.37222222222222223, -0.37222222222222223, -0.37222222222222223, -0.37037037037037035, -0.37037037037037035, -0.37037037037037035, -0.37962962962962965, -0.38055555555555554, -0.36018518518518516, -0.36018518518518516, -0.36018518518518516, -0.36203703703703705, -0.37962962962962965, -0.28425925925925927]"	"[1, 1, 1, 1, 1, 1, 1, 1, 1, 1, 1, 1, 1, 1, 1, 1, 1, 1, 0]"	"[0, 0, 0, 0, 0, 0, 0, 0, 0, 0, 0, 0, 0, 0, 0, 0, 0, 0, 0]"	"[0, 0, 0, 0, 0, 0, 0, 0, 0, 0, 0, 0, 0, 0, 0, 0, 0, 0, 1]"	"[0.775364900007844, 1.0336717003956437, 1.275512000080198, 1.583886600099504, 1.8922636001370847, 2.1504740002565086, 2.4171035001054406, 2.750711400061846, 3.51734960032627, 3.742413999978453, 4.275736000388861, 5.284214100334793, 5.934242600109428, 8.209185400046408, 8.451115699950606, 9.192586900200695, 10.434322400018573, 11.467910000123084, 12.676290300209075]"	18	"[0.7638022000901401, 1.0221028001978993, 1.2639413001015782, 1.5723208002746105, 1.880698500201106, 2.138905900064856, 2.4055322003550828, 2.7391512002795935, 3.5057805003598332, 3.73084510024637, 4.264176100026816, 5.27264660038054, 5.922678499948233, 8.197617600206286, 8.439544999971986, 9.181035500019789, 10.422752100042999, 11.456345499958843]"	"[0.8719299002550542, 1.1304035000503063, 1.3886538003571332, 1.722002100199461, 2.005371400155127, 2.272027200087905, 2.522067700047046, 2.8720885002985597, 3.62215940002352, 3.8388378000818193, 4.430579800158739, 5.455577000044286, 6.047298100311309, 8.31410300033167, 8.580848600249738, 9.289176899939775, 10.589287100359797, 11.581144300289452]"	144.462252599653	144.467957399786	145.959950899705	145.976404399611	NA	NA	NA	NA	NA	NA	NA	"02"	"01"	"2024-01-30_15h57.08.934"	"BART_exp"	"2023.2.3"	119.917448590691	"2024-01-30 15h57.20.731492 +0100"	NA
"balloon.png"	14	0	9	9	3	145.976404399611	NA	NA	NA	NA	NA	NA	NA	NA	NA	NA	NA	NA	145.960132999811	145.976404399611	145.976404399611	145.976404399611	145.976404399611	145.976404399611	-0.00085410010069608	-0.00085410010069608	-0.00085410010069608	145.976404399611	152.787051899824	15	0.7	TRUE	"[0.024074074074074074, 0.024074074074074074, 0.024074074074074074, 0.024074074074074074, 0.024074074074074074, 0.025, 0.025, 0.025, 0.025, 0.025, 0.025, 0.025, 0.025, 0.025, 0.025]"	"[-0.38425925925925924, -0.38425925925925924, -0.38425925925925924, -0.38425925925925924, -0.38425925925925924, -0.3851851851851852, -0.3851851851851852, -0.3851851851851852, -0.3851851851851852, -0.3851851851851852, -0.3851851851851852, -0.3851851851851852, -0.3851851851851852, -0.3851851851851852, -0.3851851851851852]"	"[1, 1, 1, 1, 1, 1, 1, 1, 1, 1, 1, 1, 1, 1, 1]"	"[0, 0, 0, 0, 0, 0, 0, 0, 0, 0, 0, 0, 0, 0, 0]"	"[0, 0, 0, 0, 0, 0, 0, 0, 0, 0, 0, 0, 0, 0, 0]"	"[1.5836599003523588, 2.2671671002171934, 2.492218800354749, 2.7006196002475917, 2.842199200298637, 3.075664300005883, 3.277041300199926, 3.492295100353658, 3.667332800105214, 4.367188300006092, 4.5840648002922535, 4.817223300226033, 5.484158200211823, 6.484237900003791, 6.692571800202131]"	15	"[1.5781170004047453, 2.2616180004552007, 2.4866685001179576, 2.695070800371468, 2.836651800200343, 3.0701245004311204, 3.2716495003551245, 3.486750700045377, 3.6617906000465155, 4.361643000040203, 4.578519000206143, 4.8116803001612425, 5.478613800369203, 6.4786940002813935, 6.687027000356466]"	"[1.7196299000643194, 2.3697384004481137, 2.5863982001319528, 2.769729200284928, 2.953091200441122, 3.1781797003932297, 3.3697832003235817, 3.5947664002887905, 3.7782997000031173, 4.478181100450456, 4.686563100200146, 4.911523400340229, 5.603444800246507, 6.603287200443447, 6.8116888999938965]"	152.787907899823	152.79351540003	154.285458900034	154.310287199914	NA	NA	NA	NA	NA	NA	NA	"02"	"01"	"2024-01-30_15h57.08.934"	"BART_exp"	"2023.2.3"	119.917448590691	"2024-01-30 15h57.20.731492 +0100"	NA
"balloon.png"	27	0	10	10	6	154.310287199914	NA	NA	NA	NA	NA	NA	NA	NA	NA	NA	NA	NA	154.285635199863	154.310287199914	154.310287199914	154.310287199914	154.310287199914	154.310287199914	-0.00098090013489127	-0.00098090013489127	-0.00098090013489127	154.310287199914	160.895616499707	10	0.5	FALSE	"[-0.027777777777777776, -0.027777777777777776, -0.027777777777777776, -0.027777777777777776, -0.027777777777777776, -0.027777777777777776, -0.027777777777777776, -0.027777777777777776, -0.027777777777777776, -0.027777777777777776, 0.09814814814814815]"	"[-0.3888888888888889, -0.3888888888888889, -0.3888888888888889, -0.3888888888888889, -0.3888888888888889, -0.3888888888888889, -0.3888888888888889, -0.3888888888888889, -0.3888888888888889, -0.3888888888888889, -0.2574074074074074]"	"[1, 1, 1, 1, 1, 1, 1, 1, 1, 1, 0]"	"[0, 0, 0, 0, 0, 0, 0, 0, 0, 0, 0]"	"[0, 0, 0, 0, 0, 0, 0, 0, 0, 0, 1]"	"[1.8006139998324215, 2.083781700115651, 2.65885560028255, 3.334016100037843, 3.600740000139922, 3.858896399848163, 4.692381999921054, 4.925934700295329, 5.250663599930704, 5.8840411002747715, 6.609097099862993]"	10	"[1.7900839000940323, 2.073228500317782, 2.6483016000129282, 3.3234609002247453, 3.590190500020981, 3.8483438002876937, 4.6737282001413405, 4.915381799917668, 5.240111900027841, 5.87349160015583]"	"[1.9313902002759278, 2.2065011002123356, 2.7648451002314687, 3.456522200256586, 3.6981938001699746, 3.9816455002874136, 4.789973200298846, 5.0235327002592385, 5.381626900285482, 6.023372299969196]"	160.896462199744	160.902391299605	162.394419899676	162.419186799787	NA	NA	NA	NA	NA	NA	NA	"02"	"01"	"2024-01-30_15h57.08.934"	"BART_exp"	"2023.2.3"	119.917448590691	"2024-01-30 15h57.20.731492 +0100"	NA
"balloon.png"	118	0	11	11	27	162.419186799787	NA	NA	NA	NA	NA	NA	NA	NA	NA	NA	NA	NA	162.394600099884	162.419186799787	162.419186799787	162.419186799787	162.419186799787	162.419186799787	-0.00049840006977319	-0.00049840006977319	-0.00049840006977319	162.419186799787	171.938016299624	15	0.75	FALSE	"[-0.028703703703703703, -0.028703703703703703, -0.028703703703703703, -0.028703703703703703, -0.028703703703703703, -0.028703703703703703, -0.028703703703703703, -0.028703703703703703, -0.028703703703703703, -0.028703703703703703, -0.028703703703703703, -0.028703703703703703, -0.028703703703703703, -0.028703703703703703, -0.028703703703703703, 0.023148148148148147]"	"[-0.3888888888888889, -0.3888888888888889, -0.3888888888888889, -0.3888888888888889, -0.3888888888888889, -0.3888888888888889, -0.3888888888888889, -0.3888888888888889, -0.3888888888888889, -0.3888888888888889, -0.3888888888888889, -0.3888888888888889, -0.3888888888888889, -0.3888888888888889, -0.3888888888888889, -0.25462962962962965]"	"[1, 1, 1, 1, 1, 1, 1, 1, 1, 1, 1, 1, 1, 1, 1, 0]"	"[0, 0, 0, 0, 0, 0, 0, 0, 0, 0, 0, 0, 0, 0, 0, 0]"	"[0, 0, 0, 0, 0, 0, 0, 0, 0, 0, 0, 0, 0, 0, 0, 1]"	"[2.8589502996765077, 3.100410799961537, 3.33402210008353, 3.583879299927503, 3.842320299707353, 4.0838715001009405, 4.550487999804318, 4.784060999751091, 6.017398199997842, 6.675895099993795, 7.042534200008959, 7.659275999758393, 7.934101699851453, 8.142426100093871, 8.359211300034076, 9.542495899833739]"	15	"[2.847566300071776, 3.089018499944359, 3.322630099952221, 3.5724868001416326, 3.830938500352204, 4.072482600342482, 4.539102100301534, 4.7726663001812994, 6.006002600304782, 6.664507400244474, 7.031145200133324, 7.647891700267792, 7.9227134003303945, 8.131031500175595, 8.347813399974257]"	"[2.9721945002675056, 3.2138702999800444, 3.463900899980217, 3.6972310999408364, 3.947241300251335, 4.230614100117236, 4.6472927001304924, 4.914035500027239, 6.147391400299966, 6.8224365003407, 7.180805600248277, 7.755929599981755, 8.005883700214326, 8.255849900189787, 8.47256110003218]"	171.938849600032	171.94487029966	173.436822399963	173.453246699646	NA	NA	NA	NA	NA	NA	NA	"02"	"01"	"2024-01-30_15h57.08.934"	"BART_exp"	"2023.2.3"	119.917448590691	"2024-01-30 15h57.20.731492 +0100"	NA
"balloon.png"	66	0	12	12	15	173.453246699646	NA	NA	NA	NA	NA	NA	NA	NA	NA	NA	NA	NA	173.437003199942	173.453246699646	173.453246699646	173.453246699646	173.453246699646	173.453246699646	-0.00049580028280615	-0.00049580028280615	-0.00049580028280615	173.453246699646	185.505601000041	21	1.05	FALSE	"[-0.028703703703703703, -0.028703703703703703, -0.028703703703703703, -0.028703703703703703, -0.027777777777777776, -0.027777777777777776, -0.027777777777777776, -0.027777777777777776, -0.027777777777777776, -0.027777777777777776, -0.027777777777777776, -0.027777777777777776, -0.027777777777777776, -0.027777777777777776, -0.027777777777777776, -0.027777777777777776, -0.027777777777777776, -0.001851851851851852, -0.006481481481481481, -0.007407407407407408, -0.007407407407407408, 0.03148148148148148]"	"[-0.362962962962963, -0.362962962962963, -0.362962962962963, -0.362962962962963, -0.362962962962963, -0.362962962962963, -0.362962962962963, -0.362962962962963, -0.362962962962963, -0.362962962962963, -0.362962962962963, -0.362962962962963, -0.362962962962963, -0.362962962962963, -0.362962962962963, -0.362962962962963, -0.38055555555555554, -0.3638888888888889, -0.3638888888888889, -0.3638888888888889, -0.3638888888888889, -0.2916666666666667]"	"[1, 1, 1, 1, 1, 1, 1, 1, 1, 1, 1, 1, 1, 1, 1, 1, 1, 1, 1, 1, 1, 0]"	"[0, 0, 0, 0, 0, 0, 0, 0, 0, 0, 0, 0, 0, 0, 0, 0, 0, 0, 0, 0, 0, 0]"	"[0, 0, 0, 0, 0, 0, 0, 0, 0, 0, 0, 0, 0, 0, 0, 0, 0, 0, 0, 0, 0, 1]"	"[1.1671440000645816, 1.3838039003312588, 1.5838465001434088, 1.7755152001045644, 1.9921927000395954, 2.2088625002652407, 2.442227399908006, 2.6755202999338508, 2.8672531000338495, 3.142247899901122, 3.5174344000406563, 4.167308900039643, 4.40900389989838, 4.69238550029695, 5.342416500207037, 5.809126700274646, 6.717615200206637, 7.867551600094885, 8.875837200321257, 9.092504899948835, 9.835676699876785, 12.067680000327528]"	21	"[1.1578290001489222, 1.3744888002984226, 1.5745322001166642, 1.766200500074774, 1.9828730002045631, 2.1995484000071883, 2.4329170999117196, 2.6662043002434075, 2.85793639998883, 3.1329319002106786, 3.508119599893689, 4.157995100133121, 4.399728400167078, 4.683070400264114, 5.333104700315744, 5.799817200284451, 6.708299400284886, 7.858239900320768, 8.866521600168198, 9.083188000135124, 9.826520999893546]"	"[1.274162500165403, 1.4826023001223803, 1.674195900093764, 1.8825322003103793, 2.1075638001784682, 2.3492745999246836, 2.5575832002796233, 2.7742997999303043, 2.999319900292903, 3.324419000186026, 3.657643100246787, 4.299396899994463, 4.499384300317615, 4.849407400004566, 5.474458900280297, 5.941141299903393, 6.874547500163317, 7.99128059996292, 8.999676099978387, 9.1830083001405, 9.950124999973923]"	185.506695699878	185.512416000012	187.004433800001	187.029192700051	NA	NA	NA	NA	NA	NA	NA	"02"	"01"	"2024-01-30_15h57.08.934"	"BART_exp"	"2023.2.3"	119.917448590691	"2024-01-30 15h57.20.731492 +0100"	NA
"balloon.png"	127	0	13	13	29	187.029192700051	NA	NA	NA	NA	NA	NA	NA	NA	NA	NA	NA	NA	187.004616099875	187.029192700051	187.029192700051	187.029192700051	187.029192700051	187.029192700051	-0.00069099990651011	-0.00069099990651011	-0.00069099990651011	187.029192700051	192.697782299947	14	0.7	FALSE	"[0.028703703703703703, 0.028703703703703703, 0.028703703703703703, 0.028703703703703703, 0.028703703703703703, 0.028703703703703703, 0.028703703703703703, 0.028703703703703703, 0.028703703703703703, 0.028703703703703703, 0.02962962962962963, 0.028703703703703703, 0.027777777777777776, 0.027777777777777776, 0.04537037037037037]"	"[-0.38796296296296295, -0.38796296296296295, -0.38796296296296295, -0.38796296296296295, -0.38796296296296295, -0.38796296296296295, -0.38796296296296295, -0.38796296296296295, -0.3888888888888889, -0.38796296296296295, -0.3861111111111111, -0.37592592592592594, -0.3768518518518518, -0.3768518518518518, -0.26296296296296295]"	"[1, 1, 1, 1, 1, 1, 1, 1, 1, 1, 1, 1, 1, 1, 0]"	"[0, 0, 0, 0, 0, 0, 0, 0, 0, 0, 0, 0, 0, 0, 0]"	"[0, 0, 0, 0, 0, 0, 0, 0, 0, 0, 0, 0, 0, 0, 1]"	"[0.7252128999680281, 0.9505322002805769, 1.1753894002176821, 1.3755415002815425, 1.5671844999305904, 1.8004479999653995, 2.0004471000283957, 2.217125399969518, 2.600528399925679, 2.925655100028962, 3.5839464999735355, 4.400651100091636, 4.800654500257224, 5.042320299893618, 5.692224100232124]"	14	"[0.7141550001688302, 0.9394741002470255, 1.164335099980235, 1.3644834998995066, 1.556127100251615, 1.78938930016011, 1.9893920002505183, 2.206071600317955, 2.5894726999104023, 2.9146096003241837, 3.5728933000937104, 4.389593900181353, 4.789596499875188, 5.031268000137061]"	"[0.8223552000708878, 1.0557013000361621, 1.2724061999469995, 1.4724135999567807, 1.6890849000774324, 1.9057630002498627, 2.1141075999476016, 2.3642933000810444, 2.705861700233072, 3.0307962000370026, 3.6808516001328826, 4.497679200023413, 4.905957799870521, 5.139391399919987]"	192.698569699656	192.704550399911	194.196593999863	194.212991700042	NA	NA	NA	NA	NA	NA	NA	"02"	"01"	"2024-01-30_15h57.08.934"	"BART_exp"	"2023.2.3"	119.917448590691	"2024-01-30 15h57.20.731492 +0100"	NA
"balloon.png"	62	0	14	14	14	194.212991700042	NA	NA	NA	NA	NA	NA	NA	NA	NA	NA	NA	NA	194.196779999882	194.212991700042	194.212991700042	194.212991700042	194.212991700042	194.212991700042	-0.0005252999253571	-0.0005252999253571	-0.0005252999253571	194.212991700042	203.648548000026	15	0.75	FALSE	"[-0.03796296296296296, -0.03796296296296296, -0.03796296296296296, -0.03796296296296296, -0.03796296296296296, -0.03796296296296296, -0.03796296296296296, -0.03796296296296296, -0.03796296296296296, -0.03796296296296296, -0.03796296296296296, -0.03796296296296296, -0.03796296296296296, -0.03796296296296296, -0.03518518518518519, 0.028703703703703703]"	"[-0.3648148148148148, -0.3648148148148148, -0.3648148148148148, -0.3648148148148148, -0.3648148148148148, -0.3648148148148148, -0.3648148148148148, -0.3648148148148148, -0.3648148148148148, -0.3648148148148148, -0.3648148148148148, -0.3648148148148148, -0.3648148148148148, -0.3648148148148148, -0.36018518518518516, -0.2462962962962963]"	"[1, 1, 1, 1, 1, 1, 1, 1, 1, 1, 1, 1, 1, 1, 1, 0]"	"[0, 0, 0, 0, 0, 0, 0, 0, 0, 0, 0, 0, 0, 0, 0, 0]"	"[0, 0, 0, 0, 0, 0, 0, 0, 0, 0, 0, 0, 0, 0, 0, 1]"	"[2.3253712002187967, 2.550496300216764, 2.7421401999890804, 2.9755622004158795, 3.2019025003537536, 3.4089178000576794, 3.617380200419575, 3.834029100369662, 4.317105700261891, 4.525446300394833, 5.242337699979544, 5.692241400014609, 7.0840140003710985, 7.459050500299782, 8.425916700158268, 9.450838600285351]"	15	"[2.316055600065738, 2.5411820001900196, 2.732827899977565, 2.966244699899107, 3.1927493000403047, 3.399602700024843, 3.608068599831313, 3.8247155998833477, 4.307791899889708, 4.516131000127643, 5.233024099841714, 5.682930800132453, 7.074695900082588, 7.449736999813467, 8.416601500008255]"	"[2.4325272999703884, 2.6575263999402523, 2.874221299774945, 3.08257419988513, 3.2992723998613656, 3.5076115000993013, 3.6993015999905765, 3.9078783001750708, 4.391005999874324, 4.61623220006004, 5.307743899989873, 5.7827379000373185, 7.191179600078613, 7.566246499773115, 8.532985699828714]"	203.649338899646	203.655290399678	205.147247499786	205.163718699943	NA	NA	NA	NA	NA	NA	NA	"02"	"01"	"2024-01-30_15h57.08.934"	"BART_exp"	"2023.2.3"	119.917448590691	"2024-01-30 15h57.20.731492 +0100"	NA
"balloon.png"	53	0	15	15	12	205.163718699943	NA	NA	NA	NA	NA	NA	NA	NA	NA	NA	NA	NA	205.147423299961	205.163718699943	205.163718699943	205.163718699943	205.163718699943	205.163718699943	-0.00067429989576339	-0.00067429989576339	-0.00067429989576339	205.163718699943	216.266024400014	16	0.8	FALSE	"[-0.02962962962962963, -0.02962962962962963, -0.02962962962962963, -0.02962962962962963, -0.02962962962962963, -0.02962962962962963, -0.02962962962962963, -0.02962962962962963, -0.02962962962962963, -0.02962962962962963, -0.02962962962962963, -0.02962962962962963, -0.02962962962962963, -0.028703703703703703, -0.023148148148148147, -0.023148148148148147, 0.03888888888888889]"	"[-0.3814814814814815, -0.3814814814814815, -0.3814814814814815, -0.3814814814814815, -0.3814814814814815, -0.3814814814814815, -0.3814814814814815, -0.3814814814814815, -0.3814814814814815, -0.3814814814814815, -0.3814814814814815, -0.3814814814814815, -0.3814814814814815, -0.4083333333333333, -0.38796296296296295, -0.38981481481481484, -0.2777777777777778]"	"[1, 1, 1, 1, 1, 1, 1, 1, 1, 1, 1, 1, 1, 1, 1, 1, 0]"	"[0, 0, 0, 0, 0, 0, 0, 0, 0, 0, 0, 0, 0, 0, 0, 0, 0]"	"[0, 0, 0, 0, 0, 0, 0, 0, 0, 0, 0, 0, 0, 0, 0, 0, 1]"	"[1.6837435998022556, 2.7088438998907804, 2.9673411999829113, 3.225718699861318, 3.4508394999429584, 3.758897100109607, 3.9923769999295473, 4.367415899876505, 4.784133499953896, 5.2508108001202345, 6.059192100074142, 6.30071229999885, 6.500727099832147, 8.309223900083452, 9.692773399874568, 9.892634199932218, 11.11768569983542]"	16	"[1.6754004997201264, 2.700495599769056, 2.9589945999905467, 3.217372599989176, 3.442488200031221, 3.750552199780941, 3.9840266997925937, 4.35906649986282, 4.775782700162381, 5.2424592999741435, 6.050841199699789, 6.2924016998149455, 6.492376099806279, 8.300881600007415, 9.684426399879158, 9.884287899825722]"	"[1.833622899837792, 2.850318499840796, 3.075391400139779, 3.3170181000605226, 3.5587272997945547, 3.8670727000571787, 4.100411199964583, 4.4754607998766005, 4.917148599866778, 5.367318499833345, 6.183887700084597, 6.383876899722964, 6.592264600098133, 8.459027300123125, 9.784114100039005, 9.984355499967933]"	216.266928999685	216.272808099631	217.764765899628	217.789587299805	NA	NA	NA	NA	NA	NA	NA	"02"	"01"	"2024-01-30_15h57.08.934"	"BART_exp"	"2023.2.3"	119.917448590691	"2024-01-30 15h57.20.731492 +0100"	NA
"balloon.png"	114	0	16	16	26	217.789587299805	NA	NA	NA	NA	NA	NA	NA	NA	NA	NA	NA	NA	217.764943100046	217.789587299805	217.789587299805	217.789587299805	217.789587299805	217.789587299805	-0.00068069994449615	-0.00068069994449615	-0.00068069994449615	217.789587299805	229.492172899656	18	0.9	FALSE	"[-0.004629629629629629, -0.004629629629629629, -0.004629629629629629, -0.004629629629629629, -0.004629629629629629, -0.004629629629629629, -0.004629629629629629, -0.004629629629629629, -0.004629629629629629, -0.004629629629629629, -0.004629629629629629, -0.004629629629629629, -0.004629629629629629, -0.004629629629629629, -0.004629629629629629, -0.004629629629629629, -0.004629629629629629, -0.004629629629629629, 0.016666666666666666]"	"[-0.3768518518518518, -0.3768518518518518, -0.3768518518518518, -0.3768518518518518, -0.3768518518518518, -0.3768518518518518, -0.3768518518518518, -0.3768518518518518, -0.3768518518518518, -0.3768518518518518, -0.3768518518518518, -0.3768518518518518, -0.3768518518518518, -0.3768518518518518, -0.3768518518518518, -0.3768518518518518, -0.3768518518518518, -0.3768518518518518, -0.31203703703703706]"	"[1, 1, 1, 1, 1, 1, 1, 1, 1, 1, 1, 1, 1, 1, 1, 1, 1, 1, 0]"	"[0, 0, 0, 0, 0, 0, 0, 0, 0, 0, 0, 0, 0, 0, 0, 0, 0, 0, 0]"	"[0, 0, 0, 0, 0, 0, 0, 0, 0, 0, 0, 0, 0, 0, 0, 0, 0, 0, 1]"	"[2.458895499818027, 2.700472000055015, 3.0171849001199007, 3.2923723999410868, 3.5507525000721216, 3.833968000020832, 4.092241599690169, 4.359168199822307, 4.567491800058633, 4.800796499941498, 5.717348899692297, 5.934203699696809, 6.134222500026226, 7.059178299736232, 7.284148700069636, 8.70928299985826, 9.567801099736243, 10.3262424999848, 11.726329499855638]"	18	"[2.447656599804759, 2.68922709999606, 3.005951500032097, 3.28113909997046, 3.539520099759102, 3.8227351997047663, 4.081013199873269, 4.347931299824268, 4.5562521000392735, 4.789553199894726, 5.706108899787068, 5.922961199656129, 6.122992399614304, 7.047939199954271, 7.272911400068551, 8.698038899805397, 9.55655869981274, 10.315000199712813]"	"[2.5557538997381926, 2.8474439997226, 3.1474694996140897, 3.42251760000363, 3.6808747998438776, 3.922536099795252, 4.239546099677682, 4.472549299709499, 4.68923190003261, 4.906013399828225, 5.8143338998779655, 6.0393089996650815, 6.256014599930495, 7.164408899843693, 7.3978625000454485, 8.856190599966794, 9.697900800034404, 10.464630200061947]"	229.493053999729	229.498718699906	230.990731499624	231.007157499902	NA	NA	NA	NA	NA	NA	NA	"02"	"01"	"2024-01-30_15h57.08.934"	"BART_exp"	"2023.2.3"	119.917448590691	"2024-01-30 15h57.20.731492 +0100"	NA
"balloon.png"	31	0	17	17	7	231.007157499902	NA	NA	NA	NA	NA	NA	NA	NA	NA	NA	NA	NA	230.990910199936	231.007157499902	231.007157499902	231.007157499902	231.007157499902	231.007157499902	-0.00082250032573938	-0.00082250032573938	-0.00082250032573938	231.007157499902	246.860016399994	28	1.4	FALSE	"[-0.04814814814814815, -0.04814814814814815, -0.04814814814814815, -0.04814814814814815, -0.04814814814814815, -0.04814814814814815, -0.04814814814814815, -0.04814814814814815, -0.04814814814814815, -0.04814814814814815, -0.04814814814814815, -0.04814814814814815, -0.04814814814814815, -0.04814814814814815, -0.04814814814814815, -0.04814814814814815, -0.04814814814814815, -0.04814814814814815, -0.04814814814814815, -0.04814814814814815, -0.04814814814814815, -0.04722222222222222, -0.046296296296296294, -0.046296296296296294, -0.046296296296296294, -0.046296296296296294, -0.046296296296296294, -0.046296296296296294, 0.000925925925925926]"	"[-0.362962962962963, -0.362962962962963, -0.362962962962963, -0.362962962962963, -0.362962962962963, -0.362962962962963, -0.362962962962963, -0.362962962962963, -0.362962962962963, -0.362962962962963, -0.362962962962963, -0.362962962962963, -0.362962962962963, -0.362962962962963, -0.362962962962963, -0.362962962962963, -0.362962962962963, -0.362962962962963, -0.362962962962963, -0.362962962962963, -0.362962962962963, -0.37407407407407406, -0.3731481481481482, -0.37222222222222223, -0.37222222222222223, -0.37222222222222223, -0.37222222222222223, -0.37222222222222223, -0.2935185185185185]"	"[1, 1, 1, 1, 1, 1, 1, 1, 1, 1, 1, 1, 1, 1, 1, 1, 1, 1, 1, 1, 1, 1, 1, 1, 1, 1, 1, 1, 0]"	"[0, 0, 0, 0, 0, 0, 0, 0, 0, 0, 0, 0, 0, 0, 0, 0, 0, 0, 0, 0, 0, 0, 0, 0, 0, 0, 0, 0, 0]"	"[0, 0, 0, 0, 0, 0, 0, 0, 0, 0, 0, 0, 0, 0, 0, 0, 0, 0, 0, 0, 0, 0, 0, 0, 0, 0, 0, 0, 1]"	"[0.9754246999509633, 1.266945299692452, 1.5087818000465631, 1.7588112000375986, 1.9505019998177886, 2.200333899818361, 2.4003453999757767, 2.6170214996673167, 2.850364899728447, 3.092318299692124, 3.334226700011641, 3.5506382999010384, 3.8254362996667624, 4.100613699760288, 4.40883639967069, 4.817215799819678, 5.125712699722499, 5.500964799895883, 5.792248500045389, 6.150878599844873, 6.9258367996662855, 7.63429499976337, 8.509366099722683, 9.092641899827868, 9.859304599929601, 10.37606479972601, 12.45254039997235, 12.734534999821335, 15.868156499695033]"	28	"[0.9703021999448538, 1.2618196997791529, 1.503661499824375, 1.7536865998990834, 1.9453767999075353, 2.1952050998806953, 2.395222600083798, 2.611892499960959, 2.8452360997907817, 3.0871902997605503, 3.329121499788016, 3.5455176001414657, 3.820307199843228, 4.095490399748087, 4.403712099883705, 4.8120904001407325, 5.120583199895918, 5.4958457998000085, 5.78711949987337, 6.145753100048751, 6.920717599801719, 7.629189900122583, 8.504240399692208, 9.087512100115418, 9.854180099908262, 10.370943599846214, 12.447577899787575, 12.729406899772584]"	"[1.111634099856019, 1.370098799932748, 1.6283749998547137, 1.8450241000391543, 2.078425199724734, 2.2617351999506354, 2.5201297998428345, 2.7285368000157177, 3.028455200139433, 3.211901499889791, 3.445618299767375, 3.695165999699384, 3.9868692997843027, 4.2368972999975085, 4.5619053998962045, 4.978622499853373, 5.2536109001375735, 5.653675499837846, 5.887097199913114, 6.303781599737704, 7.07873099995777, 7.787103899754584, 8.612166999839246, 9.228854699991643, 9.978915099985898, 10.47906669974327, 12.579085499979556, 12.837431400083005]"	246.861148600001	246.866542999633	248.358560499735	248.366641199682	NA	NA	NA	NA	NA	NA	NA	"02"	"01"	"2024-01-30_15h57.08.934"	"BART_exp"	"2023.2.3"	119.917448590691	"2024-01-30 15h57.20.731492 +0100"	NA
"balloon.png"	110	0	18	18	25	248.366641199682	NA	NA	NA	NA	NA	NA	NA	NA	NA	NA	NA	NA	248.358744299971	248.366641199682	248.366641199682	248.366641199682	248.366641199682	248.366641199682	0.00555260013788938	0.00555260013788938	0.00555260013788938	248.366641199682	257.485885999631	20	1	FALSE	"[-0.017592592592592594, -0.017592592592592594, -0.017592592592592594, -0.017592592592592594, -0.017592592592592594, -0.017592592592592594, -0.017592592592592594, -0.017592592592592594, -0.017592592592592594, -0.017592592592592594, -0.017592592592592594, -0.017592592592592594, -0.017592592592592594, -0.017592592592592594, -0.017592592592592594, -0.017592592592592594, -0.017592592592592594, -0.013888888888888888, -0.013888888888888888, -0.013888888888888888, 0.012037037037037037]"	"[-0.37222222222222223, -0.37222222222222223, -0.3685185185185185, -0.3685185185185185, -0.3685185185185185, -0.3685185185185185, -0.3685185185185185, -0.3685185185185185, -0.3685185185185185, -0.3685185185185185, -0.3685185185185185, -0.3685185185185185, -0.3685185185185185, -0.3685185185185185, -0.3675925925925926, -0.3675925925925926, -0.3675925925925926, -0.3675925925925926, -0.36944444444444446, -0.3787037037037037, -0.2601851851851852]"	"[1, 1, 1, 1, 1, 1, 1, 1, 1, 1, 1, 1, 1, 1, 1, 1, 1, 1, 1, 1, 0]"	"[0, 0, 0, 0, 0, 0, 0, 0, 0, 0, 0, 0, 0, 0, 0, 0, 0, 0, 0, 0, 0]"	"[0, 0, 0, 0, 0, 0, 0, 0, 0, 0, 0, 0, 0, 0, 0, 0, 0, 0, 0, 0, 1]"	"[0.6252705999650061, 1.592184199951589, 2.8339630998671055, 3.125596399884671, 3.400676999706775, 3.64224880002439, 3.8754878998734057, 4.108984399586916, 4.325716199818999, 4.559183300007135, 4.775716499891132, 5.06725009996444, 5.484103299677372, 5.734090899582952, 5.98397079994902, 6.184164899867028, 6.350809399969876, 6.892429799772799, 7.334229199681431, 8.109291199594736, 9.12608930002898]"	20	"[0.6234033000655472, 1.5903115002438426, 2.8321011001244187, 3.123724200297147, 3.3988038999959826, 3.6403752001933753, 3.8736145002767444, 4.107111100107431, 4.323841500096023, 4.557314299978316, 4.773848200216889, 5.06537750037387, 5.482228700071573, 5.732215200085193, 5.9820945002138615, 6.182293599937111, 6.348931500222534, 6.890560700092465, 7.3323522000573575, 8.1074160002172]"	"[0.8066755002364516, 1.7650530999526381, 2.981734999921173, 3.2651768000796437, 3.5067541003227234, 3.7484447001479566, 3.9820314003154635, 4.215144500136375, 4.448497999925166, 4.6651767999865115, 4.906885600183159, 5.198565300088376, 5.623564700130373, 5.873592300340533, 6.090270699933171, 6.290304900147021, 6.4652933003380895, 7.023653200361878, 7.457061199937016, 8.23209370020777]"	257.486841999926	257.492270399816	258.984336999711	259.009037899785	NA	NA	NA	NA	NA	NA	NA	"02"	"01"	"2024-01-30_15h57.08.934"	"BART_exp"	"2023.2.3"	119.917448590691	"2024-01-30 15h57.20.731492 +0100"	NA
"balloon.png"	84	0	19	19	19	259.009037899785	NA	NA	NA	NA	NA	NA	NA	NA	NA	NA	NA	NA	258.984532299917	259.009037899785	259.009037899785	259.009037899785	259.009037899785	259.009037899785	-0.00094689987599849	-0.00094689987599849	-0.00094689987599849	259.009037899785	273.369897400029	28	1.4	FALSE	"[-0.03981481481481482, -0.037037037037037035, -0.037037037037037035, -0.037037037037037035, -0.037037037037037035, -0.037037037037037035, -0.037037037037037035, -0.03611111111111111, -0.03611111111111111, -0.03611111111111111, -0.03611111111111111, -0.03611111111111111, -0.03611111111111111, -0.03611111111111111, -0.03611111111111111, -0.03611111111111111, -0.03611111111111111, -0.03611111111111111, -0.03611111111111111, -0.03611111111111111, -0.03611111111111111, -0.037037037037037035, -0.037037037037037035, -0.037037037037037035, -0.037037037037037035, -0.037037037037037035, -0.037037037037037035, -0.037037037037037035, 0.0]"	"[-0.3851851851851852, -0.3851851851851852, -0.3851851851851852, -0.3851851851851852, -0.3851851851851852, -0.3851851851851852, -0.3851851851851852, -0.3851851851851852, -0.3851851851851852, -0.3851851851851852, -0.3851851851851852, -0.3851851851851852, -0.3851851851851852, -0.3851851851851852, -0.3851851851851852, -0.3851851851851852, -0.3851851851851852, -0.3851851851851852, -0.3851851851851852, -0.3851851851851852, -0.3851851851851852, -0.3851851851851852, -0.3851851851851852, -0.3851851851851852, -0.3851851851851852, -0.3851851851851852, -0.3851851851851852, -0.3851851851851852, -0.31203703703703706]"	"[1, 1, 1, 1, 1, 1, 1, 1, 1, 1, 1, 1, 1, 1, 1, 1, 1, 1, 1, 1, 1, 1, 1, 1, 1, 1, 1, 1, 0]"	"[0, 0, 0, 0, 0, 0, 0, 0, 0, 0, 0, 0, 0, 0, 0, 0, 0, 0, 0, 0, 0, 0, 0, 0, 0, 0, 0, 0, 0]"	"[0, 0, 0, 0, 0, 0, 0, 0, 0, 0, 0, 0, 0, 0, 0, 0, 0, 0, 0, 0, 0, 0, 0, 0, 0, 0, 0, 0, 1]"	"[3.092362599913031, 3.417020699940622, 3.6420315001159906, 3.85888750012964, 4.067428899928927, 4.267258699983358, 4.517289100214839, 4.733900499995798, 4.9671936999075115, 5.183823300059885, 5.408819800242782, 5.634000500198454, 5.842494999989867, 6.050779900047928, 6.250904200132936, 6.4840589999221265, 6.692453199997544, 7.559029300231487, 7.77566900011152, 8.367422600276768, 10.492663700133562, 11.61789150023833, 11.884468300268054, 12.150937300175428, 12.417651100084186, 12.651242800056934, 12.859524299856275, 13.317879300098866, 14.384438999928534]"	28	"[3.0811519999988377, 3.4058022000826895, 3.630814000032842, 3.847667200025171, 4.056221699807793, 4.256049199961126, 4.506074599921703, 4.7226840001530945, 4.955981699749827, 5.1726071001030505, 5.397604699712247, 5.62278370000422, 5.8312758998945355, 6.0395613997243345, 6.239688199944794, 6.472844599746168, 6.681329399812967, 7.547821700107306, 7.7644805000163615, 8.35620820010081, 10.4814448999241, 11.606707599945366, 11.873262300156057, 12.139721999876201, 12.406436800025403, 12.640043799765408, 12.848308300133795, 13.306661299895495]"	"[3.2139912000857294, 3.532077900134027, 3.7390232998877764, 3.964095899835229, 4.172418799716979, 4.364189099986106, 4.622599099762738, 4.839329699985683, 5.055784699972719, 5.297531799878925, 5.522482099942863, 5.722468600142747, 5.930818799883127, 6.122507399879396, 6.347560599911958, 6.572600499726832, 6.789261700119823, 7.647698699962348, 7.872630700003356, 8.472665399778634, 10.639470699708909, 11.73126949975267, 11.997959999833256, 12.272999499924481, 12.514666699804366, 12.756295599974692, 12.989748400170356, 13.439710800070316]"	273.371224799659	273.37666910002	274.868707799818	274.88510659989	NA	NA	NA	NA	NA	NA	NA	"02"	"01"	"2024-01-30_15h57.08.934"	"BART_exp"	"2023.2.3"	119.917448590691	"2024-01-30 15h57.20.731492 +0100"	NA
"balloon.png"	1	0	20	20	0	274.88510659989	NA	NA	NA	NA	NA	NA	NA	NA	NA	NA	NA	NA	274.868890499696	274.88510659989	274.88510659989	274.88510659989	274.88510659989	274.88510659989	-0.00096719991415739	-0.00096719991415739	-0.00096719991415739	274.88510659989	276.345452799927	2	0.05	TRUE	"[-0.032407407407407406, -0.032407407407407406]"	"[-0.3824074074074074, -0.3824074074074074]"	"[1, 1]"	"[0, 0]"	"[0, 0]"	"[0.9755174000747502, 1.3337433999404311]"	2	"[0.9683413002640009, 1.3265584004111588]"	"[1.109582600183785, 1.4596170000731945]"	276.346045400016	276.351868999656	277.843821199611	277.868641600013	NA	NA	NA	NA	NA	NA	NA	"02"	"01"	"2024-01-30_15h57.08.934"	"BART_exp"	"2023.2.3"	119.917448590691	"2024-01-30 15h57.20.731492 +0100"	NA
"balloon.png"	71	0	21	21	16	277.868641600013	NA	NA	NA	NA	NA	NA	NA	NA	NA	NA	NA	NA	277.843994299881	277.868641600013	277.868641600013	277.868641600013	277.868641600013	277.868641600013	-0.00078119989484548	-0.00078119989484548	-0.00078119989484548	277.868641600013	293.621406499762	34	1.7	FALSE	"[0.01574074074074074, 0.017592592592592594, 0.017592592592592594, 0.017592592592592594, 0.017592592592592594, 0.017592592592592594, 0.017592592592592594, 0.017592592592592594, 0.017592592592592594, 0.017592592592592594, 0.017592592592592594, 0.017592592592592594, 0.017592592592592594, 0.017592592592592594, 0.017592592592592594, 0.017592592592592594, 0.017592592592592594, 0.017592592592592594, 0.017592592592592594, 0.017592592592592594, 0.017592592592592594, 0.017592592592592594, 0.017592592592592594, 0.017592592592592594, 0.017592592592592594, 0.017592592592592594, 0.017592592592592594, 0.017592592592592594, 0.016666666666666666, 0.016666666666666666, 0.016666666666666666, 0.016666666666666666, 0.016666666666666666, 0.016666666666666666, 0.04537037037037037]"	"[-0.37592592592592594, -0.3768518518518518, -0.3768518518518518, -0.3768518518518518, -0.3768518518518518, -0.3768518518518518, -0.3768518518518518, -0.3768518518518518, -0.3768518518518518, -0.3768518518518518, -0.3768518518518518, -0.3768518518518518, -0.3768518518518518, -0.3768518518518518, -0.3768518518518518, -0.3768518518518518, -0.3768518518518518, -0.3768518518518518, -0.3768518518518518, -0.3768518518518518, -0.3768518518518518, -0.3768518518518518, -0.3768518518518518, -0.3768518518518518, -0.3768518518518518, -0.3768518518518518, -0.3768518518518518, -0.3768518518518518, -0.3768518518518518, -0.3768518518518518, -0.3768518518518518, -0.3768518518518518, -0.3768518518518518, -0.3768518518518518, -0.3148148148148148]"	"[1, 1, 1, 1, 1, 1, 1, 1, 1, 1, 1, 1, 1, 1, 1, 1, 1, 1, 1, 1, 1, 1, 1, 1, 1, 1, 1, 1, 1, 1, 1, 1, 1, 1, 0]"	"[0, 0, 0, 0, 0, 0, 0, 0, 0, 0, 0, 0, 0, 0, 0, 0, 0, 0, 0, 0, 0, 0, 0, 0, 0, 0, 0, 0, 0, 0, 0, 0, 0, 0, 0]"	"[0, 0, 0, 0, 0, 0, 0, 0, 0, 0, 0, 0, 0, 0, 0, 0, 0, 0, 0, 0, 0, 0, 0, 0, 0, 0, 0, 0, 0, 0, 0, 0, 0, 0, 1]"	"[0.6339568002149463, 0.950371699873358, 1.4088953998871148, 1.6838738000951707, 1.925491000059992, 2.150603000074625, 2.3756838999688625, 2.60901500005275, 2.8173233000561595, 3.025892300065607, 3.258868900127709, 3.4839500999078155, 3.725593800190836, 3.975826300214976, 4.217434800229967, 4.467271500267088, 4.717295499984175, 4.934390100184828, 5.184153900016099, 5.4008468999527395, 6.39258769992739, 6.64262709999457, 6.867438199929893, 7.084129600320011, 7.492513000033796, 7.792861500289291, 8.234355200082064, 9.725958500057459, 10.626219500321895, 11.067920800298452, 11.626412200275809, 12.367954100016505, 13.292871700134128, 14.301297100260854, 15.776521500200033]"	34	"[0.6223615002818406, 0.938767199870199, 1.3972954000346363, 1.672278500162065, 1.9138893000781536, 2.1390062998980284, 2.3640829999931157, 2.5974153000861406, 2.805721600074321, 3.01429900014773, 3.247266599908471, 3.4723527999594808, 3.7139945002272725, 3.964234000071883, 4.205833400133997, 4.4556749002076685, 4.705695900134742, 4.922788899857551, 5.172556200064719, 5.3892474002204835, 6.380987599957734, 6.6310371002182364, 6.8558404999785125, 7.072533800266683, 7.480917599983513, 7.781265799887478, 8.222757200244814, 9.71435740031302, 10.6146205002442, 11.056325899902731, 11.614815399982035, 12.356357000302523, 13.281274900306016, 14.289698800072074]"	"[0.7635980001650751, 1.0566370002925396, 1.530412900261581, 1.7803332000039518, 2.022098900284618, 2.2220419999212027, 2.4805529001168907, 2.697084099985659, 2.897099900059402, 3.1220958000048995, 3.3387716999277472, 3.5804619998671114, 3.830510899890214, 4.088832400273532, 4.322402100078762, 4.572214900050312, 4.813918199855834, 5.064554000273347, 5.297261199913919, 5.513952000066638, 6.50565529987216, 6.7306662001647055, 6.95573899988085, 7.1807062001898885, 7.605749899987131, 7.880826500244439, 8.357170300092548, 9.830896500032395, 10.756110100075603, 11.114303899928927, 11.731010999996215, 12.489409199915826, 13.416008099913597, 14.414618900045753]"	293.622682000045	293.628075299785	295.119992499705	295.128199500032	NA	NA	NA	NA	NA	NA	NA	"02"	"01"	"2024-01-30_15h57.08.934"	"BART_exp"	"2023.2.3"	119.917448590691	"2024-01-30 15h57.20.731492 +0100"	NA
"balloon.png"	36	0	22	22	8	295.128199500032	NA	NA	NA	NA	NA	NA	NA	NA	NA	NA	NA	NA	295.120165199973	295.128199500032	295.128199500032	295.128199500032	295.128199500032	295.128199500032	0.00558110000565648	0.00558110000565648	0.00558110000565648	295.128199500032	306.539365899749	37	1.8	TRUE	"[-0.030555555555555555, -0.030555555555555555, -0.030555555555555555, -0.030555555555555555, -0.030555555555555555, -0.030555555555555555, -0.030555555555555555, -0.030555555555555555, -0.030555555555555555, -0.030555555555555555, -0.030555555555555555, -0.030555555555555555, -0.030555555555555555, -0.030555555555555555, -0.030555555555555555, -0.030555555555555555, -0.030555555555555555, -0.030555555555555555, -0.030555555555555555, -0.030555555555555555, -0.030555555555555555, -0.030555555555555555, -0.030555555555555555, -0.030555555555555555, -0.030555555555555555, -0.030555555555555555, -0.030555555555555555, -0.030555555555555555, -0.030555555555555555, -0.030555555555555555, -0.030555555555555555, -0.030555555555555555, -0.030555555555555555, -0.02962962962962963, -0.02962962962962963, -0.02962962962962963, -0.028703703703703703]"	"[-0.37222222222222223, -0.37222222222222223, -0.37222222222222223, -0.37222222222222223, -0.37222222222222223, -0.37222222222222223, -0.37222222222222223, -0.37222222222222223, -0.37222222222222223, -0.37222222222222223, -0.37222222222222223, -0.37222222222222223, -0.37222222222222223, -0.37222222222222223, -0.37222222222222223, -0.37222222222222223, -0.37222222222222223, -0.37222222222222223, -0.37222222222222223, -0.37222222222222223, -0.37222222222222223, -0.37222222222222223, -0.37222222222222223, -0.37222222222222223, -0.37222222222222223, -0.37222222222222223, -0.37222222222222223, -0.37222222222222223, -0.37222222222222223, -0.37222222222222223, -0.37222222222222223, -0.37222222222222223, -0.37222222222222223, -0.37222222222222223, -0.37222222222222223, -0.37222222222222223, -0.37222222222222223]"	"[1, 1, 1, 1, 1, 1, 1, 1, 1, 1, 1, 1, 1, 1, 1, 1, 1, 1, 1, 1, 1, 1, 1, 1, 1, 1, 1, 1, 1, 1, 1, 1, 1, 1, 1, 1, 1]"	"[0, 0, 0, 0, 0, 0, 0, 0, 0, 0, 0, 0, 0, 0, 0, 0, 0, 0, 0, 0, 0, 0, 0, 0, 0, 0, 0, 0, 0, 0, 0, 0, 0, 0, 0, 0, 0]"	"[0, 0, 0, 0, 0, 0, 0, 0, 0, 0, 0, 0, 0, 0, 0, 0, 0, 0, 0, 0, 0, 0, 0, 0, 0, 0, 0, 0, 0, 0, 0, 0, 0, 0, 0, 0, 0]"	"[1.750587800052017, 2.1587856002151966, 2.383795800153166, 2.6004767999984324, 2.833904300350696, 3.0423244000412524, 3.233861300162971, 3.49241100018844, 3.7672231001779437, 3.992409999947995, 4.21736800018698, 4.442508100066334, 4.659207300283015, 4.900837300345302, 5.109146400354803, 5.425687900278717, 5.650818600319326, 5.900883700232953, 6.117538399994373, 6.350725800264627, 6.584083599969745, 6.82575110020116, 7.076000900007784, 7.334292599931359, 7.584169800393283, 7.842723899986595, 8.159218800254166, 8.501045600045472, 8.84406810021028, 9.409321300219744, 9.62594350008294, 9.834273000247777, 10.034463200252503, 10.259501200169325, 10.5011957003735, 10.734527599997818, 11.284604799933732]"	37	"[1.7487022001296282, 2.1568960999138653, 2.3819043999537826, 2.598584100138396, 2.8320186999626458, 3.0404328000731766, 3.2319693001918495, 3.4905233001336455, 3.7653323002159595, 3.9905218998901546, 4.215480600018054, 4.440620500128716, 4.6573135000653565, 4.898949299938977, 5.107252700254321, 5.423800200223923, 5.648927399888635, 5.899003600236028, 6.115644600242376, 6.348842400126159, 6.582195400260389, 6.823861300013959, 7.074110900051892, 7.33240249985829, 7.58227809984237, 7.840836000163108, 8.157331599853933, 8.499157899990678, 8.842338299844414, 9.40743050025776, 9.624051100108773, 9.824330000206828, 10.032569200266153, 10.257613699883223, 10.49930310016498, 10.732640599831939, 11.282717899885029]"	"[1.8817444001324475, 2.2653592000715435, 2.4818179002031684, 2.7067963001318276, 2.923443399835378, 3.0984804001636803, 3.34018009994179, 3.6485167001374066, 3.865263400133699, 4.082185899838805, 4.32359670009464, 4.556905000004917, 4.781913400162011, 5.015270300209522, 5.248618499841541, 5.532032399903983, 5.790397600270808, 6.023768099956214, 6.248686700128019, 6.482034800108522, 6.723878600168973, 6.990413899999112, 7.21543089998886, 7.465439599938691, 7.715560299810022, 7.973808099981397, 8.29052110016346, 8.60718150017783, 8.95724970009178, 9.5156153999269, 9.723906700033695, 9.915606800001115, 10.132389000151306, 10.39062950015068, 10.624029700178653, 10.815668700262904, 11.407398500014096]"	306.540634999983	306.545579799917	308.037612699904	308.054022799712	NA	NA	NA	NA	NA	NA	NA	"02"	"01"	"2024-01-30_15h57.08.934"	"BART_exp"	"2023.2.3"	119.917448590691	"2024-01-30 15h57.20.731492 +0100"	NA
"balloon.png"	18	0	23	23	4	308.054022799712	NA	NA	NA	NA	NA	NA	NA	NA	NA	NA	NA	NA	308.0377936	308.054022799712	308.054022799712	308.054022799712	308.054022799712	308.054022799712	0.0134556000120938	NA	NA	308.054022799712	313.264574700035	19	0.9	TRUE	"[-0.04814814814814815, -0.04537037037037037, -0.04537037037037037, -0.04537037037037037, -0.04537037037037037, -0.04537037037037037, -0.041666666666666664, -0.03888888888888889, -0.03518518518518519, -0.03425925925925926, -0.03425925925925926, -0.03425925925925926, -0.03425925925925926, -0.03425925925925926, -0.03425925925925926, -0.03425925925925926, -0.03425925925925926, -0.03425925925925926, -0.03425925925925926]"	"[-0.3712962962962963, -0.3712962962962963, -0.3712962962962963, -0.3712962962962963, -0.3712962962962963, -0.3712962962962963, -0.3768518518518518, -0.38055555555555554, -0.38055555555555554, -0.38055555555555554, -0.38055555555555554, -0.38055555555555554, -0.38055555555555554, -0.38055555555555554, -0.38055555555555554, -0.38055555555555554, -0.38055555555555554, -0.38055555555555554, -0.38055555555555554]"	"[1, 1, 1, 1, 1, 1, 1, 1, 1, 1, 1, 1, 1, 1, 1, 1, 1, 1, 1]"	"[0, 0, 0, 0, 0, 0, 0, 0, 0, 0, 0, 0, 0, 0, 0, 0, 0, 0, 0]"	"[0, 0, 0, 0, 0, 0, 0, 0, 0, 0, 0, 0, 0, 0, 0, 0, 0, 0, 0]"	"[0.3589912001043558, 0.5838048001751304, 0.8003775998950005, 1.0502467001788318, 1.2335816998966038, 1.49192909989506, 1.767234600149095, 2.041983500123024, 2.2753989999182522, 2.5756060001440346, 3.2420752998441458, 3.4687306000851095, 3.7004284998402, 3.9089974998496473, 4.125575200188905, 4.384086899925023, 4.584017000161111, 4.842194099910557, 5.083834100048989]"	19	"[0.35698459995910525, 0.5817883997224271, 0.7983621000312269, 1.0482279998250306, 1.2315663998015225, 1.4899132996797562, 1.7652205997146666, 2.0399718997068703, 2.2733867997303605, 2.57359469961375, 3.24006380001083, 3.4668689998798072, 3.6984105999581516, 3.9069810998626053, 4.123559799976647, 4.38207979965955, 4.582000399939716, 4.840176200028509, 5.081813999917358]"	"[0.506522299721837, 0.6981175998225808, 0.9147641998715699, 1.1564194997772574, 1.3230828996747732, 1.6231164997443557, 1.9231260996311903, 2.164800599683076, 2.3815550999715924, 2.714871699921787, 3.381564599927515, 3.5816293000243604, 3.8149501997977495, 4.031635500025004, 4.256684999912977, 4.4816729999147356, 4.7400111998431385, 4.973560799844563, 5.215022400021553]"	313.265505599789	313.271056599915	314.76301059965	314.771173399873	NA	NA	NA	NA	NA	NA	NA	"02"	"01"	"2024-01-30_15h57.08.934"	"BART_exp"	"2023.2.3"	119.917448590691	"2024-01-30 15h57.20.731492 +0100"	NA
"balloon.png"	79	0	24	24	18	314.771173399873	NA	NA	NA	NA	NA	NA	NA	NA	NA	NA	NA	NA	314.763188099954	314.771173399873	314.771173399873	314.771173399873	314.771173399873	314.771173399873	0.0057260999456048	NA	NA	314.771173399873	319.489718100056	15	0.75	FALSE	"[-0.03333333333333333, -0.03333333333333333, -0.03333333333333333, -0.03333333333333333, -0.03333333333333333, -0.03333333333333333, -0.03333333333333333, -0.03333333333333333, -0.03333333333333333, -0.03333333333333333, -0.03333333333333333, -0.03333333333333333, -0.03333333333333333, -0.03333333333333333, -0.03333333333333333, -0.03333333333333333]"	"[-0.3787037037037037, -0.38055555555555554, -0.38055555555555554, -0.38055555555555554, -0.38055555555555554, -0.38055555555555554, -0.38055555555555554, -0.38055555555555554, -0.38055555555555554, -0.38055555555555554, -0.38055555555555554, -0.38055555555555554, -0.38055555555555554, -0.38055555555555554, -0.38055555555555554, -0.38055555555555554]"	"[1, 1, 1, 1, 1, 1, 1, 1, 1, 1, 1, 1, 1, 1, 1, 0]"	"[0, 0, 0, 0, 0, 0, 0, 0, 0, 0, 0, 0, 0, 0, 0, 0]"	"[0, 0, 0, 0, 0, 0, 0, 0, 0, 0, 0, 0, 0, 0, 0, 1]"	"[0.2171417996287346, 0.5086743999272585, 0.7419976997189224, 1.1671287999488413, 1.4588860999792814, 1.8589031998999417, 2.167230200022459, 2.4423968996852636, 2.6339467000216246, 2.875618899706751, 3.1421635998412967, 3.367160299792886, 3.584010999649763, 3.8340354999527335, 4.050720300059766, 4.725595899857581]"	16	"[0.21524659963324666, 0.5067754997871816, 0.7401014999486506, 1.1652339999563992, 1.4569942997768521, 1.8570043998770416, 2.1653328998945653, 2.4405013998039067, 2.632048999890685, 2.873717799782753, 3.1402686997316778, 3.3569519999437034, 3.5821165996603668, 3.8321388997137547, 4.048827099613845, 4.72363829985261]"	"[0.3982718996703625, 0.6399266999214888, 0.8649532999843359, 1.3149660998024046, 1.5816661999560893, 1.9650304997339845, 2.2900588996708393, 2.540068599861115, 2.7650755997747183, 3.04036679957062, 3.273451399989426, 3.498452799860388, 3.723496599588543, 3.9651728998869658, 4.173521899618208, 4.723642400000244]"	319.49053409975	319.496469199657	320.988505699672	321.004935599864	NA	NA	NA	NA	NA	NA	NA	"02"	"01"	"2024-01-30_15h57.08.934"	"BART_exp"	"2023.2.3"	119.917448590691	"2024-01-30 15h57.20.731492 +0100"	NA
"balloon.png"	97	0	25	25	22	321.004935599864	NA	NA	NA	NA	NA	NA	NA	NA	NA	NA	NA	NA	320.988700899761	321.004935599864	321.004935599864	321.004935599864	321.004935599864	321.004935599864	-0.00042810011655092	-0.00042810011655092	-0.00042810011655092	321.004935599864	328.515283599962	20	1	FALSE	"[-0.05740740740740741, -0.037037037037037035, -0.037037037037037035, -0.037037037037037035, -0.037037037037037035, -0.037037037037037035, -0.037037037037037035, -0.037037037037037035, -0.037037037037037035, -0.037037037037037035, -0.037037037037037035, -0.037037037037037035, -0.037037037037037035, -0.037037037037037035, -0.037037037037037035, -0.037037037037037035, -0.037037037037037035, -0.037037037037037035, -0.037037037037037035, -0.037037037037037035, -0.037037037037037035]"	"[-0.3814814814814815, -0.3851851851851852, -0.3861111111111111, -0.3861111111111111, -0.3861111111111111, -0.3861111111111111, -0.3861111111111111, -0.3861111111111111, -0.3861111111111111, -0.3861111111111111, -0.3861111111111111, -0.3861111111111111, -0.3861111111111111, -0.3861111111111111, -0.3861111111111111, -0.3861111111111111, -0.3861111111111111, -0.3861111111111111, -0.3861111111111111, -0.3861111111111111, -0.3861111111111111]"	"[1, 1, 1, 1, 1, 1, 1, 1, 1, 1, 1, 1, 1, 1, 1, 1, 1, 1, 1, 1, 0]"	"[0, 0, 0, 0, 0, 0, 0, 0, 0, 0, 0, 0, 0, 0, 0, 0, 0, 0, 0, 0, 0]"	"[0, 0, 0, 0, 0, 0, 0, 0, 0, 0, 0, 0, 0, 0, 0, 0, 0, 0, 0, 0, 1]"	"[0.458676700014621, 1.3838394000194967, 1.6254316000267863, 1.83363620005548, 2.1003029998391867, 2.325313299894333, 2.5754857999272645, 2.825506600085646, 3.317211600020528, 3.733731099870056, 3.958909200038761, 4.1923275999724865, 4.433828999754041, 4.67546320008114, 4.9088333998806775, 5.467230000067502, 5.708997199777514, 5.917591500096023, 6.359056799672544, 6.784118399955332, 7.525654399767518]"	21	"[0.4514597998932004, 1.3766238000243902, 1.6182185001671314, 1.8264235998503864, 2.0930880000814795, 2.3180974000133574, 2.5682911998592317, 2.8182936999946833, 3.3099957001395524, 3.726517600007355, 3.951690800022334, 4.18511509988457, 4.426611799746752, 4.668243899941444, 4.901616299990565, 5.460013399831951, 5.701806599739939, 5.910375100094825, 6.3518368997611105, 6.776901700068265, 7.518377699889243]"	"[0.6178163001313806, 1.501347600016743, 1.7345644999295473, 1.9512815000489354, 2.2012658999301493, 2.4513261998072267, 2.709715799894184, 2.9763282998465, 3.4680276000872254, 3.8513756999745965, 4.084792399778962, 4.301411899738014, 4.551428399980068, 4.784849700052291, 5.001456500031054, 5.568370699882507, 5.826510000042617, 6.0348951001651585, 6.468256100080907, 6.884942600037903, 7.518381900154054]"	328.516313599888	328.522064500023	330.014038899913	330.038842699956	NA	NA	NA	NA	NA	NA	NA	"02"	"01"	"2024-01-30_15h57.08.934"	"BART_exp"	"2023.2.3"	119.917448590691	"2024-01-30 15h57.20.731492 +0100"	NA
"balloon.png"	40	0	26	26	9	330.038842699956	NA	NA	NA	NA	NA	NA	NA	NA	NA	NA	NA	NA	330.01421980001	330.038842699956	330.038842699956	330.038842699956	330.038842699956	330.038842699956	-0.0008275001309812	-0.0008275001309812	-0.0008275001309812	330.038842699956	341.424496399704	30	1.5	FALSE	"[-0.03888888888888889, -0.03888888888888889, -0.03888888888888889, -0.03888888888888889, -0.03888888888888889, -0.03888888888888889, -0.03888888888888889, -0.03888888888888889, -0.03888888888888889, -0.03888888888888889, -0.03888888888888889, -0.03888888888888889, -0.03888888888888889, -0.03888888888888889, -0.03888888888888889, -0.03888888888888889, -0.03888888888888889, -0.03888888888888889, -0.03888888888888889, -0.03888888888888889, -0.03888888888888889, -0.03888888888888889, -0.03888888888888889, -0.03888888888888889, -0.03888888888888889, -0.03888888888888889, -0.03888888888888889, -0.03888888888888889, -0.03888888888888889, -0.03888888888888889, -0.03888888888888889]"	"[-0.3814814814814815, -0.3824074074074074, -0.3824074074074074, -0.3824074074074074, -0.3824074074074074, -0.3824074074074074, -0.3824074074074074, -0.3824074074074074, -0.3824074074074074, -0.38333333333333336, -0.38425925925925924, -0.38425925925925924, -0.38425925925925924, -0.38425925925925924, -0.38425925925925924, -0.38425925925925924, -0.38425925925925924, -0.38425925925925924, -0.38425925925925924, -0.38425925925925924, -0.38425925925925924, -0.38425925925925924, -0.38425925925925924, -0.38425925925925924, -0.38425925925925924, -0.38425925925925924, -0.38425925925925924, -0.38425925925925924, -0.38425925925925924, -0.38425925925925924, -0.38425925925925924]"	"[1, 1, 1, 1, 1, 1, 1, 1, 1, 1, 1, 1, 1, 1, 1, 1, 1, 1, 1, 1, 1, 1, 1, 1, 1, 1, 1, 1, 1, 1, 0]"	"[0, 0, 0, 0, 0, 0, 0, 0, 0, 0, 0, 0, 0, 0, 0, 0, 0, 0, 0, 0, 0, 0, 0, 0, 0, 0, 0, 0, 0, 0, 0]"	"[0, 0, 0, 0, 0, 0, 0, 0, 0, 0, 0, 0, 0, 0, 0, 0, 0, 0, 0, 0, 0, 0, 0, 0, 0, 0, 0, 0, 0, 0, 1]"	"[1.692211200017482, 2.5839745001867414, 2.8587846998125315, 3.100608699955046, 3.342352299951017, 3.742334300186485, 3.984051499981433, 4.234010399784893, 4.450564600061625, 4.684067199937999, 4.925766299944371, 5.159129899926484, 5.3923110999166965, 5.634019100107253, 5.900819399859756, 6.1592009998857975, 6.534198800101876, 7.018689999822527, 7.292603100184351, 7.5426032999530435, 7.917634299956262, 8.242511400021613, 8.976016399916261, 9.126068000216037, 9.384391299914569, 9.609256799798459, 9.817601500079036, 10.134618800133467, 10.409338400233537, 10.751164000015706, 11.409355599898845]"	31	"[1.6806772998534143, 2.572430699598044, 2.8472405998036265, 3.0890651997178793, 3.330809099599719, 3.73078819969669, 3.972507799975574, 4.222465199884027, 4.4390183999203146, 4.672527599614114, 4.91422149958089, 5.147585100028664, 5.380780600011349, 5.622468999586999, 5.8892794996500015, 6.147657999768853, 6.522659699898213, 7.007294399663806, 7.281053999904543, 7.531065599992871, 7.906087599694729, 8.230974299833179, 8.964466399978846, 9.114520699717104, 9.372844900004566, 9.59770999988541, 9.806053400039673, 10.123074299655855, 10.397792999632657, 10.739619399886578, 11.397747099865228]"	"[1.8553877999074757, 2.7138664997182786, 2.9638845999725163, 3.205580299720168, 3.447158799972385, 3.847168699838221, 4.088834999594837, 4.330518499948084, 4.580543899908662, 4.8139559999108315, 5.047215799801052, 5.263940199743956, 5.505611499771476, 5.763968699611723, 6.022321899887174, 6.32240969967097, 6.664012899622321, 7.155750699806958, 7.414059599861503, 7.639091099612415, 7.989223999902606, 8.339126099832356, 9.05584289971739, 9.21422729967162, 9.480867599602789, 9.705897699575871, 9.914413999766111, 10.272663899697363, 10.497612399980426, 10.855999699793756, 11.397751399781555]"	341.42572729988	341.431296099909	342.923244699836	342.931385799777	NA	NA	NA	NA	NA	NA	NA	"02"	"01"	"2024-01-30_15h57.08.934"	"BART_exp"	"2023.2.3"	119.917448590691	"2024-01-30 15h57.20.731492 +0100"	NA
"balloon.png"	49	0	27	27	11	342.931385799777	NA	NA	NA	NA	NA	NA	NA	NA	NA	NA	NA	NA	342.923424100038	342.931385799777	342.931385799777	342.931385799777	342.931385799777	342.931385799777	0.00572110014036297	0.00572110014036297	0.00572110014036297	342.931385799777	355.058930799831	27	1.35	FALSE	"[-0.025925925925925925, -0.026851851851851852, -0.028703703703703703, -0.02962962962962963, -0.02962962962962963, -0.02962962962962963, -0.02962962962962963, -0.02962962962962963, -0.02962962962962963, -0.02962962962962963, -0.030555555555555555, -0.02962962962962963, -0.02962962962962963, -0.02962962962962963, -0.02962962962962963, -0.028703703703703703, -0.028703703703703703, -0.028703703703703703, -0.028703703703703703, -0.028703703703703703, -0.028703703703703703, -0.028703703703703703, -0.028703703703703703, -0.028703703703703703, -0.028703703703703703, -0.028703703703703703, -0.028703703703703703, -0.028703703703703703]"	"[-0.37407407407407406, -0.375, -0.37777777777777777, -0.37962962962962965, -0.37962962962962965, -0.37962962962962965, -0.37962962962962965, -0.37962962962962965, -0.37962962962962965, -0.38055555555555554, -0.3824074074074074, -0.3824074074074074, -0.38333333333333336, -0.3851851851851852, -0.387037037037037, -0.38796296296296295, -0.38796296296296295, -0.38796296296296295, -0.38796296296296295, -0.38796296296296295, -0.38796296296296295, -0.38796296296296295, -0.38796296296296295, -0.38796296296296295, -0.38796296296296295, -0.38796296296296295, -0.38796296296296295, -0.38796296296296295]"	"[1, 1, 1, 1, 1, 1, 1, 1, 1, 1, 1, 1, 1, 1, 1, 1, 1, 1, 1, 1, 1, 1, 1, 1, 1, 1, 1, 0]"	"[0, 0, 0, 0, 0, 0, 0, 0, 0, 0, 0, 0, 0, 0, 0, 0, 0, 0, 0, 0, 0, 0, 0, 0, 0, 0, 0, 0]"	"[0, 0, 0, 0, 0, 0, 0, 0, 0, 0, 0, 0, 0, 0, 0, 0, 0, 0, 0, 0, 0, 0, 0, 0, 0, 0, 0, 1]"	"[1.800698300357908, 2.0506353001110256, 2.2837570002302527, 2.5254309000447392, 2.7672904999926686, 3.008974500000477, 3.2506176000460982, 3.4756742999888957, 3.7171522001735866, 3.967188900336623, 4.259029700420797, 4.517282400280237, 4.892272400204092, 5.1590928002260625, 5.400783700402826, 5.984240800142288, 6.776013100054115, 7.017582400236279, 7.234229600057006, 7.442574600223452, 7.659256500191987, 7.8924460001289845, 8.092481400351971, 8.492527300026268, 8.750968500040472, 9.017695900052786, 11.309384800028056, 12.13454240001738]"	28	"[1.7988355997949839, 2.0487673999741673, 2.281895499676466, 2.523563999682665, 2.7654299000278115, 3.0071112997829914, 3.248753999825567, 3.473813799675554, 3.715284699574113, 3.965326599776745, 4.25716369971633, 4.515416999813169, 4.890405599959195, 5.157226199749857, 5.398913299664855, 5.982371699996293, 6.774152799975127, 7.015713699627668, 7.232360899914056, 7.4407076998613775, 7.657385400030762, 7.89057489996776, 8.090610299725085, 8.490658299997449, 8.749102599918842, 9.015832299832255, 11.307521299924701, 12.13262019958347]"	"[1.9316701996140182, 2.1734501998871565, 2.4233876997604966, 2.673410499934107, 2.8818552996963263, 3.123438199982047, 3.3401472996920347, 3.5818364997394383, 3.831833299715072, 4.115176399704069, 4.3735654996708035, 4.665242599789053, 5.031909499783069, 5.315288299694657, 5.5486093997024, 6.248647699598223, 6.923764899838716, 7.132062699645758, 7.323736199643463, 7.557140799704939, 7.765413399785757, 7.998781599570066, 8.232205299660563, 8.632220699917525, 8.882203300017864, 9.13217579992488, 11.440693799871951, 12.132624399848282]"	355.060031000059	355.065546799917	356.557477499824	356.565657099709	NA	NA	NA	NA	NA	NA	NA	"02"	"01"	"2024-01-30_15h57.08.934"	"BART_exp"	"2023.2.3"	119.917448590691	"2024-01-30 15h57.20.731492 +0100"	NA
"balloon.png"	44	0	28	28	10	356.565657099709	NA	NA	NA	NA	NA	NA	NA	NA	NA	NA	NA	NA	356.55764689995	356.565657099709	356.565657099709	356.565657099709	356.565657099709	356.565657099709	0.00568850012496113	0.00568850012496113	0.00568850012496113	356.565657099709	368.068250000011	26	1.3	FALSE	"[-0.010185185185185186, -0.012037037037037037, -0.012037037037037037, -0.012962962962962963, -0.012962962962962963, -0.012962962962962963, -0.012962962962962963, -0.012962962962962963, -0.012962962962962963, -0.012962962962962963, -0.012962962962962963, -0.012962962962962963, -0.012962962962962963, -0.012962962962962963, -0.012962962962962963, -0.012962962962962963, -0.012962962962962963, -0.012962962962962963, -0.012962962962962963, -0.012962962962962963, -0.012962962962962963, -0.012037037037037037, -0.011111111111111112, -0.011111111111111112, -0.011111111111111112, -0.011111111111111112, -0.011111111111111112]"	"[-0.3824074074074074, -0.38333333333333336, -0.38333333333333336, -0.3851851851851852, -0.3861111111111111, -0.3861111111111111, -0.3861111111111111, -0.3861111111111111, -0.3861111111111111, -0.38796296296296295, -0.3851851851851852, -0.3851851851851852, -0.3851851851851852, -0.3851851851851852, -0.3851851851851852, -0.3851851851851852, -0.3851851851851852, -0.3851851851851852, -0.3851851851851852, -0.3851851851851852, -0.38425925925925924, -0.38425925925925924, -0.38333333333333336, -0.38333333333333336, -0.38333333333333336, -0.38333333333333336, -0.3824074074074074]"	"[1, 1, 1, 1, 1, 1, 1, 1, 1, 1, 1, 1, 1, 1, 1, 1, 1, 1, 1, 1, 1, 1, 1, 1, 1, 1, 0]"	"[0, 0, 0, 0, 0, 0, 0, 0, 0, 0, 0, 0, 0, 0, 0, 0, 0, 0, 0, 0, 0, 0, 0, 0, 0, 0, 0]"	"[0, 0, 0, 0, 0, 0, 0, 0, 0, 0, 0, 0, 0, 0, 0, 0, 0, 0, 0, 0, 0, 0, 0, 0, 0, 0, 1]"	"[1.4338826001621783, 1.6923817000351846, 1.9339383002370596, 2.1677421000786126, 2.4090423001907766, 2.642169199883938, 2.875506800133735, 3.1091348002664745, 3.3673736001364887, 3.6255637002177536, 4.1424377001821995, 4.384098700247705, 4.625632199924439, 4.867301300168037, 5.0841986001469195, 5.434060100000352, 5.692362800240517, 5.900825799908489, 6.150890500284731, 6.3759488998912275, 7.184337799903005, 7.8010936002247036, 10.042669100221246, 10.276009900029749, 10.509501100052148, 10.74296519998461, 11.509690999984741]"	27	"[1.4320205003023148, 1.6905332002788782, 1.9320783000439405, 2.165894899982959, 2.4071804000996053, 2.6403068001382053, 2.8736454001627862, 3.10727130016312, 3.365509500261396, 3.6237024003639817, 4.1405764003284276, 4.382234200369567, 4.6237645000219345, 4.86543900007382, 5.082331100013107, 5.432194699998945, 5.690502100158483, 5.8989637000486255, 6.149027599953115, 6.374088600277901, 7.1824745000340044, 7.79922980023548, 10.04080680012703, 10.27414120035246, 10.507633900269866, 10.741100599989295, 11.50776410009712]"	"[1.5650826003402472, 1.806762000080198, 2.056953400373459, 2.298525500111282, 2.523461100179702, 2.7652110001072288, 2.9818587000481784, 3.2318629999645054, 3.498625900130719, 3.7318804003298283, 4.2653911001980305, 4.491636900231242, 4.756951800081879, 4.96534620039165, 5.1986607001163065, 5.56532740034163, 5.782056900206953, 6.032061600126326, 6.265450700186193, 6.482066500000656, 7.290465900208801, 7.957210600376129, 10.165756199974567, 10.374059600289911, 10.640696600079536, 10.849086800124496, 11.507768300361931]"	368.069309900049	368.074776099995	369.566689199768	369.574835099746	NA	NA	NA	NA	NA	NA	NA	"02"	"01"	"2024-01-30_15h57.08.934"	"BART_exp"	"2023.2.3"	119.917448590691	"2024-01-30 15h57.20.731492 +0100"	NA
"balloon.png"	23	0	29	29	5	369.574835099746	NA	NA	NA	NA	NA	NA	NA	NA	NA	NA	NA	NA	369.566863799933	369.574835099746	369.574835099746	369.574835099746	369.574835099746	369.574835099746	0.00558449979871511	0.00558449979871511	0.00558449979871511	369.574835099746	376.960736199748	24	1.15	TRUE	"[-0.025, -0.025, -0.025, -0.025, -0.025, -0.025, -0.025, -0.025, -0.025925925925925925, -0.025925925925925925, -0.025925925925925925, -0.025925925925925925, -0.025925925925925925, -0.025925925925925925, -0.025925925925925925, -0.025925925925925925, -0.025925925925925925, -0.025925925925925925, -0.026851851851851852, -0.026851851851851852, -0.026851851851851852, -0.026851851851851852, -0.026851851851851852, -0.026851851851851852]"	"[-0.3907407407407407, -0.3907407407407407, -0.3907407407407407, -0.3907407407407407, -0.3907407407407407, -0.3907407407407407, -0.3907407407407407, -0.3907407407407407, -0.3907407407407407, -0.39166666666666666, -0.39166666666666666, -0.39166666666666666, -0.39166666666666666, -0.39166666666666666, -0.39166666666666666, -0.39166666666666666, -0.39166666666666666, -0.39166666666666666, -0.3907407407407407, -0.3907407407407407, -0.3907407407407407, -0.3907407407407407, -0.3907407407407407, -0.3907407407407407]"	"[1, 1, 1, 1, 1, 1, 1, 1, 1, 1, 1, 1, 1, 1, 1, 1, 1, 1, 1, 1, 1, 1, 1, 1]"	"[0, 0, 0, 0, 0, 0, 0, 0, 0, 0, 0, 0, 0, 0, 0, 0, 0, 0, 0, 0, 0, 0, 0, 0]"	"[0, 0, 0, 0, 0, 0, 0, 0, 0, 0, 0, 0, 0, 0, 0, 0, 0, 0, 0, 0, 0, 0, 0, 0]"	"[1.2753872000612319, 1.650393099989742, 1.8504564999602735, 2.067220900207758, 2.2839158000424504, 2.50898540019989, 2.708979799877852, 2.9173399000428617, 3.1173316999338567, 3.367364900186658, 3.5838545002043247, 3.775710899848491, 3.9922172999940813, 4.217310199979693, 4.433927800040692, 4.667290300130844, 4.8591006002388895, 5.117589199915528, 6.117550199851394, 6.342567699961364, 6.5592284998856485, 6.767568199895322, 6.984116400126368, 7.25935720000416]"	24	"[1.2735227001830935, 1.6485234000720084, 1.8485906003043056, 2.065352300181985, 2.282045000232756, 2.507114900276065, 2.7071418003179133, 2.915474900044501, 3.1154658002778888, 3.365497700404376, 3.5819822000339627, 3.773846900090575, 3.9903470003046095, 4.215443100314587, 4.432058600243181, 4.665425000246614, 4.857241400051862, 5.115728200413287, 6.11568700009957, 6.340702699963003, 6.55736400000751, 6.765706000383943, 6.982251000124961, 7.257490300107747]"	"[1.3819449003785849, 1.740134600084275, 1.9484043000265956, 2.173434399999678, 2.3900846000760794, 2.58178500039503, 2.806810900103301, 3.048501200042665, 3.248671800363809, 3.4651748002506793, 3.681864900048822, 3.8902449002489448, 4.098552500363439, 4.306927300058305, 4.531899900175631, 4.73194030020386, 4.990294700022787, 5.22367800027132, 6.248707300052047, 6.432091100141406, 6.64041110035032, 6.857082300353795, 7.090414100326598, 7.382163500413299]"	376.961876699701	376.96702370001	378.459015599918	378.46716819983	NA	NA	NA	NA	NA	NA	NA	"02"	"01"	"2024-01-30_15h57.08.934"	"BART_exp"	"2023.2.3"	119.917448590691	"2024-01-30 15h57.20.731492 +0100"	NA
NA	NA	NA	NA	NA	NA	NA	NA	NA	NA	NA	NA	NA	NA	NA	NA	NA	NA	NA	NA	NA	NA	NA	NA	NA	NA	NA	NA	NA	NA	NA	NA	NA	NA	NA	NA	NA	NA	NA	NA	NA	NA	NA	NA	NA	NA	378.459050899837	378.46716819983	378.46716819983	384.134625199717	"space"	5.66256050020456	"None"	"02"	"01"	"2024-01-30_15h57.08.934"	"BART_exp"	"2023.2.3"	119.917448590691	"2024-01-30 15h57.20.731492 +0100"	NA
