"image"	"max_pumps"	"pump_loop.thisRepN"	"pump_loop.thisTrialN"	"pump_loop.thisN"	"pump_loop.thisIndex"	"thisRow.t"	"notes"	"Start.started"	"text_start.started"	"continue_start.started"	"mouse_start.started"	"Start.stopped"	"mouse_start.x"	"mouse_start.y"	"mouse_start.leftButton"	"mouse_start.midButton"	"mouse_start.rightButton"	"mouse_start.time"	"trials.started"	"stim_balloon.started"	"stim_balloon_burst.started"	"stim_balloon_burst.stopped"	"text_ballon_value.started"	"text_bank.started"	"mouse.started"	"sound_bang.started"	"sound_bang.stopped"	"button_balloon.started"	"trials.stopped"	"n_pumps"	"earnings"	"popped"	"mouse.x"	"mouse.y"	"mouse.leftButton"	"mouse.midButton"	"mouse.rightButton"	"mouse.time"	"button_balloon.numClicks"	"button_balloon.timesOn"	"button_balloon.timesOff"	"Feedback.started"	"text_feedback.started"	"Feedback.stopped"	"text_feedback.stopped"	"End.started"	"text_end.started"	"key_end.started"	"End.stopped"	"key_end.keys"	"key_end.rt"	"key_end.duration"	"participant"	"session"	"date"	"expName"	"psychopyVersion"	"frameRate"	"expStart"	"...61"
NA	NA	NA	NA	NA	NA	NA	NA	0.0479937000200152	0.0566499000415206	0.0566499000415206	0.0483229998499155	27.4258036999963	"[0.6824074074074075]"	"[-0.41388888888888886]"	"[1]"	"[0]"	"[0]"	"[27.376897699665278]"	NA	NA	NA	NA	NA	NA	NA	NA	NA	NA	NA	NA	NA	NA	NA	NA	NA	NA	NA	NA	NA	NA	NA	NA	NA	NA	NA	NA	NA	NA	NA	NA	NA	NA	"02"	"02"	"2024-01-30_16h09.16.867"	"BART_exp"	"2023.2.3"	119.953841298681	"2024-01-30 16h09.26.887824 +0100"	NA
"balloon.png"	14	0	0	0	3	27.5002105999738	NA	NA	NA	NA	NA	NA	NA	NA	NA	NA	NA	NA	27.4334776001051	27.5002105999738	27.5002105999738	27.5002105999738	27.5002105999738	27.5002105999738	0.00924070039764046	0.00924070039764046	0.00924070039764046	27.5002105999738	36.2192905996926	15	0.7	TRUE	"[0.07592592592592592, 0.07592592592592592, 0.07592592592592592, 0.07592592592592592, 0.07592592592592592, 0.075, 0.075, 0.07314814814814814, -0.028703703703703703, -0.028703703703703703, -0.028703703703703703, -0.026851851851851852, -0.026851851851851852, -0.026851851851851852, -0.026851851851851852]"	"[-0.4083333333333333, -0.4074074074074074, -0.4074074074074074, -0.4074074074074074, -0.4074074074074074, -0.4027777777777778, -0.4027777777777778, -0.4027777777777778, -0.38981481481481484, -0.38981481481481484, -0.38981481481481484, -0.3851851851851852, -0.3851851851851852, -0.3851851851851852, -0.3851851851851852]"	"[1, 1, 1, 1, 1, 1, 1, 1, 1, 1, 1, 1, 1, 1, 1]"	"[0, 0, 0, 0, 0, 0, 0, 0, 0, 0, 0, 0, 0, 0, 0]"	"[0, 0, 0, 0, 0, 0, 0, 0, 0, 0, 0, 0, 0, 0, 0]"	"[1.3424988999031484, 1.559108399786055, 1.775802199728787, 1.9924988998100162, 2.2008170997723937, 2.3841349999420345, 2.5675091999582946, 2.7509486000053585, 6.542760099750012, 6.734419799875468, 6.984450499992818, 7.217915299814194, 7.4430046998895705, 7.684675400145352, 8.676403599791229]"	15	"[1.2894735001027584, 1.506085000000894, 1.722783099859953, 1.9394777002744377, 2.147796700242907, 2.3311139000579715, 2.514483000151813, 2.697920300066471, 6.489734900183976, 6.681391099933535, 6.931422499939799, 7.16489339992404, 7.389983700122684, 7.631649999879301, 8.623384800273925]"	"[1.3559174998663366, 1.5976411001756787, 1.8225718000903726, 2.0226402999833226, 2.2143231998197734, 2.4059911998920143, 2.605974200181663, 2.797636699862778, 6.564573899842799, 6.7979219001717865, 7.0312773999758065, 7.289615800138563, 7.539647799916565, 7.747987899929285, 8.723064300138503]"	36.2205290999264	36.2340744999237	37.7259034998715	NA	NA	NA	NA	NA	NA	NA	NA	"02"	"02"	"2024-01-30_16h09.16.867"	"BART_exp"	"2023.2.3"	119.953841298681	"2024-01-30 16h09.26.887824 +0100"	NA
"balloon.png"	88	0	1	1	20	37.742548099719	NA	NA	NA	NA	NA	NA	NA	NA	NA	NA	NA	NA	37.726091499906	37.742548099719	37.742548099719	37.742548099719	37.742548099719	37.742548099719	0.0068523995578289	0.0068523995578289	0.0068523995578289	37.742548099719	42.9029139000922	17	0.85	FALSE	"[-0.016666666666666666, -0.01574074074074074, -0.01574074074074074, -0.01574074074074074, -0.01574074074074074, -0.01574074074074074, -0.01574074074074074, -0.01574074074074074, -0.01574074074074074, -0.01574074074074074, -0.01574074074074074, -0.01574074074074074, -0.01574074074074074, -0.01574074074074074, -0.01574074074074074, -0.01574074074074074, -0.01574074074074074, 0.000925925925925926]"	"[-0.40370370370370373, -0.4046296296296296, -0.4046296296296296, -0.4046296296296296, -0.4046296296296296, -0.4046296296296296, -0.4046296296296296, -0.4046296296296296, -0.4046296296296296, -0.4046296296296296, -0.4046296296296296, -0.4046296296296296, -0.4046296296296296, -0.4046296296296296, -0.4046296296296296, -0.4046296296296296, -0.4046296296296296, -0.25092592592592594]"	"[1, 1, 1, 1, 1, 1, 1, 1, 1, 1, 1, 1, 1, 1, 1, 1, 1, 0]"	"[0, 0, 0, 0, 0, 0, 0, 0, 0, 0, 0, 0, 0, 0, 0, 0, 0, 0]"	"[0, 0, 0, 0, 0, 0, 0, 0, 0, 0, 0, 0, 0, 0, 0, 0, 0, 1]"	"[0.3343287999741733, 0.5673136999830604, 0.7756274002604187, 0.9839403000660241, 1.1839371002279222, 1.4506024001166224, 1.6838658000342548, 1.8838781998492777, 2.1173443999141455, 2.342484100256115, 2.58403140027076, 2.792390199843794, 3.0172763001173735, 3.5674625001847744, 3.74246249999851, 4.259000100195408, 4.667353600263596, 5.17589440010488]"	17	"[0.32430530013516545, 0.5572684002108872, 0.7655807002447546, 0.9738979004323483, 1.173887800425291, 1.4405643003992736, 1.6738202003762126, 1.873829800169915, 2.1073017003946006, 2.3324386002495885, 2.573985000140965, 2.7823427002876997, 3.0072365002706647, 3.5574138001538813, 3.7324169003404677, 4.248954700306058, 4.65731060039252]"	"[0.4402291001752019, 0.6652197004295886, 0.8736015004105866, 1.0902637001127005, 1.2903064000420272, 1.548602499999106, 1.7486227001063526, 1.9653447000309825, 2.2070022001862526, 2.4486600002273917, 2.67369810026139, 2.890405500307679, 3.1070738001726568, 3.6071150000207126, 3.8571245004422963, 4.348880500067025, 4.782154300250113]"	42.9037929996848	42.9178511998616	44.4096678998321	NA	NA	NA	NA	NA	NA	NA	NA	"02"	"02"	"2024-01-30_16h09.16.867"	"BART_exp"	"2023.2.3"	119.953841298681	"2024-01-30 16h09.26.887824 +0100"	NA
"balloon.png"	101	0	2	2	23	44.4262870000675	NA	NA	NA	NA	NA	NA	NA	NA	NA	NA	NA	NA	44.409851799719	44.4262870000675	44.4262870000675	44.4262870000675	44.4262870000675	44.4262870000675	0.00737719982862472	0.00737719982862472	0.00737719982862472	44.4262870000675	52.8286695000716	18	0.9	FALSE	"[0.04351851851851852, -0.000925925925925926, -0.000925925925925926, -0.000925925925925926, -0.000925925925925926, -0.000925925925925926, -0.000925925925925926, -0.001851851851851852, -0.001851851851851852, -0.001851851851851852, -0.001851851851851852, -0.001851851851851852, -0.001851851851851852, -0.001851851851851852, -0.001851851851851852, -0.001851851851851852, -0.001851851851851852, -0.001851851851851852, 0.014814814814814815]"	"[-0.3888888888888889, -0.3731481481481482, -0.3731481481481482, -0.3731481481481482, -0.37222222222222223, -0.37222222222222223, -0.37222222222222223, -0.37222222222222223, -0.37222222222222223, -0.37222222222222223, -0.37222222222222223, -0.37222222222222223, -0.37222222222222223, -0.37222222222222223, -0.37222222222222223, -0.37222222222222223, -0.37222222222222223, -0.37222222222222223, -0.24814814814814815]"	"[1, 1, 1, 1, 1, 1, 1, 1, 1, 1, 1, 1, 1, 1, 1, 1, 1, 1, 0]"	"[0, 0, 0, 0, 0, 0, 0, 0, 0, 0, 0, 0, 0, 0, 0, 0, 0, 0, 0]"	"[0, 0, 0, 0, 0, 0, 0, 0, 0, 0, 0, 0, 0, 0, 0, 0, 0, 0, 1]"	"[0.5921275997534394, 1.2423907998017967, 1.4006451000459492, 1.5755298999138176, 1.7840942000038922, 1.9757182002067566, 2.183954699896276, 2.409145299810916, 2.6340840999037027, 2.8591379998251796, 3.2591371000744402, 3.467655799817294, 3.734149099793285, 4.034211799968034, 5.134105700068176, 5.592479499988258, 6.726090900134295, 7.525926900096238, 8.41792399995029]"	18	"[0.5859077000059187, 1.2361703999340534, 1.3944188999012113, 1.5693218996748328, 1.7778790998272598, 1.9694900000467896, 2.177729200106114, 2.40293850004673, 2.627858799882233, 2.85291610006243, 3.252913299947977, 3.46142840012908, 3.7279214998707175, 4.027986699715257, 5.127885699737817, 5.586251199711114, 6.71986939990893, 7.519696199800819]"	"[0.6774170999415219, 1.3024788997136056, 1.4941432001069188, 1.677596400026232, 1.8775411997921765, 2.077516299672425, 2.2942034997977316, 2.5192430997267365, 2.7275728001259267, 2.9692671997472644, 3.3526729997247458, 3.5777219999581575, 3.8442967999726534, 4.152662399690598, 5.236098799854517, 5.694472800008953, 6.819568499922752, 7.611273899674416]"	52.8295196997933	52.8351986999623	54.3272257000208	54.3436678000726	NA	NA	NA	NA	NA	NA	NA	"02"	"02"	"2024-01-30_16h09.16.867"	"BART_exp"	"2023.2.3"	119.953841298681	"2024-01-30 16h09.26.887824 +0100"	NA
"balloon.png"	75	0	3	3	17	54.3436678000726	NA	NA	NA	NA	NA	NA	NA	NA	NA	NA	NA	NA	54.3274091999047	54.3436678000726	54.3436678000726	54.3436678000726	54.3436678000726	54.3436678000726	-0.00059770001098513	-0.00059770001098513	-0.00059770001098513	54.3436678000726	64.9294131998904	23	1.15	FALSE	"[-0.022222222222222223, -0.022222222222222223, -0.024074074074074074, -0.024074074074074074, -0.024074074074074074, -0.024074074074074074, -0.024074074074074074, -0.024074074074074074, -0.024074074074074074, -0.024074074074074074, -0.024074074074074074, -0.024074074074074074, -0.024074074074074074, -0.024074074074074074, -0.024074074074074074, -0.024074074074074074, -0.024074074074074074, -0.024074074074074074, -0.024074074074074074, -0.024074074074074074, -0.024074074074074074, -0.024074074074074074, -0.024074074074074074, -0.024074074074074074]"	"[-0.39444444444444443, -0.39444444444444443, -0.39444444444444443, -0.39444444444444443, -0.39444444444444443, -0.39444444444444443, -0.39444444444444443, -0.39444444444444443, -0.39444444444444443, -0.39444444444444443, -0.39444444444444443, -0.39444444444444443, -0.39444444444444443, -0.39444444444444443, -0.39444444444444443, -0.39444444444444443, -0.39444444444444443, -0.39444444444444443, -0.39444444444444443, -0.39444444444444443, -0.39444444444444443, -0.39444444444444443, -0.3925925925925926, -0.3925925925925926]"	"[1, 1, 1, 1, 1, 1, 1, 1, 1, 1, 1, 1, 1, 1, 1, 1, 1, 1, 1, 1, 1, 1, 1, 0]"	"[0, 0, 0, 0, 0, 0, 0, 0, 0, 0, 0, 0, 0, 0, 0, 0, 0, 0, 0, 0, 0, 0, 0, 0]"	"[0, 0, 0, 0, 0, 0, 0, 0, 0, 0, 0, 0, 0, 0, 0, 0, 0, 0, 0, 0, 0, 0, 0, 1]"	"[0.8501879000104964, 1.0335218999534845, 1.2515145996585488, 1.5087178996764123, 1.7255045999772847, 1.9753105998970568, 2.258614799939096, 2.4921386996284127, 2.708802899811417, 3.6588220996782184, 3.908916899934411, 4.150561799760908, 4.400546899996698, 4.642190599814057, 4.883997999597341, 5.142308999784291, 6.184067199937999, 6.375910899601877, 6.633938299957663, 7.69246089970693, 8.209015199914575, 8.709360099863261, 9.751007599756122, 10.600993099622428]"	24	"[0.8415268999524415, 1.0248583001084626, 1.2428977000527084, 1.5000575999729335, 1.7168433000333607, 1.9666508003138006, 2.2499561002478004, 2.483471400104463, 2.700134899932891, 3.6501655001193285, 3.9002559003420174, 4.141900900285691, 4.3918841001577675, 4.633533300366253, 4.875338500365615, 5.133644500281662, 6.1754131000489, 6.367245400324464, 6.62528089992702, 7.683802400249988, 8.200350200291723, 8.70070210006088, 9.742344399914145, 10.5922678001225]"	"[0.9330557002685964, 1.166376800276339, 1.3664089003577828, 1.6164061003364623, 1.8331007999368012, 2.1247791000641882, 2.358154400251806, 2.5748141002841294, 2.808157700113952, 3.7498946003615856, 4.016654900275171, 4.233267100062221, 4.524936000350863, 4.749966700095683, 5.0249852002598345, 5.266668800264597, 6.250063000246882, 6.475075799971819, 6.733502100221813, 7.792025200091302, 8.325222700368613, 8.850271800067276, 9.850349700078368, 10.592271900270134]"	64.9305440997705	64.9443371999077	66.4361875001341	NA	NA	NA	NA	NA	NA	NA	NA	"02"	"02"	"2024-01-30_16h09.16.867"	"BART_exp"	"2023.2.3"	119.953841298681	"2024-01-30 16h09.26.887824 +0100"	NA
"balloon.png"	44	0	4	4	10	66.4528149999678	NA	NA	NA	NA	NA	NA	NA	NA	NA	NA	NA	NA	66.4363719997928	66.4528149999678	66.4528149999678	66.4528149999678	66.4528149999678	66.4528149999678	0.00716810021549463	0.00716810021549463	0.00716810021549463	66.4528149999678	77.6387709998526	25	1.25	FALSE	"[-0.008333333333333333, -0.008333333333333333, -0.009259259259259259, -0.009259259259259259, -0.009259259259259259, -0.009259259259259259, -0.009259259259259259, -0.009259259259259259, -0.009259259259259259, -0.009259259259259259, -0.009259259259259259, -0.009259259259259259, -0.009259259259259259, -0.009259259259259259, -0.009259259259259259, -0.009259259259259259, -0.009259259259259259, -0.009259259259259259, -0.009259259259259259, -0.009259259259259259, -0.009259259259259259, -0.009259259259259259, -0.009259259259259259, -0.009259259259259259, -0.009259259259259259, -0.009259259259259259]"	"[-0.37777777777777777, -0.37777777777777777, -0.37777777777777777, -0.37777777777777777, -0.37777777777777777, -0.37777777777777777, -0.37777777777777777, -0.37777777777777777, -0.37777777777777777, -0.37777777777777777, -0.37777777777777777, -0.37777777777777777, -0.37777777777777777, -0.37777777777777777, -0.37777777777777777, -0.37777777777777777, -0.37777777777777777, -0.37777777777777777, -0.37777777777777777, -0.37777777777777777, -0.37777777777777777, -0.37777777777777777, -0.37777777777777777, -0.37777777777777777, -0.37777777777777777, -0.37777777777777777]"	"[1, 1, 1, 1, 1, 1, 1, 1, 1, 1, 1, 1, 1, 1, 1, 1, 1, 1, 1, 1, 1, 1, 1, 1, 1, 0]"	"[0, 0, 0, 0, 0, 0, 0, 0, 0, 0, 0, 0, 0, 0, 0, 0, 0, 0, 0, 0, 0, 0, 0, 0, 0, 0]"	"[0, 0, 0, 0, 0, 0, 0, 0, 0, 0, 0, 0, 0, 0, 0, 0, 0, 0, 0, 0, 0, 0, 0, 0, 0, 1]"	"[1.2838816000148654, 1.5004887003451586, 1.7421996002085507, 2.0090229003690183, 2.2507025999948382, 2.4922166001051664, 2.742218700237572, 2.992522200103849, 3.409114900045097, 3.6424826001748443, 4.184189900290221, 4.450714900158346, 4.71743050031364, 4.959178999997675, 5.209243300370872, 5.434248900040984, 5.667439800221473, 5.87589929997921, 6.759402800351381, 7.217705000191927, 7.542681199964136, 7.8344091000035405, 8.226098200306296, 9.592860199976712, 10.25109830033034, 11.201475800015032]"	26	"[1.2738090003840625, 1.490414600353688, 1.7321208002977073, 1.9989434001035988, 2.2406190000474453, 2.4821323002688587, 2.7321395999751985, 2.982445400208235, 3.3990360000170767, 3.632404000032693, 4.174116700422019, 4.440630699973553, 4.707348000258207, 4.949118799995631, 5.199161299970001, 5.424166100099683, 5.65736210020259, 5.8658185000531375, 6.749321700073779, 7.207625500392169, 7.532601400278509, 7.824332400225103, 8.216019700281322, 9.58277660002932, 10.241015300154686, 11.191339400131255]"	"[1.398721500299871, 1.606924300082028, 1.8402749001979828, 2.090298800263554, 2.3319820002652705, 2.5820186999626458, 2.8403366999700665, 3.1070580002851784, 3.5070864004082978, 3.765400500036776, 4.307101299986243, 4.582384600304067, 4.857185600325465, 5.082321100402623, 5.323875600006431, 5.548850700259209, 5.757329100277275, 5.965572400018573, 6.865634100046009, 7.2989763002842665, 7.658744400367141, 7.949022400192916, 8.33243460021913, 9.724166900385171, 10.307515900116414, 11.191343600396067]"	77.6398272998631	77.6451985999011	79.1371852001175	79.1536519997753	NA	NA	NA	NA	NA	NA	NA	"02"	"02"	"2024-01-30_16h09.16.867"	"BART_exp"	"2023.2.3"	119.953841298681	"2024-01-30 16h09.26.887824 +0100"	NA
"balloon.png"	49	0	5	5	11	79.1536519997753	NA	NA	NA	NA	NA	NA	NA	NA	NA	NA	NA	NA	79.137375799939	79.1536519997753	79.1536519997753	79.1536519997753	79.1536519997753	79.1536519997753	0.0139484996907413	0.0139484996907413	0.0139484996907413	79.1536519997753	87.3559093996882	17	0.85	FALSE	"[-0.020370370370370372, -0.021296296296296296, -0.021296296296296296, -0.021296296296296296, -0.021296296296296296, -0.021296296296296296, -0.021296296296296296, -0.021296296296296296, -0.021296296296296296, -0.021296296296296296, -0.021296296296296296, -0.021296296296296296, -0.021296296296296296, -0.021296296296296296, -0.021296296296296296, -0.021296296296296296, -0.021296296296296296, 0.024074074074074074]"	"[-0.38425925925925924, -0.3851851851851852, -0.3851851851851852, -0.3851851851851852, -0.3851851851851852, -0.3851851851851852, -0.3851851851851852, -0.3851851851851852, -0.3851851851851852, -0.3851851851851852, -0.3851851851851852, -0.3851851851851852, -0.3851851851851852, -0.3851851851851852, -0.3851851851851852, -0.3851851851851852, -0.3851851851851852, -0.3490740740740741]"	"[1, 1, 1, 1, 1, 1, 1, 1, 1, 1, 1, 1, 1, 1, 1, 1, 1, 0]"	"[0, 0, 0, 0, 0, 0, 0, 0, 0, 0, 0, 0, 0, 0, 0, 0, 0, 0]"	"[0, 0, 0, 0, 0, 0, 0, 0, 0, 0, 0, 0, 0, 0, 0, 0, 0, 1]"	"[2.5920862001366913, 2.8256749003194273, 3.042217700276524, 3.2673029000870883, 3.475693200249225, 3.700627400074154, 3.9262852002866566, 4.192167400382459, 4.64241150021553, 5.025821000337601, 5.434058000333607, 5.734012300148606, 6.609039300121367, 6.850818700157106, 7.092722900211811, 7.334072600118816, 7.575876099988818, 8.217590800020844]"	17	"[2.5901636998169124, 2.8237580000422895, 3.040296500083059, 3.265383299905807, 3.473770699929446, 3.6987071000039577, 3.9245245000347495, 4.190252699889243, 4.640487600117922, 5.023905799724162, 5.432134300004691, 5.732096999883652, 6.607115699909627, 6.848894400056452, 7.0908015999011695, 7.332150999922305, 7.573956899810582]"	"[2.714992099907249, 2.956705399788916, 3.156671099830419, 3.3733592997305095, 3.5817301999777555, 3.823387799784541, 4.056756699923426, 4.306775100063533, 4.741541199851781, 5.16527030011639, 5.590207799803466, 5.87373310001567, 6.698684500064701, 6.956941599957645, 7.223774400074035, 7.440309599973261, 7.681983700022101]"	87.3567890999839	87.3625205000862	88.8545289998874	88.8793093999848	NA	NA	NA	NA	NA	NA	NA	"02"	"02"	"2024-01-30_16h09.16.867"	"BART_exp"	"2023.2.3"	119.953841298681	"2024-01-30 16h09.26.887824 +0100"	NA
"balloon.png"	84	0	6	6	19	88.8793093999848	NA	NA	NA	NA	NA	NA	NA	NA	NA	NA	NA	NA	88.8547139000148	88.8793093999848	88.8793093999848	88.8793093999848	88.8793093999848	88.8793093999848	-0.0008271001279354	-0.0008271001279354	-0.0008271001279354	88.8793093999848	103.715162099805	35	1.75	FALSE	"[0.013888888888888888, 0.013888888888888888, 0.013888888888888888, 0.013888888888888888, 0.013888888888888888, 0.013888888888888888, 0.013888888888888888, 0.013888888888888888, 0.013888888888888888, 0.013888888888888888, 0.013888888888888888, 0.013888888888888888, 0.013888888888888888, 0.013888888888888888, 0.013888888888888888, 0.013888888888888888, 0.013888888888888888, 0.013888888888888888, 0.013888888888888888, 0.013888888888888888, 0.013888888888888888, 0.013888888888888888, 0.013888888888888888, 0.013888888888888888, 0.013888888888888888, 0.013888888888888888, 0.013888888888888888, 0.013888888888888888, 0.013888888888888888, 0.013888888888888888, 0.013888888888888888, 0.013888888888888888, 0.013888888888888888, 0.013888888888888888, 0.013888888888888888, 0.013888888888888888]"	"[-0.3851851851851852, -0.3851851851851852, -0.3851851851851852, -0.3851851851851852, -0.3851851851851852, -0.3851851851851852, -0.3851851851851852, -0.3851851851851852, -0.3851851851851852, -0.3851851851851852, -0.3851851851851852, -0.3851851851851852, -0.3851851851851852, -0.3851851851851852, -0.3851851851851852, -0.3851851851851852, -0.3851851851851852, -0.3851851851851852, -0.3851851851851852, -0.3851851851851852, -0.3851851851851852, -0.3851851851851852, -0.3851851851851852, -0.3851851851851852, -0.3851851851851852, -0.3851851851851852, -0.3851851851851852, -0.3851851851851852, -0.3851851851851852, -0.3851851851851852, -0.3851851851851852, -0.3851851851851852, -0.3851851851851852, -0.3851851851851852, -0.3851851851851852, -0.3851851851851852]"	"[1, 1, 1, 1, 1, 1, 1, 1, 1, 1, 1, 1, 1, 1, 1, 1, 1, 1, 1, 1, 1, 1, 1, 1, 1, 1, 1, 1, 1, 1, 1, 1, 1, 1, 1, 0]"	"[0, 0, 0, 0, 0, 0, 0, 0, 0, 0, 0, 0, 0, 0, 0, 0, 0, 0, 0, 0, 0, 0, 0, 0, 0, 0, 0, 0, 0, 0, 0, 0, 0, 0, 0, 0]"	"[0, 0, 0, 0, 0, 0, 0, 0, 0, 0, 0, 0, 0, 0, 0, 0, 0, 0, 0, 0, 0, 0, 0, 0, 0, 0, 0, 0, 0, 0, 0, 0, 0, 0, 0, 1]"	"[1.3087923000566661, 1.7255090000107884, 1.9672081000171602, 2.2170505998656154, 2.4503779001533985, 2.700606900267303, 2.933895400259644, 3.183914599940181, 3.425578100141138, 3.6671792999841273, 3.9006203999742866, 4.159182799980044, 4.575714900158346, 4.825576500035822, 5.083981700241566, 5.40890710009262, 5.734274200163782, 6.100979899987578, 6.434154100250453, 6.842366800177842, 7.4090523002669215, 7.775737300049514, 8.042584800161421, 8.301044499967247, 8.60095370002091, 8.859131100121886, 9.125985899940133, 9.467541499994695, 9.767690100241452, 10.509455000050366, 10.909407699946314, 11.343832400161773, 11.684465300291777, 12.817737600300461, 13.342929299920797, 14.85952900024131]"	36	"[1.2971856999211013, 1.7139110998250544, 1.9556048000231385, 2.205450799781829, 2.438771499786526, 2.689000000245869, 2.922286400105804, 3.172311400063336, 3.4139720001257956, 3.655575899872929, 3.8890197002328932, 4.1475773002021015, 4.564111900050193, 4.813969600014389, 5.0723741999827325, 5.397301400080323, 5.722671399824321, 6.089373600203544, 6.4225503001362085, 6.83075790014118, 7.39744699979201, 7.764130599796772, 8.030982099939138, 8.289439199957997, 8.58935819985345, 8.847522200085223, 9.114375500008464, 9.455934400204569, 9.75608400022611, 10.497847899794579, 10.897802200168371, 11.332397100050002, 11.672858099918813, 12.80613029981032, 13.331325099803507, 14.847861600108445]"	"[1.4218804999254644, 1.813711800146848, 2.0720429997891188, 2.313587499782443, 2.5386326001025736, 2.8136387998238206, 3.0553434998728335, 3.3055600002408028, 3.530407899990678, 3.763790199998766, 4.022067199926823, 4.288726400118321, 4.672097600065172, 4.913785300217569, 5.263804499991238, 5.5138353002257645, 5.880546700209379, 6.205520200077444, 6.5389666999690235, 6.93890540022403, 7.497336499858648, 7.8723120000213385, 8.11401729984209, 8.455747399944812, 8.69737230008468, 8.97237450024113, 9.222395100165159, 9.572466100100428, 9.88078510016203, 10.614151800051332, 11.005853000096977, 11.447571800090373, 11.797570399940014, 12.906007200013846, 13.439375000074506, 14.847865900024772]"	103.716376400087	103.730344699696	105.222117600031	NA	NA	NA	NA	NA	NA	NA	NA	"02"	"02"	"2024-01-30_16h09.16.867"	"BART_exp"	"2023.2.3"	119.953841298681	"2024-01-30 16h09.26.887824 +0100"	NA
"balloon.png"	18	0	7	7	4	105.238729599863	NA	NA	NA	NA	NA	NA	NA	NA	NA	NA	NA	NA	105.222306299955	105.238729599863	105.238729599863	105.238729599863	105.238729599863	105.238729599863	0.00715950038284063	0.00715950038284063	0.00715950038284063	105.238729599863	110.957908699755	19	0.9	TRUE	"[0.005555555555555556, 0.005555555555555556, 0.005555555555555556, 0.005555555555555556, 0.005555555555555556, 0.005555555555555556, 0.005555555555555556, 0.005555555555555556, 0.005555555555555556, 0.005555555555555556, 0.005555555555555556, 0.005555555555555556, 0.005555555555555556, 0.005555555555555556, 0.005555555555555556, 0.005555555555555556, 0.005555555555555556, 0.005555555555555556, 0.005555555555555556]"	"[-0.387037037037037, -0.387037037037037, -0.387037037037037, -0.387037037037037, -0.387037037037037, -0.387037037037037, -0.387037037037037, -0.387037037037037, -0.387037037037037, -0.387037037037037, -0.387037037037037, -0.387037037037037, -0.387037037037037, -0.387037037037037, -0.387037037037037, -0.387037037037037, -0.387037037037037, -0.387037037037037, -0.387037037037037]"	"[1, 1, 1, 1, 1, 1, 1, 1, 1, 1, 1, 1, 1, 1, 1, 1, 1, 1, 1]"	"[0, 0, 0, 0, 0, 0, 0, 0, 0, 0, 0, 0, 0, 0, 0, 0, 0, 0, 0]"	"[0, 0, 0, 0, 0, 0, 0, 0, 0, 0, 0, 0, 0, 0, 0, 0, 0, 0, 0]"	"[1.0838685999624431, 1.325709699653089, 1.5590564999729395, 1.800738699734211, 2.025541799608618, 2.2255818997509778, 2.4423630996607244, 2.6505718999542296, 2.8589176000095904, 3.0840618000365794, 3.334142299834639, 3.767490599770099, 3.9926545000635087, 4.250889599788934, 4.484176599886268, 4.725967099890113, 5.14261299977079, 5.392609799746424, 5.634145800024271]"	19	"[1.080030799843371, 1.3218676000833511, 1.555212500039488, 1.7968994998373091, 2.02169799990952, 2.221741700079292, 2.438520699739456, 2.6467303996905684, 2.855075499974191, 3.08022279990837, 3.3302980000153184, 3.7636501998640597, 3.9888162999413908, 4.247047899756581, 4.480336799751967, 4.722131199669093, 5.138769099954516, 5.3887652000412345, 5.630301599856466]"	"[1.1965442998334765, 1.4548320998437703, 1.6716583999805152, 1.904878200031817, 2.0966060999780893, 2.3229493997059762, 2.529934599995613, 2.72993139969185, 2.9717202000319958, 3.1883046999573708, 3.471677999943495, 3.8800300997681916, 4.1216899999417365, 4.355029699858278, 4.59676059987396, 4.855082899797708, 5.2467755996622145, 5.496778899803758, 5.721826700028032]"	110.958798899781	110.964149700012	112.456239399966	112.472588100005	NA	NA	NA	NA	NA	NA	NA	"02"	"02"	"2024-01-30_16h09.16.867"	"BART_exp"	"2023.2.3"	119.953841298681	"2024-01-30 16h09.26.887824 +0100"	NA
"balloon.png"	114	0	8	8	26	112.472588100005	NA	NA	NA	NA	NA	NA	NA	NA	NA	NA	NA	NA	112.456434299704	112.472588100005	112.472588100005	112.472588100005	112.472588100005	112.472588100005	-0.00096650002524256	-0.00096650002524256	-0.00096650002524256	112.472588100005	120.749902799726	19	0.95	FALSE	"[-0.006481481481481481, -0.006481481481481481, -0.006481481481481481, -0.006481481481481481, -0.006481481481481481, -0.006481481481481481, -0.006481481481481481, -0.006481481481481481, -0.006481481481481481, -0.006481481481481481, -0.006481481481481481, -0.006481481481481481, -0.006481481481481481, -0.006481481481481481, -0.006481481481481481, -0.006481481481481481, -0.006481481481481481, -0.006481481481481481, -0.006481481481481481, -0.006481481481481481]"	"[-0.39166666666666666, -0.39166666666666666, -0.39166666666666666, -0.39166666666666666, -0.39166666666666666, -0.39166666666666666, -0.39166666666666666, -0.39166666666666666, -0.39166666666666666, -0.39166666666666666, -0.39166666666666666, -0.39166666666666666, -0.39166666666666666, -0.39166666666666666, -0.39166666666666666, -0.39166666666666666, -0.39166666666666666, -0.39166666666666666, -0.39166666666666666, -0.39166666666666666]"	"[1, 1, 1, 1, 1, 1, 1, 1, 1, 1, 1, 1, 1, 1, 1, 1, 1, 1, 1, 0]"	"[0, 0, 0, 0, 0, 0, 0, 0, 0, 0, 0, 0, 0, 0, 0, 0, 0, 0, 0, 0]"	"[0, 0, 0, 0, 0, 0, 0, 0, 0, 0, 0, 0, 0, 0, 0, 0, 0, 0, 0, 1]"	"[0.28363690013065934, 0.5502713001333177, 0.7586161000654101, 1.158678900450468, 1.4001955003477633, 1.6502548004500568, 1.8837544000707567, 2.2168877003714442, 2.458704100456089, 2.7268002000637352, 3.008718400262296, 3.383633400313556, 3.6671315003186464, 3.9338526003994048, 4.201655300334096, 4.65038050012663, 6.042141200043261, 6.617202500347048, 7.667438100092113, 8.292511200066656]"	20	"[0.2739566001109779, 0.5405866000801325, 0.7489351998083293, 1.1489951997064054, 1.3905091998167336, 1.6405758997425437, 1.8740722998045385, 2.2072046999819577, 2.4490259997546673, 2.7172766998410225, 2.999041900038719, 3.3739474997855723, 3.6574486000463367, 3.9241673997603357, 4.192133700009435, 4.640693999826908, 6.032459700014442, 6.607518499717116, 7.657758299726993, 8.282767799682915]"	"[0.40696580009534955, 0.6236030999571085, 0.8736338000744581, 1.2403203998692334, 1.5072063999250531, 1.7486833999864757, 1.9655446000397205, 2.3154301000759006, 2.5570630999282002, 2.8154691997915506, 3.132113399915397, 3.482181599829346, 3.77385829994455, 4.040524099953473, 4.332664899993688, 4.740606700070202, 6.132344099693, 6.740709699690342, 7.807440700009465, 8.282771999947727]"	120.750921399798	120.756457599811	122.248480199836	122.264877299778	NA	NA	NA	NA	NA	NA	NA	"02"	"02"	"2024-01-30_16h09.16.867"	"BART_exp"	"2023.2.3"	119.953841298681	"2024-01-30 16h09.26.887824 +0100"	NA
"balloon.png"	1	0	9	9	0	122.264877299778	NA	NA	NA	NA	NA	NA	NA	NA	NA	NA	NA	NA	122.248660099693	122.264877299778	122.264877299778	122.264877299778	122.264877299778	122.264877299778	-0.00091509986668825	-0.00091509986668825	-0.00091509986668825	122.264877299778	123.650169899687	2	0.05	TRUE	"[-0.009259259259259259, -0.009259259259259259]"	"[-0.3925925925925926, -0.39444444444444443]"	"[1, 1]"	"[0, 0]"	"[0, 0]"	"[1.0003198003396392, 1.2252984000369906]"	2	"[0.9927993998862803, 1.2177814999595284]"	"[1.1426189998164773, 1.3842803998850286]"	123.650706199929	123.656645599753	125.148614000063	125.165070400108	NA	NA	NA	NA	NA	NA	NA	"02"	"02"	"2024-01-30_16h09.16.867"	"BART_exp"	"2023.2.3"	119.953841298681	"2024-01-30 16h09.26.887824 +0100"	NA
"balloon.png"	27	0	10	10	6	125.165070400108	NA	NA	NA	NA	NA	NA	NA	NA	NA	NA	NA	NA	125.148787499871	125.165070400108	125.165070400108	125.165070400108	125.165070400108	125.165070400108	-0.00053549977019429	-0.00053549977019429	-0.00053549977019429	125.165070400108	135.659083900042	26	1.3	FALSE	"[-0.009259259259259259, -0.009259259259259259, -0.009259259259259259, -0.009259259259259259, -0.009259259259259259, -0.009259259259259259, -0.009259259259259259, -0.009259259259259259, -0.009259259259259259, -0.009259259259259259, -0.009259259259259259, -0.009259259259259259, -0.009259259259259259, -0.009259259259259259, -0.009259259259259259, -0.009259259259259259, -0.009259259259259259, -0.009259259259259259, -0.009259259259259259, -0.009259259259259259, -0.009259259259259259, -0.009259259259259259, -0.009259259259259259, -0.009259259259259259, -0.009259259259259259, -0.009259259259259259]"	"[-0.39444444444444443, -0.39444444444444443, -0.39444444444444443, -0.39444444444444443, -0.39444444444444443, -0.39444444444444443, -0.39444444444444443, -0.39444444444444443, -0.39444444444444443, -0.39444444444444443, -0.39444444444444443, -0.39444444444444443, -0.39444444444444443, -0.39444444444444443, -0.39444444444444443, -0.39444444444444443, -0.39444444444444443, -0.39444444444444443, -0.39444444444444443, -0.39444444444444443, -0.39444444444444443, -0.39444444444444443, -0.39444444444444443, -0.39444444444444443, -0.39444444444444443, -0.39444444444444443]"	"[1, 1, 1, 1, 1, 1, 1, 1, 1, 1, 1, 1, 1, 1, 1, 1, 1, 1, 1, 1, 1, 1, 1, 1, 1, 0]"	"[0, 0, 0, 0, 0, 0, 0, 0, 0, 0, 0, 0, 0, 0, 0, 0, 0, 0, 0, 0, 0, 0, 0, 0, 0, 0]"	"[0, 0, 0, 0, 0, 0, 0, 0, 0, 0, 0, 0, 0, 0, 0, 0, 0, 0, 0, 0, 0, 0, 0, 0, 0, 1]"	"[0.23377580009400845, 0.550420899875462, 0.7755327001214027, 1.0088398000225425, 1.2339082001708448, 1.492098799906671, 1.733710200060159, 1.942162999883294, 2.183885599952191, 2.4339389000087976, 2.7172183003276587, 2.9839551001787186, 3.2921875999309123, 3.5923359002918005, 3.8839267999865115, 4.1924630999565125, 4.508974200114608, 4.792415200266987, 5.092261400073767, 5.384139100089669, 6.509026300162077, 6.859040800016373, 7.784275200217962, 8.542639899998903, 9.409378400072455, 10.509361000265926]"	26	"[0.2262095003388822, 0.542860799934715, 0.767964200116694, 1.0012789000757039, 1.2263408000580966, 1.4845357001759112, 1.7261397000402212, 1.9345933003351092, 2.1763204000890255, 2.4263752000406384, 2.709648699965328, 2.976389900315553, 3.284623600076884, 3.5847685001790524, 3.876357300207019, 4.184893399942666, 4.501414500176907, 4.7848463002592325, 5.084700100123882, 5.3765708999708295, 6.5014587002806365, 6.851473200134933, 7.776711700018495, 8.535074000246823, 9.40180670004338, 10.501730800140649]"	"[0.3760653999634087, 0.667660600040108, 0.9175956002436578, 1.1425898000597954, 1.3593247001990676, 1.6176638002507389, 1.8426578999496996, 2.0593614000827074, 2.301029700320214, 2.5594327999278903, 2.834575400222093, 3.117735800333321, 3.4177417000755668, 3.709452100098133, 4.026177400257438, 4.326192600186914, 4.6095110001042485, 4.9095708001405, 5.184572299942374, 5.49295790027827, 6.567986499983817, 6.959654300007969, 7.876411100383848, 8.643147299997509, 9.559844400268048, 10.50173530029133]"	135.660073599778	135.665784199722	137.157766699791	137.174218799919	NA	NA	NA	NA	NA	NA	NA	"02"	"02"	"2024-01-30_16h09.16.867"	"BART_exp"	"2023.2.3"	119.953841298681	"2024-01-30 16h09.26.887824 +0100"	NA
"balloon.png"	97	0	11	11	22	137.174218799919	NA	NA	NA	NA	NA	NA	NA	NA	NA	NA	NA	NA	137.157953099813	137.174218799919	137.174218799919	137.174218799919	137.174218799919	137.174218799919	-0.00085079995915293	-0.00085079995915293	-0.00085079995915293	137.174218799919	144.06810869975	20	1	FALSE	"[-0.030555555555555555, -0.030555555555555555, -0.030555555555555555, -0.030555555555555555, -0.030555555555555555, -0.030555555555555555, -0.030555555555555555, -0.02962962962962963, -0.028703703703703703, -0.028703703703703703, -0.028703703703703703, -0.028703703703703703, -0.028703703703703703, -0.028703703703703703, -0.028703703703703703, -0.028703703703703703, -0.028703703703703703, -0.028703703703703703, -0.028703703703703703, -0.028703703703703703, -0.028703703703703703]"	"[-0.4027777777777778, -0.4027777777777778, -0.4027777777777778, -0.4027777777777778, -0.4027777777777778, -0.4027777777777778, -0.4027777777777778, -0.4027777777777778, -0.40185185185185185, -0.40185185185185185, -0.40185185185185185, -0.40185185185185185, -0.40185185185185185, -0.40185185185185185, -0.40185185185185185, -0.40185185185185185, -0.40185185185185185, -0.40185185185185185, -0.40185185185185185, -0.40185185185185185, -0.4]"	"[1, 1, 1, 1, 1, 1, 1, 1, 1, 1, 1, 1, 1, 1, 1, 1, 1, 1, 1, 1, 0]"	"[0, 0, 0, 0, 0, 0, 0, 0, 0, 0, 0, 0, 0, 0, 0, 0, 0, 0, 0, 0, 0]"	"[0, 0, 0, 0, 0, 0, 0, 0, 0, 0, 0, 0, 0, 0, 0, 0, 0, 0, 0, 0, 1]"	"[1.1838630996644497, 1.4337053000926971, 1.6503559998236597, 1.8754358999431133, 2.100409799721092, 2.292090700007975, 2.508861099835485, 2.734142200089991, 2.983958600088954, 3.2089554998092353, 3.4173547998070717, 3.642214999999851, 3.8588397996500134, 4.117169300094247, 4.350695400033146, 4.7005624999292195, 4.925704000052065, 5.167444800026715, 5.400773299857974, 6.033987999893725, 6.909219099674374]"	21	"[1.1758935996331275, 1.4257450997829437, 1.6423911997117102, 1.8674661996774375, 2.0924402996897697, 2.2841252996586263, 2.500895299948752, 2.72619319986552, 2.975988899823278, 3.200992599595338, 3.409394399728626, 3.6342491996474564, 3.8508746000006795, 4.109194699674845, 4.342728599905968, 4.692594799678773, 4.9177327998913825, 5.159480399917811, 5.392804499715567, 6.0260174996219575, 6.901187299750745]"	"[1.3088754997588694, 1.5518870996311307, 1.7589315995573997, 1.983986099716276, 2.192560499999672, 2.3922741999849677, 2.634017599746585, 2.867304699961096, 3.0925533999688923, 3.309011499863118, 3.54236329998821, 3.7673946996219456, 3.9757273998111486, 4.227101699914783, 4.45908539975062, 4.800823299679905, 5.050835999660194, 5.284160999581218, 5.492521099746227, 6.134235799778253, 6.90119139989838]"	144.069071799982	144.074724999722	145.566635199822	145.574788799975	NA	NA	NA	NA	NA	NA	NA	"02"	"02"	"2024-01-30_16h09.16.867"	"BART_exp"	"2023.2.3"	119.953841298681	"2024-01-30 16h09.26.887824 +0100"	NA
"balloon.png"	118	0	12	12	27	145.574788799975	NA	NA	NA	NA	NA	NA	NA	NA	NA	NA	NA	NA	145.566810700111	145.574788799975	145.574788799975	145.574788799975	145.574788799975	145.574788799975	0.00577830011025071	0.00577830011025071	0.00577830011025071	145.574788799975	158.343927300069	40	2	FALSE	"[-0.02962962962962963, -0.02962962962962963, -0.02962962962962963, -0.02962962962962963, -0.02962962962962963, -0.02962962962962963, -0.02962962962962963, -0.02962962962962963, -0.02962962962962963, -0.02962962962962963, -0.02962962962962963, -0.02962962962962963, -0.02962962962962963, -0.02962962962962963, -0.02962962962962963, -0.02962962962962963, -0.02962962962962963, -0.025, -0.023148148148148147, -0.022222222222222223, -0.022222222222222223, -0.021296296296296296, -0.021296296296296296, -0.021296296296296296, -0.021296296296296296, -0.021296296296296296, -0.021296296296296296, -0.021296296296296296, -0.021296296296296296, -0.021296296296296296, -0.021296296296296296, -0.021296296296296296, -0.021296296296296296, -0.021296296296296296, -0.021296296296296296, -0.021296296296296296, -0.021296296296296296, -0.021296296296296296, -0.021296296296296296, -0.021296296296296296, -0.021296296296296296]"	"[-0.3962962962962963, -0.3962962962962963, -0.3962962962962963, -0.3962962962962963, -0.3962962962962963, -0.3962962962962963, -0.3962962962962963, -0.3962962962962963, -0.3962962962962963, -0.3962962962962963, -0.3962962962962963, -0.3962962962962963, -0.3962962962962963, -0.3962962962962963, -0.3962962962962963, -0.3962962962962963, -0.3962962962962963, -0.3962962962962963, -0.39537037037037037, -0.39537037037037037, -0.39537037037037037, -0.39537037037037037, -0.39537037037037037, -0.39537037037037037, -0.39537037037037037, -0.39537037037037037, -0.39537037037037037, -0.39537037037037037, -0.39537037037037037, -0.39537037037037037, -0.39537037037037037, -0.39537037037037037, -0.39444444444444443, -0.39444444444444443, -0.39444444444444443, -0.39444444444444443, -0.39444444444444443, -0.39444444444444443, -0.39444444444444443, -0.39444444444444443, -0.3925925925925926]"	"[1, 1, 1, 1, 1, 1, 1, 1, 1, 1, 1, 1, 1, 1, 1, 1, 1, 1, 1, 1, 1, 1, 1, 1, 1, 1, 1, 1, 1, 1, 1, 1, 1, 1, 1, 1, 1, 1, 1, 1, 0]"	"[0, 0, 0, 0, 0, 0, 0, 0, 0, 0, 0, 0, 0, 0, 0, 0, 0, 0, 0, 0, 0, 0, 0, 0, 0, 0, 0, 0, 0, 0, 0, 0, 0, 0, 0, 0, 0, 0, 0, 0, 0]"	"[0, 0, 0, 0, 0, 0, 0, 0, 0, 0, 0, 0, 0, 0, 0, 0, 0, 0, 0, 0, 0, 0, 0, 0, 0, 0, 0, 0, 0, 0, 0, 0, 0, 0, 0, 0, 0, 0, 0, 0, 1]"	"[0.3421967998147011, 0.5505062001757324, 0.7421852997504175, 0.9505648999474943, 1.1505606998689473, 1.3422149000689387, 1.575605799909681, 1.7853586999699473, 1.9921360998414457, 2.2005103998817503, 2.4422709001228213, 2.650529900100082, 2.8671995997428894, 3.1090148999355733, 3.3173726997338235, 3.550737100187689, 3.767434900160879, 3.984093800187111, 4.218469799961895, 4.433958400040865, 4.6256174999289215, 4.850647199898958, 5.059013799764216, 5.275829600170255, 5.492670100182295, 5.73420329997316, 6.109226599801332, 6.667611400131136, 7.042458400130272, 7.359368899837136, 7.626048100180924, 8.059191000182182, 9.209267999976873, 9.39262059982866, 9.600993199739605, 9.800976499915123, 10.242666599806398, 10.492938700132072, 10.842761700041592, 11.292895999737084, 12.776189299765974]"	41	"[0.3403221000917256, 0.548625800292939, 0.7403237000107765, 0.9486869000829756, 1.1486820001155138, 1.3403302002698183, 1.573728600051254, 1.7836464000865817, 1.9902551001869142, 2.198648300021887, 2.4403957999311388, 2.648647000081837, 2.8653241000138223, 3.107135500293225, 3.315496100112796, 3.548864800017327, 3.7655589003115892, 3.9822166999801993, 4.216589400079101, 4.432077399920672, 4.623738900292665, 4.848765800241381, 5.057145200204104, 5.273951500188559, 5.490792800206691, 5.732326400000602, 6.107344200368971, 6.665730900131166, 7.040582700166851, 7.3574931002222, 7.624175200238824, 8.057313499972224, 9.20738589996472, 9.390742300078273, 9.59911230020225, 9.799096799921244, 10.240787799935788, 10.491056700237095, 10.840884000062943, 11.291013800073415, 12.77424590010196]"	"[0.4483906999230385, 0.673359100241214, 0.8566813999786973, 1.0400217003189027, 1.248460799921304, 1.4566991003230214, 1.6650527999736369, 1.8900890001095831, 2.1067838999442756, 2.3151094000786543, 2.5400980999693274, 2.756793000269681, 2.9984756000339985, 3.2153162001632154, 3.4401731002144516, 3.648521900177002, 3.881976299919188, 4.115248300135136, 4.323587600141764, 4.548620300367475, 4.7569506000727415, 4.965365100186318, 5.165337200276554, 5.365415500011295, 5.615330600179732, 5.848716200329363, 6.248702100012451, 6.798793400172144, 7.14875950012356, 7.490445600356907, 7.7571436003781855, 8.207154500298202, 9.307350400369614, 9.490585500374436, 9.673986000008881, 9.890625, 10.340704400092363, 10.60737350024283, 10.949035900179297, 11.40738180000335, 12.774250100366771]"	158.345329999924	158.350656500086	159.842615199741	159.850755800027	NA	NA	NA	NA	NA	NA	NA	"02"	"02"	"2024-01-30_16h09.16.867"	"BART_exp"	"2023.2.3"	119.953841298681	"2024-01-30 16h09.26.887824 +0100"	NA
"balloon.png"	57	0	13	13	13	159.850755800027	NA	NA	NA	NA	NA	NA	NA	NA	NA	NA	NA	NA	159.842790000141	159.850755800027	159.850755800027	159.850755800027	159.850755800027	159.850755800027	0.00548750022426247	0.00548750022426247	0.00548750022426247	159.850755800027	169.694871599786	38	1.9	FALSE	"[-0.024074074074074074, -0.025, -0.025, -0.025, -0.025, -0.025, -0.025, -0.025, -0.025, -0.024074074074074074, -0.022222222222222223, -0.022222222222222223, -0.022222222222222223, -0.022222222222222223, -0.022222222222222223, -0.021296296296296296, -0.021296296296296296, -0.017592592592592594, -0.017592592592592594, -0.017592592592592594, -0.017592592592592594, -0.017592592592592594, -0.017592592592592594, -0.017592592592592594, -0.017592592592592594, -0.017592592592592594, -0.017592592592592594, -0.017592592592592594, -0.017592592592592594, -0.017592592592592594, -0.017592592592592594, -0.017592592592592594, -0.017592592592592594, -0.017592592592592594, -0.017592592592592594, -0.017592592592592594, -0.017592592592592594, -0.017592592592592594, -0.016666666666666666]"	"[-0.39351851851851855, -0.39444444444444443, -0.39444444444444443, -0.39444444444444443, -0.39444444444444443, -0.39444444444444443, -0.39444444444444443, -0.39444444444444443, -0.39814814814814814, -0.3972222222222222, -0.3962962962962963, -0.3962962962962963, -0.3962962962962963, -0.3962962962962963, -0.3962962962962963, -0.3962962962962963, -0.3962962962962963, -0.39351851851851855, -0.39351851851851855, -0.39351851851851855, -0.39351851851851855, -0.39351851851851855, -0.39351851851851855, -0.39351851851851855, -0.39351851851851855, -0.39351851851851855, -0.39351851851851855, -0.39351851851851855, -0.39351851851851855, -0.39351851851851855, -0.39351851851851855, -0.39351851851851855, -0.39351851851851855, -0.39351851851851855, -0.39351851851851855, -0.38981481481481484, -0.38981481481481484, -0.38981481481481484, -0.3888888888888889]"	"[1, 1, 1, 1, 1, 1, 1, 1, 1, 1, 1, 1, 1, 1, 1, 1, 1, 1, 1, 1, 1, 1, 1, 1, 1, 1, 1, 1, 1, 1, 1, 1, 1, 1, 1, 1, 1, 1, 0]"	"[0, 0, 0, 0, 0, 0, 0, 0, 0, 0, 0, 0, 0, 0, 0, 0, 0, 0, 0, 0, 0, 0, 0, 0, 0, 0, 0, 0, 0, 0, 0, 0, 0, 0, 0, 0, 0, 0, 0]"	"[0, 0, 0, 0, 0, 0, 0, 0, 0, 0, 0, 0, 0, 0, 0, 0, 0, 0, 0, 0, 0, 0, 0, 0, 0, 0, 0, 0, 0, 0, 0, 0, 0, 0, 0, 0, 0, 0, 1]"	"[0.6421988997608423, 0.8755466998554766, 1.1086769998073578, 1.3336964999325573, 1.5420515001751482, 1.7171010999009013, 1.9504069001413882, 2.158756799995899, 2.4006733000278473, 2.633972399868071, 2.8589710001833737, 3.0673233000561595, 3.3171618999913335, 3.5088662998750806, 3.742216099984944, 3.9588898001238704, 4.184043500106782, 4.4007342997938395, 4.634119799826294, 4.850900799967349, 5.0841084998101, 5.2839628998190165, 5.467456299811602, 5.709082799963653, 5.925706500187516, 6.142361700069159, 6.3673743000254035, 6.584289799910039, 6.809267099946737, 7.03429549979046, 7.242657700087875, 7.484131699893624, 7.72578480001539, 7.959266200195998, 8.184294099919498, 8.767754499800503, 8.967666400130838, 9.209383300039917, 9.851140200160444]"	39	"[0.6403058003634214, 0.8736567003652453, 1.1067832000553608, 1.331803800072521, 1.5401623002253473, 1.7152048000134528, 1.9485109001398087, 2.1568605001084507, 2.3987843999639153, 2.632086000405252, 2.85707540018484, 3.0654321000911295, 3.3152717002667487, 3.506971100345254, 3.7403244003653526, 3.956994800362736, 4.182147200219333, 4.398836400359869, 4.632223899941891, 4.8490059999749064, 5.08221340039745, 5.2820867002010345, 5.465585900004953, 5.707186600193381, 5.923813600093126, 6.140469999983907, 6.365480900276452, 6.58240110008046, 6.8073772001080215, 7.032406200189143, 7.240770200267434, 7.482237500138581, 7.723890900146216, 7.957373300101608, 8.182402700185776, 8.765859900042415, 8.965767600107938, 9.207493300084025, 9.849180100020021]"	"[0.7899585999548435, 1.0149703002534807, 1.2400259003043175, 1.440003199968487, 1.6399977002292871, 1.856812700163573, 2.0484588001854718, 2.3150423001497984, 2.5567223001271486, 2.7484121001325548, 2.9650997002609074, 3.1818093000911176, 3.3914979002438486, 3.6568326000124216, 3.865215000230819, 4.0901581002399325, 4.290175700094551, 4.556862400379032, 4.748535900376737, 4.973643800243735, 5.165254500228912, 5.390291700139642, 5.6155296000652015, 5.840287500061095, 6.048629200085998, 6.273643800057471, 6.490375200286508, 6.715342300012708, 6.915406800340861, 7.149057900067419, 7.382187500130385, 7.60709060030058, 7.832096500322223, 8.082147100009024, 8.240495100151747, 8.88222200004384, 9.082166700158268, 9.323878400027752, 9.84918410005048]"	169.69615510013	169.701442900114	171.193398300093	171.201517699752	NA	NA	NA	NA	NA	NA	NA	"02"	"02"	"2024-01-30_16h09.16.867"	"BART_exp"	"2023.2.3"	119.953841298681	"2024-01-30 16h09.26.887824 +0100"	NA
"balloon.png"	62	0	14	14	14	171.201517699752	NA	NA	NA	NA	NA	NA	NA	NA	NA	NA	NA	NA	171.193576199934	171.201517699752	171.201517699752	171.201517699752	171.201517699752	171.201517699752	0.00542409997433424	0.00542409997433424	0.00542409997433424	171.201517699752	176.478630699683	21	1.05	FALSE	"[-0.016666666666666666, -0.016666666666666666, -0.016666666666666666, -0.016666666666666666, -0.016666666666666666, -0.016666666666666666, -0.016666666666666666, -0.01574074074074074, -0.01574074074074074, -0.01574074074074074, -0.014814814814814815, -0.014814814814814815, -0.014814814814814815, -0.014814814814814815, -0.014814814814814815, -0.014814814814814815, -0.014814814814814815, -0.014814814814814815, -0.014814814814814815, -0.014814814814814815, -0.014814814814814815, -0.014814814814814815]"	"[-0.3888888888888889, -0.3888888888888889, -0.3888888888888889, -0.3888888888888889, -0.3888888888888889, -0.3888888888888889, -0.3888888888888889, -0.38796296296296295, -0.38796296296296295, -0.38796296296296295, -0.38796296296296295, -0.38796296296296295, -0.38796296296296295, -0.38796296296296295, -0.38796296296296295, -0.38796296296296295, -0.38796296296296295, -0.38796296296296295, -0.38796296296296295, -0.38796296296296295, -0.38796296296296295, -0.38796296296296295]"	"[1, 1, 1, 1, 1, 1, 1, 1, 1, 1, 1, 1, 1, 1, 1, 1, 1, 1, 1, 1, 1, 0]"	"[0, 0, 0, 0, 0, 0, 0, 0, 0, 0, 0, 0, 0, 0, 0, 0, 0, 0, 0, 0, 0, 0]"	"[0, 0, 0, 0, 0, 0, 0, 0, 0, 0, 0, 0, 0, 0, 0, 0, 0, 0, 0, 0, 0, 1]"	"[0.25048490008339286, 0.45068740006536245, 0.667221199721098, 0.9004679997451603, 1.1336992997676134, 1.3504006001167, 1.5338324001058936, 1.7753718998283148, 2.0087041999213398, 2.2255441998131573, 2.458929399959743, 2.683918899856508, 2.9005978000350296, 3.1421194998547435, 3.367140999995172, 3.5921879997476935, 3.8256411999464035, 4.050698000006378, 4.26885399967432, 4.484046899713576, 4.800692900083959, 5.28409649990499]"	22	"[0.24863060005009174, 0.4488592999987304, 0.6653697001747787, 0.898647100199014, 1.1318435999564826, 1.3485488998703659, 1.5319826998747885, 1.7735208999365568, 2.0068514002487063, 2.223689400125295, 2.457078400067985, 2.68206789996475, 2.898740400094539, 3.1402658000588417, 3.3652848000638187, 3.590356800239533, 3.8237886000424623, 4.04884700011462, 4.267167900223285, 4.482189500238746, 4.798836600035429, 5.282182599883527]"	"[0.34829190000891685, 0.5567864999175072, 0.78162100026384, 1.0066957999952137, 1.2233302001841366, 1.456672600004822, 1.656702300067991, 1.87478579999879, 2.106833499856293, 2.348381500225514, 2.5818700999952853, 2.781912500038743, 3.0317740999162197, 3.265365700237453, 3.49868470011279, 3.7151685999706388, 3.9401640999130905, 4.190198900178075, 4.390195900108665, 4.5986583000048995, 4.940252200234681, 5.282186700031161]"	176.479607299902	176.485210699961	177.977169999853	177.993662300054	NA	NA	NA	NA	NA	NA	NA	"02"	"02"	"2024-01-30_16h09.16.867"	"BART_exp"	"2023.2.3"	119.953841298681	"2024-01-30 16h09.26.887824 +0100"	NA
"balloon.png"	40	0	15	15	9	177.993662300054	NA	NA	NA	NA	NA	NA	NA	NA	NA	NA	NA	NA	177.977353299968	177.993662300054	177.993662300054	177.993662300054	177.993662300054	177.993662300054	-0.00098579982295632	-0.00098579982295632	-0.00098579982295632	177.993662300054	188.796094499994	27	1.35	FALSE	"[-0.014814814814814815, -0.014814814814814815, -0.014814814814814815, -0.014814814814814815, -0.014814814814814815, -0.014814814814814815, -0.014814814814814815, -0.014814814814814815, -0.014814814814814815, -0.014814814814814815, -0.014814814814814815, -0.014814814814814815, -0.014814814814814815, -0.014814814814814815, -0.014814814814814815, -0.014814814814814815, -0.014814814814814815, -0.014814814814814815, -0.014814814814814815, -0.014814814814814815, -0.014814814814814815, -0.014814814814814815, -0.014814814814814815, -0.014814814814814815, -0.014814814814814815, -0.014814814814814815, -0.014814814814814815, -0.014814814814814815]"	"[-0.38796296296296295, -0.38796296296296295, -0.38796296296296295, -0.38796296296296295, -0.38796296296296295, -0.38796296296296295, -0.38796296296296295, -0.38796296296296295, -0.38796296296296295, -0.38796296296296295, -0.38796296296296295, -0.38796296296296295, -0.38796296296296295, -0.38796296296296295, -0.38796296296296295, -0.38796296296296295, -0.38796296296296295, -0.38796296296296295, -0.38796296296296295, -0.38796296296296295, -0.38796296296296295, -0.38796296296296295, -0.38796296296296295, -0.38796296296296295, -0.38796296296296295, -0.38796296296296295, -0.38796296296296295, -0.38796296296296295]"	"[1, 1, 1, 1, 1, 1, 1, 1, 1, 1, 1, 1, 1, 1, 1, 1, 1, 1, 1, 1, 1, 1, 1, 1, 1, 1, 1, 0]"	"[0, 0, 0, 0, 0, 0, 0, 0, 0, 0, 0, 0, 0, 0, 0, 0, 0, 0, 0, 0, 0, 0, 0, 0, 0, 0, 0, 0]"	"[0, 0, 0, 0, 0, 0, 0, 0, 0, 0, 0, 0, 0, 0, 0, 0, 0, 0, 0, 0, 0, 0, 0, 0, 0, 0, 0, 1]"	"[0.44211959978565574, 0.675687899813056, 0.9336871998384595, 1.1753741996362805, 1.4170213998295367, 1.6672196998260915, 1.9256116999313235, 2.1922867000102997, 2.467281899880618, 2.77544689970091, 3.0506258998066187, 3.3588812998495996, 3.608965099789202, 3.8756955000571907, 4.425668899901211, 4.64242359995842, 4.859105299692601, 5.042625099886209, 5.267491600010544, 5.475829999893904, 5.692490299697965, 5.909201399888843, 6.752053400035948, 6.984067199751735, 8.34254499990493, 9.059385299682617, 9.426078799646348, 10.817788299638778]"	28	"[0.4331114999949932, 0.6666832002811134, 0.9246753002516925, 1.1663653003051877, 1.408013400156051, 1.6582072000019252, 1.916603600140661, 2.1832763999700546, 2.458270600065589, 2.766433299984783, 3.0416190000250936, 3.3498702002689242, 3.5999600999057293, 3.866691800300032, 4.416661499999464, 4.633412700146437, 4.850097000133246, 5.033615100197494, 5.258483000099659, 5.466822999995202, 5.6834789998829365, 5.900200600270182, 6.743181800004095, 6.975058299954981, 8.333535899873823, 9.050379000138491, 9.41706610005349, 10.80871650017798]"	"[0.5744992000982165, 0.7996276002377272, 1.0412103002890944, 1.2745791003108025, 1.5245572999119759, 1.7913195001892745, 2.058135200291872, 2.3162686000578105, 2.6163095999509096, 2.916344200260937, 3.191420200280845, 3.4831056999973953, 3.7497036000713706, 4.0330753000453115, 4.524919900111854, 4.741437499877065, 4.9666458000428975, 5.149785399902612, 5.374817300122231, 5.574844799935818, 5.7914998000487685, 6.008178200107068, 6.849936400074512, 7.058260099962354, 8.441694899927825, 9.166735500097275, 9.525120600126684, 10.808720500208437]"	188.797109699808	188.802748499904	190.294747199863	190.31948329974	NA	NA	NA	NA	NA	NA	NA	"02"	"02"	"2024-01-30_16h09.16.867"	"BART_exp"	"2023.2.3"	119.953841298681	"2024-01-30 16h09.26.887824 +0100"	NA
"balloon.png"	31	0	16	16	7	190.31948329974	NA	NA	NA	NA	NA	NA	NA	NA	NA	NA	NA	NA	190.294932499994	190.31948329974	190.31948329974	190.31948329974	190.31948329974	190.31948329974	-0.00083230016753077	-0.00083230016753077	-0.00083230016753077	190.31948329974	199.655426700134	32	1.55	TRUE	"[-0.006481481481481481, -0.006481481481481481, -0.006481481481481481, -0.006481481481481481, -0.004629629629629629, -0.004629629629629629, -0.004629629629629629, -0.004629629629629629, -0.004629629629629629, -0.004629629629629629, -0.004629629629629629, -0.004629629629629629, -0.004629629629629629, -0.004629629629629629, -0.004629629629629629, -0.004629629629629629, -0.004629629629629629, -0.004629629629629629, -0.004629629629629629, -0.004629629629629629, -0.004629629629629629, -0.004629629629629629, -0.004629629629629629, -0.004629629629629629, -0.004629629629629629, -0.004629629629629629, -0.004629629629629629, -0.004629629629629629, -0.004629629629629629, -0.004629629629629629, -0.004629629629629629, -0.004629629629629629]"	"[-0.39166666666666666, -0.39166666666666666, -0.39166666666666666, -0.39166666666666666, -0.39166666666666666, -0.39166666666666666, -0.39166666666666666, -0.39166666666666666, -0.39166666666666666, -0.39166666666666666, -0.39166666666666666, -0.39166666666666666, -0.39166666666666666, -0.39166666666666666, -0.39166666666666666, -0.39166666666666666, -0.39166666666666666, -0.39166666666666666, -0.39166666666666666, -0.39166666666666666, -0.39166666666666666, -0.39166666666666666, -0.39166666666666666, -0.39166666666666666, -0.39166666666666666, -0.39166666666666666, -0.39166666666666666, -0.39166666666666666, -0.39166666666666666, -0.39166666666666666, -0.39166666666666666, -0.39166666666666666]"	"[1, 1, 1, 1, 1, 1, 1, 1, 1, 1, 1, 1, 1, 1, 1, 1, 1, 1, 1, 1, 1, 1, 1, 1, 1, 1, 1, 1, 1, 1, 1, 1]"	"[0, 0, 0, 0, 0, 0, 0, 0, 0, 0, 0, 0, 0, 0, 0, 0, 0, 0, 0, 0, 0, 0, 0, 0, 0, 0, 0, 0, 0, 0, 0, 0]"	"[0, 0, 0, 0, 0, 0, 0, 0, 0, 0, 0, 0, 0, 0, 0, 0, 0, 0, 0, 0, 0, 0, 0, 0, 0, 0, 0, 0, 0, 0, 0, 0]"	"[1.8921413999050856, 2.1006331997923553, 2.3089073998853564, 2.5172011996619403, 2.8839455996640027, 3.092255899682641, 3.3339056000113487, 3.55064499983564, 3.7506013000383973, 3.97561309998855, 4.184043599758297, 4.425584699958563, 4.6338523998856544, 4.842237600125372, 5.058872099965811, 5.2505375999026, 5.475706399884075, 5.917391799855977, 6.134247099980712, 6.342442200053483, 6.559289599768817, 6.767606100067496, 7.009069999679923, 7.242350900080055, 7.4924872000701725, 7.750868699979037, 8.042417999822646, 8.300943600013852, 8.55092959990725, 8.750945699866861, 8.992476500105113, 9.24255759967491]"	32	"[1.8725268002599478, 2.0891344002448022, 2.2974135000258684, 2.5057080001570284, 2.872452199924737, 3.08076799986884, 3.3224106999114156, 3.539146800059825, 3.7391050001606345, 3.964114500209689, 4.172551500145346, 4.414095399901271, 4.622357900254428, 4.830739200115204, 5.047375900205225, 5.23904350027442, 5.464216200169176, 5.9058894999325275, 6.122753399889916, 6.33095070021227, 6.547794899903238, 6.756111000198871, 6.997573200147599, 7.230853999964893, 7.480996900238097, 7.739368200302124, 8.030925400089473, 8.289449899923056, 8.539436399936676, 8.739449699874967, 8.980980299878865, 9.23106410028413]"	"[1.980465400032699, 2.2055056001991034, 2.4054894000291824, 2.630452500190586, 2.9304055999964476, 3.2220948999747634, 3.4221113002859056, 3.647152999881655, 3.8554867999628186, 4.0640477002598345, 4.313829100225121, 4.505507200025022, 4.730556400027126, 4.9305460001342, 5.155557699967176, 5.347239000257105, 5.597278600092977, 6.022260200232267, 6.205719099845737, 6.447288200259209, 6.680669100023806, 6.905714699998498, 7.1390686999075115, 7.364104799926281, 7.597387299872935, 7.889118900056928, 8.155740099959075, 8.415560400113463, 8.655918800272048, 8.88097310019657, 9.114347800146788, 9.339166600257158]"	199.656672500074	199.6617713999	201.153884000145	201.17023649998	NA	NA	NA	NA	NA	NA	NA	"02"	"02"	"2024-01-30_16h09.16.867"	"BART_exp"	"2023.2.3"	119.953841298681	"2024-01-30 16h09.26.887824 +0100"	NA
"balloon.png"	66	0	17	17	15	201.17023649998	NA	NA	NA	NA	NA	NA	NA	NA	NA	NA	NA	NA	201.15407379996	201.17023649998	201.17023649998	201.17023649998	201.17023649998	201.17023649998	0.0136337000876665	NA	NA	201.17023649998	208.880619799718	26	1.3	FALSE	"[-0.044444444444444446, -0.04537037037037037, -0.04537037037037037, -0.04537037037037037, -0.04537037037037037, -0.04537037037037037, -0.04537037037037037, -0.04537037037037037, -0.012962962962962963, -0.012962962962962963, -0.012962962962962963, -0.012962962962962963, -0.012962962962962963, -0.012037037037037037, -0.012037037037037037, -0.012037037037037037, -0.012037037037037037, -0.012037037037037037, -0.012037037037037037, -0.012037037037037037, -0.012037037037037037, -0.012037037037037037, -0.012037037037037037, -0.012037037037037037, -0.012037037037037037, -0.012037037037037037, -0.011111111111111112]"	"[-0.4083333333333333, -0.412962962962963, -0.412962962962963, -0.412962962962963, -0.412962962962963, -0.412962962962963, -0.412962962962963, -0.412962962962963, -0.4111111111111111, -0.4111111111111111, -0.4111111111111111, -0.4111111111111111, -0.4111111111111111, -0.4111111111111111, -0.4111111111111111, -0.4111111111111111, -0.4111111111111111, -0.4111111111111111, -0.4111111111111111, -0.4111111111111111, -0.4111111111111111, -0.4111111111111111, -0.4111111111111111, -0.4111111111111111, -0.4101851851851852, -0.4101851851851852, -0.40925925925925927]"	"[1, 1, 1, 1, 1, 1, 1, 1, 1, 1, 1, 1, 1, 1, 1, 1, 1, 1, 1, 1, 1, 1, 1, 1, 1, 1, 0]"	"[0, 0, 0, 0, 0, 0, 0, 0, 0, 0, 0, 0, 0, 0, 0, 0, 0, 0, 0, 0, 0, 0, 0, 0, 0, 0, 0]"	"[0, 0, 0, 0, 0, 0, 0, 0, 0, 0, 0, 0, 0, 0, 0, 0, 0, 0, 0, 0, 0, 0, 0, 0, 0, 0, 1]"	"[0.29207109985873103, 0.5501417000778019, 0.8085946999490261, 1.075347799807787, 1.3418846996501088, 1.6002067998051643, 1.8337102998048067, 2.0837346999906003, 2.5502718999050558, 2.7669734000228345, 2.958689899649471, 3.166986799798906, 3.3837381997145712, 3.617160199675709, 3.8172222999855876, 4.042187999933958, 4.2756133996881545, 4.517247200012207, 4.733847199939191, 4.9504249999299645, 5.175428200047463, 5.392273399978876, 5.63398929964751, 6.317345399875194, 6.525697399862111, 6.900747099891305, 7.7255902998149395]"	27	"[0.29003609996289015, 0.5481044999323785, 0.8065591999329627, 1.073313099797815, 1.3398516001179814, 1.5981680997647345, 1.8316762000322342, 2.0816983999684453, 2.548235099762678, 2.7649350999854505, 2.9566549002192914, 3.1649512997828424, 3.3816978000104427, 3.6151211000978947, 3.815186600200832, 4.040147399995476, 4.2735818000510335, 4.5152111002244055, 4.7318127998150885, 4.948384600225836, 5.173393600154668, 5.390239399857819, 5.631954799871892, 6.315317399799824, 6.523669200018048, 6.898716900032014, 7.723495100159198]"	"[0.4479331998154521, 0.6895991000346839, 0.9479503999464214, 1.206361100077629, 1.4479938000440598, 1.7314086998812854, 1.9564391002058983, 2.1813777000643313, 2.6647343998774886, 2.873130800202489, 3.0731180999428034, 3.2814513999037445, 3.4981323000974953, 3.706490899901837, 3.939848099835217, 4.148231599945575, 4.398330600000918, 4.6232337998226285, 4.831607500091195, 5.081573599949479, 5.273259799927473, 5.515064400155097, 5.739977499935776, 6.4400343000888824, 6.640014300122857, 7.015060400124639, 7.7234991998411715]"	208.881785999984	208.887462600134	210.379407699686	210.39583799988	NA	NA	NA	NA	NA	NA	NA	"02"	"02"	"2024-01-30_16h09.16.867"	"BART_exp"	"2023.2.3"	119.953841298681	"2024-01-30 16h09.26.887824 +0100"	NA
"balloon.png"	10	0	18	18	2	210.39583799988	NA	NA	NA	NA	NA	NA	NA	NA	NA	NA	NA	NA	210.379588599782	210.39583799988	210.39583799988	210.39583799988	210.39583799988	210.39583799988	-0.00081680016592144	-0.00081680016592144	-0.00081680016592144	210.39583799988	213.656288899947	11	0.5	TRUE	"[-0.04259259259259259, -0.03981481481481482, -0.03981481481481482, -0.04259259259259259, -0.04259259259259259, -0.04259259259259259, -0.04259259259259259, -0.04259259259259259, -0.04259259259259259, -0.04259259259259259, -0.04259259259259259]"	"[-0.375, -0.3731481481481482, -0.3731481481481482, -0.3768518518518518, -0.37777777777777777, -0.37962962962962965, -0.3814814814814815, -0.3814814814814815, -0.38425925925925924, -0.38425925925925924, -0.38425925925925924]"	"[1, 1, 1, 1, 1, 1, 1, 1, 1, 1, 1]"	"[0, 0, 0, 0, 0, 0, 0, 0, 0, 0, 0]"	"[0, 0, 0, 0, 0, 0, 0, 0, 0, 0, 0]"	"[0.6338197002187371, 0.9252812000922859, 1.158757499884814, 1.392295700032264, 1.6088421000167727, 1.8339046002365649, 2.058923600241542, 2.2754929000511765, 2.5004016999155283, 2.7420854000374675, 3.1088590999133885]"	11	"[0.6271890997886658, 0.9186472999863327, 1.152127799578011, 1.3856714996509254, 1.6022098995745182, 1.827275199815631, 2.052289899904281, 2.2688618996180594, 2.4937745998613536, 2.7354569998569787, 3.102228299714625]"	"[0.7935260999947786, 1.0268990998156369, 1.2769120996817946, 1.493553299922496, 1.718686499632895, 1.935232499614358, 2.1519970996305346, 2.4019450997002423, 2.62694099964574, 2.895069199614227, 3.2603758997283876]"	213.657015400007	213.662776799873	215.154670499731	215.179506800137	NA	NA	NA	NA	NA	NA	NA	"02"	"02"	"2024-01-30_16h09.16.867"	"BART_exp"	"2023.2.3"	119.953841298681	"2024-01-30 16h09.26.887824 +0100"	NA
"balloon.png"	23	0	19	19	5	215.179506800137	NA	NA	NA	NA	NA	NA	NA	NA	NA	NA	NA	NA	215.154844000004	215.179506800137	215.179506800137	215.179506800137	215.179506800137	215.179506800137	-0.00086200004443526	-0.00086200004443526	-0.00086200004443526	215.179506800137	221.373543600086	24	1.15	TRUE	"[-0.04259259259259259, -0.04259259259259259, -0.04259259259259259, -0.04259259259259259, -0.04259259259259259, -0.04259259259259259, -0.04259259259259259, -0.04259259259259259, -0.04259259259259259, -0.04259259259259259, -0.04259259259259259, -0.04259259259259259, -0.04259259259259259, -0.04259259259259259, -0.04259259259259259, -0.04259259259259259, -0.04259259259259259, -0.04259259259259259, -0.04259259259259259, -0.04259259259259259, -0.04259259259259259, -0.04259259259259259, -0.04259259259259259, -0.04259259259259259]"	"[-0.38425925925925924, -0.38425925925925924, -0.38425925925925924, -0.38425925925925924, -0.38425925925925924, -0.38425925925925924, -0.38425925925925924, -0.38425925925925924, -0.38425925925925924, -0.38425925925925924, -0.38425925925925924, -0.38425925925925924, -0.38425925925925924, -0.38425925925925924, -0.38425925925925924, -0.38425925925925924, -0.38425925925925924, -0.38425925925925924, -0.38425925925925924, -0.38425925925925924, -0.38425925925925924, -0.38425925925925924, -0.38425925925925924, -0.38425925925925924]"	"[1, 1, 1, 1, 1, 1, 1, 1, 1, 1, 1, 1, 1, 1, 1, 1, 1, 1, 1, 1, 1, 1, 1, 1]"	"[0, 0, 0, 0, 0, 0, 0, 0, 0, 0, 0, 0, 0, 0, 0, 0, 0, 0, 0, 0, 0, 0, 0, 0]"	"[0, 0, 0, 0, 0, 0, 0, 0, 0, 0, 0, 0, 0, 0, 0, 0, 0, 0, 0, 0, 0, 0, 0, 0]"	"[0.15864439960569143, 0.4089914998039603, 0.6255041998811066, 1.0505598997697234, 1.292218199931085, 1.5171021996065974, 1.7337627997621894, 1.942126499954611, 2.158852399792522, 2.39226539991796, 2.6257011997513473, 2.8756436998955905, 3.1255148998461664, 3.375595999881625, 3.6257433998398483, 3.8923712000250816, 4.158917599823326, 4.475795199628919, 4.767279299907386, 5.042569099925458, 5.317314799875021, 5.575826699845493, 5.825932299718261, 6.075851799920201]"	24	"[0.14751490019261837, 0.39786799997091293, 0.6143749998882413, 1.039433800149709, 1.2810856001451612, 1.5059716999530792, 1.7226279000751674, 1.9310011002235115, 2.1477252999320626, 2.3811353002674878, 2.6145752002485096, 2.864512200001627, 3.1143856002017856, 3.3644650001078844, 3.6146141001954675, 3.881240200251341, 4.1477938001044095, 4.464660400059074, 4.756148499902338, 5.031443899963051, 5.306180800311267, 5.564691999927163, 5.8148038000799716, 6.064724100288004]"	"[0.2973488001152873, 0.505719699896872, 0.7474527000449598, 1.1891029998660088, 1.405829300172627, 1.6224674000404775, 1.830783599987626, 2.0558401001617312, 2.2809025002643466, 2.5308730001561344, 2.7642097999341786, 2.9824243001639843, 3.2392259002663195, 3.489304800052196, 3.7559491000138223, 4.005950900260359, 4.28929019998759, 4.607440600171685, 4.881128000095487, 5.156018000096083, 5.406295100226998, 5.7143812999129295, 5.947764500044286, 6.197816399857402]"	221.37457720004	221.379914799705	222.871938599739	222.880028499756	NA	NA	NA	NA	NA	NA	NA	"02"	"02"	"2024-01-30_16h09.16.867"	"BART_exp"	"2023.2.3"	119.953841298681	"2024-01-30 16h09.26.887824 +0100"	NA
"balloon.png"	123	0	20	20	28	222.880028499756	NA	NA	NA	NA	NA	NA	NA	NA	NA	NA	NA	NA	222.872116900049	222.880028499756	222.880028499756	222.880028499756	222.880028499756	222.880028499756	0.00551520008593797	NA	NA	222.880028499756	228.656958200037	20	1	FALSE	"[-0.04259259259259259, -0.04259259259259259, -0.04259259259259259, -0.04259259259259259, -0.04259259259259259, -0.04259259259259259, -0.04259259259259259, -0.04259259259259259, -0.04259259259259259, -0.04259259259259259, -0.04259259259259259, -0.04259259259259259, -0.04259259259259259, -0.04259259259259259, -0.04259259259259259, -0.04259259259259259, -0.04259259259259259, -0.04259259259259259, -0.04259259259259259, -0.04259259259259259, -0.04259259259259259]"	"[-0.38425925925925924, -0.38425925925925924, -0.38425925925925924, -0.38425925925925924, -0.38425925925925924, -0.38425925925925924, -0.38425925925925924, -0.38425925925925924, -0.38425925925925924, -0.38425925925925924, -0.38425925925925924, -0.38425925925925924, -0.38425925925925924, -0.38425925925925924, -0.38425925925925924, -0.38425925925925924, -0.38425925925925924, -0.38425925925925924, -0.38425925925925924, -0.38425925925925924, -0.38425925925925924]"	"[1, 1, 1, 1, 1, 1, 1, 1, 1, 1, 1, 1, 1, 1, 1, 1, 1, 1, 1, 1, 0]"	"[0, 0, 0, 0, 0, 0, 0, 0, 0, 0, 0, 0, 0, 0, 0, 0, 0, 0, 0, 0, 0]"	"[0, 0, 0, 0, 0, 0, 0, 0, 0, 0, 0, 0, 0, 0, 0, 0, 0, 0, 0, 0, 1]"	"[0.22521479986608028, 0.40857249964028597, 0.6252468996681273, 0.8335845996625721, 1.0502764000557363, 1.258778799790889, 1.4754719999618828, 1.7171567999757826, 1.950470000039786, 2.183706999756396, 2.383675899822265, 2.60884299967438, 2.850518699735403, 3.1020122999325395, 3.3589109000749886, 3.633766300044954, 3.867398999631405, 4.283973599784076, 4.4923446998000145, 4.692369099706411, 5.783894799649715]"	21	"[0.22326279990375042, 0.40661479998379946, 0.6232904000207782, 0.8316304995678365, 1.0483236997388303, 1.2568298997357488, 1.4735163999721408, 1.7152011999860406, 1.9485218999907374, 2.181762699969113, 2.3817586000077426, 2.606892899610102, 2.8485705996863544, 3.1002193996682763, 3.3569575999863446, 3.6318076997995377, 3.865442999638617, 4.282022999599576, 4.490389599930495, 4.6904144999571145, 5.781878199893981]"	"[0.30643330002203584, 0.4897684999741614, 0.7315052999183536, 0.9398578000254929, 1.1481842999346554, 1.3731755996122956, 1.623225999996066, 1.8315510000102222, 2.056550799869001, 2.289935799781233, 2.4899138999171555, 2.7318071997724473, 2.9816291998140514, 3.239979399833828, 3.4983207997865975, 3.756675699725747, 4.015013999771327, 4.3817319995723665, 4.5983928996138275, 4.7817299999296665, 5.781882499810308]"	228.657892699819	228.66373270005	230.155704299919	230.172335799783	NA	NA	NA	NA	NA	NA	NA	"02"	"02"	"2024-01-30_16h09.16.867"	"BART_exp"	"2023.2.3"	119.953841298681	"2024-01-30 16h09.26.887824 +0100"	NA
"balloon.png"	36	0	21	21	8	230.172335799783	NA	NA	NA	NA	NA	NA	NA	NA	NA	NA	NA	NA	230.155881300103	230.172335799783	230.172335799783	230.172335799783	230.172335799783	230.172335799783	-0.00075920019298791	-0.00075920019298791	-0.00075920019298791	230.172335799783	239.099425199907	28	1.4	FALSE	"[-0.04351851851851852, -0.04351851851851852, -0.04351851851851852, -0.04351851851851852, -0.04351851851851852, -0.04351851851851852, -0.04351851851851852, -0.04351851851851852, -0.04351851851851852, -0.04351851851851852, -0.04351851851851852, -0.04351851851851852, -0.04351851851851852, -0.04351851851851852, -0.04351851851851852, -0.04351851851851852, -0.04351851851851852, -0.04351851851851852, -0.04351851851851852, -0.04351851851851852, -0.04351851851851852, -0.04351851851851852, -0.04351851851851852, -0.04351851851851852, -0.04351851851851852, -0.04351851851851852, -0.04351851851851852, -0.04351851851851852, -0.04351851851851852]"	"[-0.38425925925925924, -0.38425925925925924, -0.38425925925925924, -0.38425925925925924, -0.38425925925925924, -0.38425925925925924, -0.38425925925925924, -0.38425925925925924, -0.38425925925925924, -0.38425925925925924, -0.38425925925925924, -0.38425925925925924, -0.38425925925925924, -0.38425925925925924, -0.38425925925925924, -0.38425925925925924, -0.38425925925925924, -0.38425925925925924, -0.38425925925925924, -0.38425925925925924, -0.38425925925925924, -0.38425925925925924, -0.38425925925925924, -0.38425925925925924, -0.38425925925925924, -0.38425925925925924, -0.38425925925925924, -0.38425925925925924, -0.38425925925925924]"	"[1, 1, 1, 1, 1, 1, 1, 1, 1, 1, 1, 1, 1, 1, 1, 1, 1, 1, 1, 1, 1, 1, 1, 1, 1, 1, 1, 1, 0]"	"[0, 0, 0, 0, 0, 0, 0, 0, 0, 0, 0, 0, 0, 0, 0, 0, 0, 0, 0, 0, 0, 0, 0, 0, 0, 0, 0, 0, 0]"	"[0, 0, 0, 0, 0, 0, 0, 0, 0, 0, 0, 0, 0, 0, 0, 0, 0, 0, 0, 0, 0, 0, 0, 0, 0, 0, 0, 0, 1]"	"[0.30864319996908307, 0.5003045997582376, 0.7503045997582376, 0.9419958996586502, 1.1838412997312844, 1.4088539998047054, 1.6672471999190748, 1.883958499878645, 2.133746299892664, 2.3922486999072134, 2.625644899904728, 2.9089056998491287, 3.2838276997208595, 3.7422024998813868, 3.9588690996170044, 4.175750699825585, 4.3840582999400795, 4.6174190999008715, 4.825776499696076, 5.06749269971624, 5.550888599827886, 5.8258354999125, 6.350848299916834, 6.559248199686408, 6.767650600057095, 7.209269899874926, 7.410655299667269, 8.017655999865383, 8.942616299726069]"	29	"[0.29823789978399873, 0.4898997996933758, 0.739898500032723, 0.9315900998190045, 1.1734397998079658, 1.3984519997611642, 1.6568415998481214, 1.8735732999630272, 2.1233427999541163, 2.3818433000706136, 2.6152387000620365, 2.8984977998770773, 3.273425499908626, 3.7317971996963024, 3.948458499740809, 4.1653493996709585, 4.373657200019807, 4.607018299866468, 4.8153719999827445, 5.057090699672699, 5.540490899700671, 5.815433799754828, 6.340448800008744, 6.548852199688554, 6.757250499911606, 7.198869099840522, 7.400423299986869, 8.007250899914652, 8.932149400003254]"	"[0.39806289970874786, 0.6231068000197411, 0.8314819997176528, 1.0648193997330964, 1.3065263000316918, 1.5315247997641563, 1.7483595996163785, 1.9817264997400343, 2.264872199855745, 2.498279099818319, 2.7566001997329295, 3.0065766000188887, 3.381694399751723, 3.8235071999952197, 4.0567770996131, 4.273377399891615, 4.498337999917567, 4.690085199661553, 4.923457799945027, 5.215123699977994, 5.706765200011432, 5.924837699625641, 6.456865799613297, 6.665290900040418, 6.856843499932438, 7.331878699827939, 7.506881000008434, 8.115939599927515, 8.932153599802405]"	239.100457699969	239.106112599839	240.598141799681	240.614615399856	NA	NA	NA	NA	NA	NA	NA	"02"	"02"	"2024-01-30_16h09.16.867"	"BART_exp"	"2023.2.3"	119.953841298681	"2024-01-30 16h09.26.887824 +0100"	NA
"balloon.png"	92	0	22	22	21	240.614615399856	NA	NA	NA	NA	NA	NA	NA	NA	NA	NA	NA	NA	240.598328599706	240.614615399856	240.614615399856	240.614615399856	240.614615399856	240.614615399856	-0.00073769968003034	-0.00073769968003034	-0.00073769968003034	240.614615399856	258.467474800069	50	2.5	FALSE	"[-0.07407407407407407, -0.07407407407407407, -0.07407407407407407, -0.07407407407407407, -0.07407407407407407, -0.07314814814814814, -0.07314814814814814, -0.07314814814814814, -0.07314814814814814, -0.07314814814814814, -0.07314814814814814, -0.07314814814814814, -0.07314814814814814, -0.07314814814814814, -0.07314814814814814, -0.07314814814814814, -0.07314814814814814, -0.07314814814814814, -0.07314814814814814, -0.07314814814814814, -0.07314814814814814, -0.07314814814814814, -0.07314814814814814, -0.07314814814814814, -0.07314814814814814, -0.07314814814814814, -0.07314814814814814, -0.07314814814814814, -0.07314814814814814, -0.07314814814814814, -0.07314814814814814, -0.07314814814814814, -0.07314814814814814, -0.07314814814814814, -0.07314814814814814, -0.07314814814814814, -0.07314814814814814, -0.07314814814814814, -0.07314814814814814, -0.07314814814814814, -0.07314814814814814, -0.07314814814814814, -0.07314814814814814, -0.07314814814814814, -0.07314814814814814, -0.07314814814814814, -0.07314814814814814, -0.07314814814814814, -0.07314814814814814, -0.07314814814814814, -0.07314814814814814]"	"[-0.3925925925925926, -0.3925925925925926, -0.3925925925925926, -0.3925925925925926, -0.3925925925925926, -0.3925925925925926, -0.3925925925925926, -0.3925925925925926, -0.3925925925925926, -0.3925925925925926, -0.3925925925925926, -0.3925925925925926, -0.3925925925925926, -0.3925925925925926, -0.3925925925925926, -0.3925925925925926, -0.3925925925925926, -0.3925925925925926, -0.3925925925925926, -0.3925925925925926, -0.3925925925925926, -0.3925925925925926, -0.3925925925925926, -0.3925925925925926, -0.3925925925925926, -0.3925925925925926, -0.3925925925925926, -0.3925925925925926, -0.3925925925925926, -0.3925925925925926, -0.3925925925925926, -0.3925925925925926, -0.3925925925925926, -0.3925925925925926, -0.3925925925925926, -0.3925925925925926, -0.3925925925925926, -0.3925925925925926, -0.3925925925925926, -0.3925925925925926, -0.3925925925925926, -0.3925925925925926, -0.3925925925925926, -0.3925925925925926, -0.3925925925925926, -0.3925925925925926, -0.3925925925925926, -0.3925925925925926, -0.3925925925925926, -0.3925925925925926, -0.3925925925925926]"	"[1, 1, 1, 1, 1, 1, 1, 1, 1, 1, 1, 1, 1, 1, 1, 1, 1, 1, 1, 1, 1, 1, 1, 1, 1, 1, 1, 1, 1, 1, 1, 1, 1, 1, 1, 1, 1, 1, 1, 1, 1, 1, 1, 1, 1, 1, 1, 1, 1, 1, 0]"	"[0, 0, 0, 0, 0, 0, 0, 0, 0, 0, 0, 0, 0, 0, 0, 0, 0, 0, 0, 0, 0, 0, 0, 0, 0, 0, 0, 0, 0, 0, 0, 0, 0, 0, 0, 0, 0, 0, 0, 0, 0, 0, 0, 0, 0, 0, 0, 0, 0, 0, 0]"	"[0, 0, 0, 0, 0, 0, 0, 0, 0, 0, 0, 0, 0, 0, 0, 0, 0, 0, 0, 0, 0, 0, 0, 0, 0, 0, 0, 0, 0, 0, 0, 0, 0, 0, 0, 0, 0, 0, 0, 0, 0, 0, 0, 0, 0, 0, 0, 0, 0, 0, 1]"	"[0.6169572002254426, 0.8419483001343906, 1.092159400228411, 1.3255791002884507, 1.5505184000357985, 1.80866920016706, 2.0670035001821816, 2.317245500162244, 2.5838874001055956, 2.8420512001030147, 3.0838432000018656, 3.342243100050837, 3.59225230012089, 3.842145200353116, 4.1172724002972245, 4.350650300271809, 4.617345200385898, 4.87552100000903, 5.125731200445443, 5.350736600346863, 5.609105300158262, 5.883913800120354, 6.117439900059253, 6.859025500249118, 7.100845500361174, 7.317493400070816, 7.859065400436521, 8.134269300382584, 8.377298600040376, 8.625804600305855, 8.875782400369644, 9.1342953001149, 9.400839100126177, 9.634207300376147, 9.892524200025946, 10.526109500322491, 10.80091810040176, 11.025930100120604, 11.225982200354338, 11.642633700277656, 12.26770419999957, 12.776378500275314, 13.184450400061905, 13.684466100297868, 14.06800080044195, 14.501304400153458, 15.484653800260276, 15.951439100317657, 16.7265721000731, 16.909821700304747, 17.868213000241667]"	51	"[0.6095972000621259, 0.8345800000242889, 1.0848610000684857, 1.3182129999622703, 1.5431566000916064, 1.8013066998682916, 2.059643399901688, 2.3098869998939335, 2.576526800170541, 2.834689499810338, 3.076476600021124, 3.334881099872291, 3.5848865997977555, 3.834787799976766, 4.109907899983227, 4.343287999741733, 4.609977100044489, 4.868159600067884, 5.118366499897093, 5.343370900023729, 5.601741599850357, 5.876542400103062, 6.110073999967426, 6.851658599916846, 7.0934782000258565, 7.3101237998344, 7.851697399746627, 8.12690640008077, 8.37009540013969, 8.618439599871635, 8.868420300073922, 9.12692609988153, 9.393470000009984, 9.626844000071287, 9.885156699921936, 10.518743599765003, 10.79354800004512, 11.018563500139862, 11.218613300006837, 11.635267499834299, 12.260342299938202, 12.769051699899137, 13.17708700010553, 13.677100100088865, 14.060633599758148, 14.493941199965775, 15.477293000090867, 15.944074099883437, 16.71920849988237, 16.90245269984007, 17.860781399998814]"	"[0.7593916999176145, 0.9593901000916958, 1.2094108001329005, 1.4427717998623848, 1.6678075999952853, 1.9178292998112738, 2.1929641999304295, 2.45950959995389, 2.709532800130546, 2.9678671997971833, 3.217893599998206, 3.4845965998247266, 3.717954399995506, 3.97631479986012, 4.234620600007474, 4.501565900165588, 4.751336399931461, 5.001351099926978, 5.234738499857485, 5.493058399762958, 5.7431728998199105, 5.984760200139135, 6.243085199967027, 6.9848615997470915, 7.193138899747282, 7.434829399921, 7.959875000175089, 8.22660670010373, 8.484902299940586, 8.726603599730879, 8.959954999852926, 9.26831700000912, 9.501650999765843, 9.735005999915302, 9.993434799835086, 10.676723800133914, 10.893400100059807, 11.126744600012898, 11.34353579999879, 11.753227800130844, 12.368512500077486, 12.885217300150543, 13.293817999772727, 13.79360259976238, 14.168636499904096, 14.610332999844104, 15.610471799969673, 16.03548750001937, 16.827262499835342, 17.02732909983024, 17.860785400029272]"	258.469029299915	258.474111199845	259.966095699929	259.974180500023	NA	NA	NA	NA	NA	NA	NA	"02"	"02"	"2024-01-30_16h09.16.867"	"BART_exp"	"2023.2.3"	119.953841298681	"2024-01-30 16h09.26.887824 +0100"	NA
"balloon.png"	53	0	23	23	12	259.974180500023	NA	NA	NA	NA	NA	NA	NA	NA	NA	NA	NA	NA	259.966281199828	259.974180500023	259.974180500023	259.974180500023	259.974180500023	259.974180500023	0.00521179987117648	0.00521179987117648	0.00521179987117648	259.974180500023	271.576518999878	30	1.5	FALSE	"[-0.05648148148148148, -0.06018518518518518, -0.06018518518518518, -0.06018518518518518, -0.06018518518518518, -0.06018518518518518, -0.06018518518518518, -0.06018518518518518, -0.06018518518518518, -0.06018518518518518, -0.06018518518518518, -0.06018518518518518, -0.06018518518518518, -0.06018518518518518, -0.06018518518518518, -0.06018518518518518, -0.06018518518518518, -0.06018518518518518, -0.06018518518518518, -0.06018518518518518, -0.06018518518518518, -0.06018518518518518, -0.06018518518518518, -0.06018518518518518, -0.06018518518518518, -0.06018518518518518, -0.06018518518518518, -0.06018518518518518, -0.06018518518518518, -0.06018518518518518, -0.06018518518518518]"	"[-0.3962962962962963, -0.4046296296296296, -0.4046296296296296, -0.4046296296296296, -0.4046296296296296, -0.4046296296296296, -0.4046296296296296, -0.4046296296296296, -0.4046296296296296, -0.4046296296296296, -0.4046296296296296, -0.4046296296296296, -0.4046296296296296, -0.4046296296296296, -0.4046296296296296, -0.4046296296296296, -0.4046296296296296, -0.4046296296296296, -0.4046296296296296, -0.4046296296296296, -0.4046296296296296, -0.4046296296296296, -0.4046296296296296, -0.4046296296296296, -0.4046296296296296, -0.4046296296296296, -0.4046296296296296, -0.4046296296296296, -0.4046296296296296, -0.4046296296296296, -0.4046296296296296]"	"[1, 1, 1, 1, 1, 1, 1, 1, 1, 1, 1, 1, 1, 1, 1, 1, 1, 1, 1, 1, 1, 1, 1, 1, 1, 1, 1, 1, 1, 1, 0]"	"[0, 0, 0, 0, 0, 0, 0, 0, 0, 0, 0, 0, 0, 0, 0, 0, 0, 0, 0, 0, 0, 0, 0, 0, 0, 0, 0, 0, 0, 0, 0]"	"[0, 0, 0, 0, 0, 0, 0, 0, 0, 0, 0, 0, 0, 0, 0, 0, 0, 0, 0, 0, 0, 0, 0, 0, 0, 0, 0, 0, 0, 0, 1]"	"[2.900504299905151, 3.1173187997192144, 3.3589925998821855, 3.575598099734634, 3.83378200000152, 4.025465799961239, 4.258935899939388, 4.517301499843597, 4.734009800013155, 4.975695999804884, 5.208881199825555, 5.483904299791902, 5.725775700062513, 5.9424527999944985, 6.2007732996717095, 6.442286499775946, 6.65916039980948, 6.892467599827796, 7.125837099738419, 7.359183799941093, 7.584194799885154, 7.825752399861813, 8.067517299670726, 8.325918399728835, 8.592674099840224, 9.32601449964568, 9.6426357999444, 9.959418899845332, 10.475936899892986, 10.942763299681246, 11.609290099702775]"	31	"[2.898655999917537, 3.115472000092268, 3.357142999768257, 3.5737410001456738, 3.831929699983448, 4.023614400066435, 4.257084799930453, 4.515445900149643, 4.732158400118351, 4.973839600104839, 5.207028400152922, 5.482047699857503, 5.723922200035304, 5.940597400069237, 6.198916700202972, 6.440431599970907, 6.657306800130755, 6.890617600176483, 7.123986599966884, 7.357326800003648, 7.582338300067931, 7.823900400195271, 8.065663099754602, 8.324063200037926, 8.5908288997598, 9.324159900192171, 9.640780299901962, 9.957564400043339, 10.4740816000849, 10.940909700002521, 11.607370600104332]"	"[3.0401548999361694, 3.231837899889797, 3.4650754001922905, 3.6817741999402642, 3.890115700196475, 4.173478299751878, 4.381842600181699, 4.640161999966949, 4.873515400104225, 5.107001400087029, 5.36535710003227, 5.623561900109053, 5.856974299997091, 6.073586899787188, 6.306940500158817, 6.548620699904859, 6.765373799949884, 7.0070718000642955, 7.257034599781036, 7.482070100028068, 7.715412700083107, 7.948952300008386, 8.198775200173259, 8.44048949982971, 8.715493000112474, 9.465497300028801, 9.740594800096005, 10.01557289995253, 10.590638400055468, 11.074138199910522, 11.607374799903482]"	271.577632599976	271.583309399895	273.075269099791	273.10009509977	NA	NA	NA	NA	NA	NA	NA	"02"	"02"	"2024-01-30_16h09.16.867"	"BART_exp"	"2023.2.3"	119.953841298681	"2024-01-30 16h09.26.887824 +0100"	NA
"balloon.png"	5	0	24	24	1	273.10009509977	NA	NA	NA	NA	NA	NA	NA	NA	NA	NA	NA	NA	273.075444399845	273.10009509977	273.10009509977	273.10009509977	273.10009509977	273.10009509977	-0.00093550002202391	-0.00093550002202391	-0.00093550002202391	273.10009509977	277.25247839978	6	0.25	TRUE	"[-0.010185185185185186, -0.010185185185185186, -0.010185185185185186, -0.010185185185185186, -0.010185185185185186, -0.010185185185185186]"	"[-0.3685185185185185, -0.3685185185185185, -0.3685185185185185, -0.3685185185185185, -0.3685185185185185, -0.3685185185185185]"	"[1, 1, 1, 1, 1, 1]"	"[0, 0, 0, 0, 0, 0]"	"[0, 0, 0, 0, 0, 0]"	"[2.9255349999293685, 3.167290300130844, 3.3840899001806974, 3.600814000237733, 3.8257377999834716, 4.083913399837911]"	6	"[2.9149176003411412, 3.1566686001606286, 3.373465800192207, 3.590277099981904, 3.8151175999082625, 4.073294200003147]"	"[3.0480382000096142, 3.2897421000525355, 3.5230803000740707, 3.7397618000395596, 3.9480965002439916, 4.156477500218898]"	277.253170500044	277.258684699889	278.750688700005	278.767136199865	NA	NA	NA	NA	NA	NA	NA	"02"	"02"	"2024-01-30_16h09.16.867"	"BART_exp"	"2023.2.3"	119.953841298681	"2024-01-30 16h09.26.887824 +0100"	NA
"balloon.png"	79	0	25	25	18	278.767136199865	NA	NA	NA	NA	NA	NA	NA	NA	NA	NA	NA	NA	278.750872000121	278.767136199865	278.767136199865	278.767136199865	278.767136199865	278.767136199865	-0.00090199988335371	-0.00090199988335371	-0.00090199988335371	278.767136199865	288.170835699886	30	1.5	FALSE	"[-0.012962962962962963, -0.012962962962962963, -0.012962962962962963, -0.012962962962962963, -0.012962962962962963, -0.012962962962962963, -0.012962962962962963, -0.012962962962962963, -0.012962962962962963, -0.012962962962962963, -0.012962962962962963, -0.012962962962962963, -0.012962962962962963, -0.012962962962962963, -0.012962962962962963, -0.012962962962962963, -0.012962962962962963, -0.012962962962962963, -0.012962962962962963, -0.012962962962962963, -0.012962962962962963, -0.012962962962962963, -0.012962962962962963, -0.012962962962962963, -0.012962962962962963, -0.012962962962962963, -0.012962962962962963, -0.012962962962962963, -0.012962962962962963, -0.012962962962962963, -0.011111111111111112]"	"[-0.4074074074074074, -0.4074074074074074, -0.4074074074074074, -0.4074074074074074, -0.4074074074074074, -0.4074074074074074, -0.4074074074074074, -0.4074074074074074, -0.4074074074074074, -0.4074074074074074, -0.4074074074074074, -0.4074074074074074, -0.4074074074074074, -0.4074074074074074, -0.4074074074074074, -0.4074074074074074, -0.4074074074074074, -0.4074074074074074, -0.4074074074074074, -0.4074074074074074, -0.4074074074074074, -0.4074074074074074, -0.4074074074074074, -0.4074074074074074, -0.4074074074074074, -0.4074074074074074, -0.4074074074074074, -0.4074074074074074, -0.4074074074074074, -0.4074074074074074, -0.40185185185185185]"	"[1, 1, 1, 1, 1, 1, 1, 1, 1, 1, 1, 1, 1, 1, 1, 1, 1, 1, 1, 1, 1, 1, 1, 1, 1, 1, 1, 1, 1, 1, 0]"	"[0, 0, 0, 0, 0, 0, 0, 0, 0, 0, 0, 0, 0, 0, 0, 0, 0, 0, 0, 0, 0, 0, 0, 0, 0, 0, 0, 0, 0, 0, 0]"	"[0, 0, 0, 0, 0, 0, 0, 0, 0, 0, 0, 0, 0, 0, 0, 0, 0, 0, 0, 0, 0, 0, 0, 0, 0, 0, 0, 0, 0, 0, 1]"	"[0.4919674997217953, 0.7004859996959567, 0.9338052999228239, 1.1421475000679493, 1.3755728998221457, 1.6253458000719547, 1.8755306000821292, 2.1602741996757686, 2.6754036997444928, 2.9256563996896148, 3.1255951998755336, 3.383960200008005, 3.633812699932605, 3.867183499969542, 4.1090247998945415, 4.342574599664658, 4.608910699840635, 4.825557299889624, 5.058915500063449, 5.267344399821013, 5.509185299742967, 5.725800999905914, 6.200721599627286, 6.417363199871033, 6.609011299908161, 7.750922299921513, 7.967623400036246, 8.192742999643087, 8.384293999988586, 8.725979799870402, 9.418857399839908]"	31	"[0.4867051001638174, 0.695222900249064, 0.9285388002172112, 1.1368792001158, 1.3703062003478408, 1.6200774000026286, 1.870265600271523, 2.1551706003956497, 2.6619121003896, 2.9203878003172576, 3.1203285004012287, 3.378695100080222, 3.62854399997741, 3.861927700228989, 4.103760899975896, 4.337306800298393, 4.603646200150251, 4.8202842003665864, 5.053655800409615, 5.262076199986041, 5.503925600089133, 5.720532900188118, 6.195450900122523, 6.4120948002673686, 6.6037402004003525, 7.745659400243312, 7.9623620002530515, 8.18747610040009, 8.37903010006994, 8.72071190038696, 9.413628300186247]"	"[0.6115570003166795, 0.8199094003066421, 1.0533063001930714, 1.2699237000197172, 1.5032982002012432, 1.7533209002576768, 2.0449763000942767, 2.2866419004276395, 2.795005100313574, 3.0366764003410935, 3.261706800200045, 3.511729700025171, 3.7700561000965536, 4.011826100293547, 4.270163299981505, 4.478476800024509, 4.720181800425053, 4.97018610034138, 5.203518600203097, 5.395175700075924, 5.620185600128025, 5.861871000379324, 6.312007500324398, 6.520392599981278, 6.703607400413603, 7.8536724001169205, 8.062030100263655, 8.270398400258273, 8.487073100171983, 8.85385540034622, 9.413635300006717]"	288.172024399973	288.184426299762	289.676281699911	NA	NA	NA	NA	NA	NA	NA	NA	"02"	"02"	"2024-01-30_16h09.16.867"	"BART_exp"	"2023.2.3"	119.953841298681	"2024-01-30 16h09.26.887824 +0100"	NA
"balloon.png"	71	0	26	26	16	289.692882699892	NA	NA	NA	NA	NA	NA	NA	NA	NA	NA	NA	NA	289.67645550007	289.692882699892	289.692882699892	289.692882699892	289.692882699892	289.692882699892	0.0056827999651432	0.0056827999651432	0.0056827999651432	289.692882699892	300.46200719988	33	1.65	FALSE	"[-0.011111111111111112, -0.011111111111111112, -0.011111111111111112, -0.011111111111111112, -0.011111111111111112, -0.011111111111111112, -0.011111111111111112, -0.011111111111111112, -0.011111111111111112, -0.011111111111111112, -0.011111111111111112, -0.011111111111111112, -0.011111111111111112, -0.011111111111111112, -0.011111111111111112, -0.011111111111111112, -0.011111111111111112, -0.011111111111111112, -0.011111111111111112, -0.011111111111111112, -0.011111111111111112, -0.011111111111111112, -0.011111111111111112, -0.011111111111111112, -0.011111111111111112, -0.011111111111111112, -0.011111111111111112, -0.011111111111111112, -0.011111111111111112, -0.011111111111111112, -0.011111111111111112, -0.011111111111111112, -0.011111111111111112, -0.011111111111111112]"	"[-0.4009259259259259, -0.4009259259259259, -0.4009259259259259, -0.4009259259259259, -0.4009259259259259, -0.4009259259259259, -0.4009259259259259, -0.4009259259259259, -0.4009259259259259, -0.4009259259259259, -0.4009259259259259, -0.4009259259259259, -0.4009259259259259, -0.4009259259259259, -0.4009259259259259, -0.4009259259259259, -0.4009259259259259, -0.4009259259259259, -0.4009259259259259, -0.4009259259259259, -0.4009259259259259, -0.4009259259259259, -0.4009259259259259, -0.4009259259259259, -0.4009259259259259, -0.4009259259259259, -0.4009259259259259, -0.4009259259259259, -0.4009259259259259, -0.4009259259259259, -0.40185185185185185, -0.4009259259259259, -0.4009259259259259, -0.4]"	"[1, 1, 1, 1, 1, 1, 1, 1, 1, 1, 1, 1, 1, 1, 1, 1, 1, 1, 1, 1, 1, 1, 1, 1, 1, 1, 1, 1, 1, 1, 1, 1, 1, 0]"	"[0, 0, 0, 0, 0, 0, 0, 0, 0, 0, 0, 0, 0, 0, 0, 0, 0, 0, 0, 0, 0, 0, 0, 0, 0, 0, 0, 0, 0, 0, 0, 0, 0, 0]"	"[0, 0, 0, 0, 0, 0, 0, 0, 0, 0, 0, 0, 0, 0, 0, 0, 0, 0, 0, 0, 0, 0, 0, 0, 0, 0, 0, 0, 0, 0, 0, 0, 0, 1]"	"[0.6173525000922382, 0.8506219000555575, 1.1004832000471652, 1.3018140001222491, 1.5089917001314461, 1.7506687003187835, 1.9840403003618121, 2.2173884003423154, 2.4589136000722647, 2.675814799964428, 2.9005953003652394, 3.1256013000383973, 3.342435300350189, 3.56746600009501, 3.792486899998039, 4.0425253002904356, 4.25073520001024, 4.4757023002021015, 4.692379400134087, 4.909053900279105, 5.125796900130808, 5.350897800177336, 5.575940400362015, 5.950998600106686, 6.1843179003335536, 6.442691800184548, 6.809370600152761, 7.0342944003641605, 7.234373900108039, 7.642793400213122, 7.867619200143963, 9.776272300165147, 10.02623110031709, 10.784636199939996]"	34	"[0.6077594999223948, 0.8410292998887599, 1.0908872000873089, 1.2923774002119899, 1.4993993998505175, 1.741068699862808, 1.9744458999484777, 2.2077934998087585, 2.4493183000013232, 2.6662357999011874, 2.8909980999305844, 3.1160026998259127, 3.332838799804449, 3.557869200129062, 3.782890200149268, 4.032932200003415, 4.241144000086933, 4.466101000085473, 4.682782299816608, 4.899458100087941, 5.1162006999365985, 5.341302299872041, 5.56634490005672, 5.941401099786162, 6.174718100111932, 6.433093800209463, 6.79977220017463, 7.024705899879336, 7.224773500114679, 7.633196200244129, 7.858019299805164, 9.766672099940479, 10.016657399944961, 10.774976899847388]"	"[0.7240714002400637, 0.9657509000971913, 1.1658425000496209, 1.4490999998524785, 1.6574694998562336, 1.8824553000740707, 2.1157967001199722, 2.3324807002209127, 2.5659694001078606, 2.7744498001411557, 3.0077776000835, 3.2325404002331197, 3.432545800227672, 3.6575584998354316, 3.9159202999435365, 4.149294500239193, 4.39093350013718, 4.59931859979406, 4.824292699806392, 5.015990400221199, 5.257725600153208, 5.457682299893349, 5.741054099984467, 6.057790900114924, 6.316127399913967, 6.516133499797434, 6.9078528000973165, 7.107836999930441, 7.3328150999732316, 7.757898299954832, 7.949535899795592, 9.908034100197256, 10.141336599830538, 10.774980999995023]"	300.463245799765	300.476938699838	301.968809099868	NA	NA	NA	NA	NA	NA	NA	NA	"02"	"02"	"2024-01-30_16h09.16.867"	"BART_exp"	"2023.2.3"	119.953841298681	"2024-01-30 16h09.26.887824 +0100"	NA
"balloon.png"	110	0	27	27	25	301.985365999863	NA	NA	NA	NA	NA	NA	NA	NA	NA	NA	NA	NA	301.968988399953	301.985365999863	301.985365999863	301.985365999863	301.985365999863	301.985365999863	0.00710070040076971	0.00710070040076971	0.00710070040076971	301.985365999863	307.604133800138	17	0.85	FALSE	"[0.010185185185185186, 0.010185185185185186, 0.010185185185185186, 0.010185185185185186, 0.011111111111111112, 0.011111111111111112, 0.011111111111111112, 0.011111111111111112, 0.011111111111111112, 0.011111111111111112, 0.011111111111111112, 0.011111111111111112, 0.011111111111111112, 0.011111111111111112, 0.011111111111111112, 0.011111111111111112, 0.011111111111111112, 0.011111111111111112]"	"[-0.3888888888888889, -0.3888888888888889, -0.3888888888888889, -0.3888888888888889, -0.3888888888888889, -0.3888888888888889, -0.3888888888888889, -0.3888888888888889, -0.3888888888888889, -0.3888888888888889, -0.3888888888888889, -0.3888888888888889, -0.3888888888888889, -0.3888888888888889, -0.3888888888888889, -0.3888888888888889, -0.3888888888888889, -0.3888888888888889]"	"[1, 1, 1, 1, 1, 1, 1, 1, 1, 1, 1, 1, 1, 1, 1, 1, 1, 0]"	"[0, 0, 0, 0, 0, 0, 0, 0, 0, 0, 0, 0, 0, 0, 0, 0, 0, 0]"	"[0, 0, 0, 0, 0, 0, 0, 0, 0, 0, 0, 0, 0, 0, 0, 0, 0, 1]"	"[0.8922744002193213, 1.1339448001235723, 1.3754349001683295, 1.6422745999880135, 1.917337500024587, 2.1588264000602067, 2.4005610002204776, 2.6674939999356866, 2.9422444999217987, 3.183917799964547, 3.4173804000020027, 3.6925520999357104, 3.9341226001270115, 4.192312499973923, 4.617399699985981, 4.85920810000971, 5.075854899827391, 5.634225899819285]"	18	"[0.8855763003230095, 1.1272464003413916, 1.368728400208056, 1.6355754001997411, 1.9106372999958694, 2.1521281003952026, 2.393861799966544, 2.660796600393951, 2.9355470002628863, 3.177213600371033, 3.4106809003278613, 3.685856200288981, 3.9274279000237584, 4.185611100401729, 4.610699800308794, 4.852502700407058, 5.069151500239968, 5.627461000345647]"	"[0.9852575003169477, 1.2354814000427723, 1.4852807000279427, 1.7686383002437651, 2.035308000165969, 2.2686562002636492, 2.5353693002834916, 2.7853556000627577, 3.0770388999953866, 3.2854695999994874, 3.5688376002945006, 3.793789700139314, 4.060443700291216, 4.318792600184679, 4.735515099950135, 4.93570449994877, 5.168868700042367, 5.627465100027621]"	307.604975000024	307.610740100034	309.102730599698	309.11918939976	NA	NA	NA	NA	NA	NA	NA	"02"	"02"	"2024-01-30_16h09.16.867"	"BART_exp"	"2023.2.3"	119.953841298681	"2024-01-30 16h09.26.887824 +0100"	NA
"balloon.png"	105	0	28	28	24	309.11918939976	NA	NA	NA	NA	NA	NA	NA	NA	NA	NA	NA	NA	309.102911400143	309.11918939976	309.11918939976	309.11918939976	309.11918939976	309.11918939976	-0.0006960998289287	-0.0006960998289287	-0.0006960998289287	309.11918939976	318.721352799796	31	1.55	FALSE	"[0.011111111111111112, 0.011111111111111112, 0.011111111111111112, 0.011111111111111112, 0.011111111111111112, 0.011111111111111112, 0.011111111111111112, 0.011111111111111112, 0.011111111111111112, 0.011111111111111112, 0.011111111111111112, 0.011111111111111112, 0.011111111111111112, 0.011111111111111112, 0.011111111111111112, 0.011111111111111112, 0.011111111111111112, 0.011111111111111112, 0.011111111111111112, 0.011111111111111112, 0.011111111111111112, 0.011111111111111112, 0.011111111111111112, 0.011111111111111112, 0.011111111111111112, 0.011111111111111112, 0.011111111111111112, 0.011111111111111112, 0.011111111111111112, 0.011111111111111112, 0.011111111111111112, 0.011111111111111112]"	"[-0.3888888888888889, -0.3888888888888889, -0.3888888888888889, -0.3888888888888889, -0.3888888888888889, -0.3888888888888889, -0.3888888888888889, -0.3888888888888889, -0.3888888888888889, -0.3888888888888889, -0.3888888888888889, -0.3888888888888889, -0.3888888888888889, -0.3888888888888889, -0.3888888888888889, -0.3888888888888889, -0.3888888888888889, -0.3888888888888889, -0.3888888888888889, -0.3888888888888889, -0.3888888888888889, -0.3888888888888889, -0.3888888888888889, -0.38981481481481484, -0.38981481481481484, -0.38981481481481484, -0.38981481481481484, -0.38981481481481484, -0.38981481481481484, -0.38981481481481484, -0.38981481481481484, -0.38981481481481484]"	"[1, 1, 1, 1, 1, 1, 1, 1, 1, 1, 1, 1, 1, 1, 1, 1, 1, 1, 1, 1, 1, 1, 1, 1, 1, 1, 1, 1, 1, 1, 1, 0]"	"[0, 0, 0, 0, 0, 0, 0, 0, 0, 0, 0, 0, 0, 0, 0, 0, 0, 0, 0, 0, 0, 0, 0, 0, 0, 0, 0, 0, 0, 0, 0, 0]"	"[0, 0, 0, 0, 0, 0, 0, 0, 0, 0, 0, 0, 0, 0, 0, 0, 0, 0, 0, 0, 0, 0, 0, 0, 0, 0, 0, 0, 0, 0, 0, 1]"	"[0.9753673998638988, 1.1837456999346614, 1.4252404998987913, 1.6419362998567522, 1.8586190999485552, 2.09215380018577, 2.3268634998239577, 2.5505528999492526, 2.792157399933785, 3.0337060000747442, 3.5172576000913978, 3.7422310998663306, 3.983910399954766, 4.267108799889684, 4.492360600270331, 4.725633200258017, 4.934080500155687, 5.167328800074756, 5.36735920002684, 5.825541500002146, 6.067238800227642, 6.30076069990173, 6.5174357001669705, 6.734178599901497, 6.925827099941671, 7.1591969998553395, 7.817352400161326, 8.042461500037462, 8.267491600010544, 8.509338700212538, 8.742694400250912, 9.617446700111032]"	32	"[0.9726860001683235, 1.1810646001249552, 1.422554800286889, 1.6392560000531375, 1.855940300039947, 2.0894710002467036, 2.3244735999032855, 2.5478701000101864, 2.7894768002443016, 3.031020199880004, 3.514587600249797, 3.7395516000688076, 3.981234800070524, 4.264433600008488, 4.489682199899107, 4.722955100238323, 4.93139800010249, 5.164644199889153, 5.364677600096911, 5.822862099856138, 6.064562399871647, 6.298085200134665, 6.514752400107682, 6.731500599998981, 6.923145799897611, 7.156514599919319, 7.814673600252718, 8.039779799990356, 8.264810500200838, 8.506661700084805, 8.740015100222081, 9.614699200261384]"	"[1.0640643001534045, 1.2891120999120176, 1.5224349000491202, 1.7392605999484658, 1.9807762000709772, 2.2224440001882613, 2.4476000000722706, 2.6808333001099527, 2.9058403000235558, 3.1392216999083757, 3.63088950002566, 3.855911500286311, 4.155926399864256, 4.389293400105089, 4.605948099866509, 4.847699600271881, 5.064338400028646, 5.272674300242215, 5.472721099853516, 5.9560437998734415, 6.197732100263238, 6.439641400240362, 6.614458600059152, 6.864461900200695, 7.039442100096494, 7.264582899864763, 7.931175000034273, 8.181202299892902, 8.43124569999054, 8.63957120012492, 8.864633799996227, 9.614703400060534]"	318.722444700077	318.728185200132	320.220130200032	320.236599999946	NA	NA	NA	NA	NA	NA	NA	"02"	"02"	"2024-01-30_16h09.16.867"	"BART_exp"	"2023.2.3"	119.953841298681	"2024-01-30 16h09.26.887824 +0100"	NA
"balloon.png"	127	0	29	29	29	320.236599999946	NA	NA	NA	NA	NA	NA	NA	NA	NA	NA	NA	NA	320.220307399984	320.236599999946	320.236599999946	320.236599999946	320.236599999946	320.236599999946	-0.00081600015982985	-0.00081600015982985	-0.00081600015982985	320.236599999946	331.439045299776	29	1.45	FALSE	"[0.011111111111111112, 0.011111111111111112, 0.011111111111111112, 0.011111111111111112, 0.011111111111111112, 0.011111111111111112, 0.011111111111111112, 0.011111111111111112, 0.011111111111111112, 0.011111111111111112, 0.011111111111111112, 0.011111111111111112, 0.011111111111111112, 0.011111111111111112, 0.011111111111111112, 0.011111111111111112, 0.011111111111111112, 0.011111111111111112, 0.011111111111111112, 0.011111111111111112, 0.011111111111111112, 0.011111111111111112, 0.011111111111111112, 0.011111111111111112, 0.011111111111111112, 0.011111111111111112, 0.011111111111111112, 0.011111111111111112, 0.011111111111111112, 0.011111111111111112]"	"[-0.38981481481481484, -0.38981481481481484, -0.38981481481481484, -0.38981481481481484, -0.38981481481481484, -0.38981481481481484, -0.38981481481481484, -0.38981481481481484, -0.38981481481481484, -0.38981481481481484, -0.38981481481481484, -0.38981481481481484, -0.38981481481481484, -0.38981481481481484, -0.38981481481481484, -0.38981481481481484, -0.38981481481481484, -0.38981481481481484, -0.38981481481481484, -0.38981481481481484, -0.38981481481481484, -0.38981481481481484, -0.38981481481481484, -0.38981481481481484, -0.38981481481481484, -0.38981481481481484, -0.38981481481481484, -0.38981481481481484, -0.38981481481481484, -0.38981481481481484]"	"[1, 1, 1, 1, 1, 1, 1, 1, 1, 1, 1, 1, 1, 1, 1, 1, 1, 1, 1, 1, 1, 1, 1, 1, 1, 1, 1, 1, 1, 0]"	"[0, 0, 0, 0, 0, 0, 0, 0, 0, 0, 0, 0, 0, 0, 0, 0, 0, 0, 0, 0, 0, 0, 0, 0, 0, 0, 0, 0, 0, 0]"	"[0, 0, 0, 0, 0, 0, 0, 0, 0, 0, 0, 0, 0, 0, 0, 0, 0, 0, 0, 0, 0, 0, 0, 0, 0, 0, 0, 0, 0, 1]"	"[1.6088220002129674, 1.800488700158894, 2.0256345001980662, 2.2420373000204563, 2.45889290003106, 2.6671078000217676, 2.901825299952179, 3.2006898000836372, 3.4174675000831485, 3.6256156000308692, 3.8588418001309037, 4.058858300093561, 4.285183100029826, 4.5255919001065195, 4.959030000027269, 5.159143700264394, 5.384114500135183, 5.6090795998461545, 5.825763999950141, 6.051965199876577, 6.275638400111347, 6.492407100275159, 6.71733310027048, 6.94257039995864, 7.167536200024188, 9.142500599846244, 9.334162900224328, 9.951025300193578, 10.384410500060767, 11.217770699877292]"	30	"[1.6031923000700772, 1.7948547997511923, 2.0200064997188747, 2.2364074997603893, 2.4532691999338567, 2.6614715000614524, 2.896356899756938, 3.1950532998889685, 3.411834499798715, 3.619981300085783, 3.8532076999545097, 4.053225299809128, 4.279717899858952, 4.519978200085461, 4.953394599724561, 5.153509899973869, 5.37848319998011, 5.603443299885839, 5.82013770006597, 6.046489200089127, 6.2700284998863935, 6.486775999888778, 6.711697699967772, 6.9369350001215935, 7.1619017999619246, 9.136870400048792, 9.320289100054651, 9.945392400026321, 10.378781700041145, 11.212074500042945]"	"[1.7029299000278115, 1.9112351001240313, 2.1278925999067724, 2.3612689999863505, 2.5626570000313222, 2.7696227999404073, 3.0613262997940183, 3.3032134999521077, 3.5279958001337945, 3.7280286997556686, 3.946100499946624, 4.178149499930441, 4.403282499872148, 4.611664799973369, 5.053136599715799, 5.253206599969417, 5.486487099900842, 5.719814399722964, 5.936741299927235, 6.153211200144142, 6.386518599931151, 6.586579499766231, 6.778299999888986, 7.06997979991138, 7.278272099792957, 9.236709999851882, 9.45341489976272, 10.086938600055873, 10.470144500024617, 11.212078699842095]"	331.440152199939	331.445682900026	332.937647500075	332.945778999943	NA	NA	NA	NA	NA	NA	NA	"02"	"02"	"2024-01-30_16h09.16.867"	"BART_exp"	"2023.2.3"	119.953841298681	"2024-01-30 16h09.26.887824 +0100"	NA
