"diceImage"	"d_number"	"dice_loop.thisRepN"	"dice_loop.thisTrialN"	"dice_loop.thisN"	"dice_loop.thisIndex"	"thisRow.t"	"notes"	"Start.started"	"text_start.started"	"continue_start.started"	"mouse_start.started"	"Start.stopped"	"mouse_start.x"	"mouse_start.y"	"mouse_start.leftButton"	"mouse_start.midButton"	"mouse_start.rightButton"	"mouse_start.time"	"trial.started"	"box_dice.started"	"text_dice_header.started"	"text_gain.started"	"value_gain.started"	"text_bank.started"	"value_bank.started"	"img_dice_1.started"	"img_dice_2.started"	"img_dice_3.started"	"img_dice_4.started"	"img_dice_5.started"	"img_dice_6.started"	"img_dice_1_2.started"	"img_dice_3_4.started"	"img_dice_5_6.started"	"img_dice_1_2_3.started"	"img_dice_4_5_6.started"	"img_dice_1_2_3_4.started"	"img_dice_2_3_4_5.started"	"img_dice_3_4_5_6.started"	"text_value_header.started"	"text_value_1000.started"	"text_value_500.started"	"text_value_200.started"	"text_value_100.started"	"mouse_task.started"	"gain_sound.started"	"img_dice_throw_trials.started"	"gain_sound.stopped"	"img_dice_throw_trials.stopped"	"trial.stopped"	"mouse_task.x"	"mouse_task.y"	"mouse_task.leftButton"	"mouse_task.midButton"	"mouse_task.rightButton"	"mouse_task.time"	"choice"	"gain"	"loss_sound.started"	"End.started"	"text_end.started"	"key_end.started"	"End.stopped"	"key_end.keys"	"key_end.rt"	"key_end.duration"	"participant"	"session"	"date"	"expName"	"psychopyVersion"	"frameRate"	"expStart"	"...75"
NA	NA	NA	NA	NA	NA	NA	NA	0.00435209999886865	0.0127474999990227	0.0127474999990227	0.00474279999980353	2.65026260000013	"[0.5625]"	"[-0.4091666666666667]"	"[1]"	"[0]"	"[0]"	"[2.6445063999999547]"	NA	NA	NA	NA	NA	NA	NA	NA	NA	NA	NA	NA	NA	NA	NA	NA	NA	NA	NA	NA	NA	NA	NA	NA	NA	NA	NA	NA	NA	NA	NA	NA	NA	NA	NA	NA	NA	NA	NA	NA	NA	NA	NA	NA	NA	NA	NA	NA	"02"	"03"	"2023-12-14_17h06.14.771"	"GDT_exp"	"2023.2.2"	60.0841297982587	"2023-12-14 17h06.26.590177 +0100"	NA
"dice_5.png"	5	0	0	0	4	2.81063009999889	NA	NA	NA	NA	NA	NA	NA	NA	NA	NA	NA	NA	2.6604212000002	2.81063009999889	2.81063009999889	2.81063009999889	2.81063009999889	2.81063009999889	2.81063009999889	2.81063009999889	2.81063009999889	2.81063009999889	2.81063009999889	2.81063009999889	2.81063009999889	2.81063009999889	2.81063009999889	2.81063009999889	2.81063009999889	2.81063009999889	2.81063009999889	2.81063009999889	2.81063009999889	2.81063009999889	2.81063009999889	2.81063009999889	2.81063009999889	2.81063009999889	0.0369570999991993	2.47774609999942	5.22443519999979	4.00816799999848	6.8366219999989	6.79267569999865	"[0.10666666666666667, 0.17916666666666667]"	"[-0.3616666666666667, -0.33416666666666667]"	"[1, 0]"	"[0, 0]"	"[0, 1]"	"[1.9392573000004631, 2.3916684000014357]"	4	100	NA	NA	NA	NA	NA	NA	NA	NA	"02"	"03"	"2023-12-14_17h06.14.771"	"GDT_exp"	"2023.2.2"	60.0841297982587	"2023-12-14 17h06.26.590177 +0100"	NA
"dice_6.png"	6	0	1	1	5	6.8366219999989	NA	NA	NA	NA	NA	NA	NA	NA	NA	NA	NA	NA	6.79390950000015	6.8366219999989	6.8366219999989	6.8366219999989	6.8366219999989	6.8366219999989	6.8366219999989	6.8366219999989	6.8366219999989	6.8366219999989	6.8366219999989	6.8366219999989	6.8366219999989	6.8366219999989	6.8366219999989	6.8366219999989	6.8366219999989	6.8366219999989	6.8366219999989	6.8366219999989	6.8366219999989	6.8366219999989	6.8366219999989	6.8366219999989	6.8366219999989	6.8366219999989	0.0109370999998646	0.621193400000266	7.50208209999983	2.1619953999998	9.12214299999869	9.0752037000002	"[-0.12833333333333333, -0.025833333333333333]"	"[-0.2475, -0.32]"	"[1, 0]"	"[0, 0]"	"[0, 1]"	"[0.20374339999943913, 0.6098962999985815]"	3	200	NA	NA	NA	NA	NA	NA	NA	NA	"02"	"03"	"2023-12-14_17h06.14.771"	"GDT_exp"	"2023.2.2"	60.0841297982587	"2023-12-14 17h06.26.590177 +0100"	NA
"dice_2.png"	2	0	2	2	1	9.12214299999869	NA	NA	NA	NA	NA	NA	NA	NA	NA	NA	NA	NA	9.07599469999877	9.12214299999869	9.12214299999869	9.12214299999869	9.12214299999869	9.12214299999869	9.12214299999869	9.12214299999869	9.12214299999869	9.12214299999869	9.12214299999869	9.12214299999869	9.12214299999869	9.12214299999869	9.12214299999869	9.12214299999869	9.12214299999869	9.12214299999869	9.12214299999869	9.12214299999869	9.12214299999869	9.12214299999869	9.12214299999869	9.12214299999869	9.12214299999869	9.12214299999869	0.0152827999991132	0.535417699999016	9.69920449999881	2.07655569999952	11.3264746999994	11.279276199999	"[-0.19166666666666668, -0.07916666666666666]"	"[-0.3475, -0.33166666666666667]"	"[1, 0]"	"[0, 0]"	"[0, 1]"	"[0.19703739999931713, 0.5200009000000136]"	4	100	NA	NA	NA	NA	NA	NA	NA	NA	"02"	"03"	"2023-12-14_17h06.14.771"	"GDT_exp"	"2023.2.2"	60.0841297982587	"2023-12-14 17h06.26.590177 +0100"	NA
"dice_3.png"	3	0	3	3	2	11.3264746999994	NA	NA	NA	NA	NA	NA	NA	NA	NA	NA	NA	NA	11.2800549999993	11.3264746999994	11.3264746999994	11.3264746999994	11.3264746999994	11.3264746999994	11.3264746999994	11.3264746999994	11.3264746999994	11.3264746999994	11.3264746999994	11.3264746999994	11.3264746999994	11.3264746999994	11.3264746999994	11.3264746999994	11.3264746999994	11.3264746999994	11.3264746999994	11.3264746999994	11.3264746999994	11.3264746999994	11.3264746999994	11.3264746999994	11.3264746999994	11.3264746999994	0.0155890999994881	1.12946879999981	12.4974512999997	2.6644639999995	14.0607228999997	14.0139729999992	"[-0.085, -0.345, -0.21833333333333332]"	"[-0.25916666666666666, -0.25333333333333335, -0.25333333333333335]"	"[1, 1, 0]"	"[0, 0, 0]"	"[0, 0, 1]"	"[0.2679748999998992, 0.8237444999995205, 1.1137891999987914]"	3	200	NA	NA	NA	NA	NA	NA	NA	NA	"02"	"03"	"2023-12-14_17h06.14.771"	"GDT_exp"	"2023.2.2"	60.0841297982587	"2023-12-14 17h06.26.590177 +0100"	NA
"dice_1.png"	1	0	4	4	0	14.0607228999997	NA	NA	NA	NA	NA	NA	NA	NA	NA	NA	NA	NA	14.0148001999987	14.0607228999997	14.0607228999997	14.0607228999997	14.0607228999997	14.0607228999997	14.0607228999997	14.0607228999997	14.0607228999997	14.0607228999997	14.0607228999997	14.0607228999997	14.0607228999997	14.0607228999997	14.0607228999997	14.0607228999997	14.0607228999997	14.0607228999997	14.0607228999997	14.0607228999997	14.0607228999997	14.0607228999997	14.0607228999997	14.0607228999997	14.0607228999997	14.0607228999997	0.0152518000013515	1.52607490000082	15.6283215999993	3.05615570000009	17.201227399999	17.1527979999992	"[-0.54, -0.3125, -0.4708333333333333]"	"[-0.1475, -0.12916666666666668, -0.056666666666666664]"	"[1, 0, 1]"	"[0, 0, 0]"	"[0, 1, 0]"	"[1.2270247000014933, 1.5108471000003192, 3.10346010000103]"	2	500	NA	NA	NA	NA	NA	NA	NA	NA	"02"	"03"	"2023-12-14_17h06.14.771"	"GDT_exp"	"2023.2.2"	60.0841297982587	"2023-12-14 17h06.26.590177 +0100"	NA
"dice_4.png"	4	0	5	5	3	17.201227399999	NA	NA	NA	NA	NA	NA	NA	NA	NA	NA	NA	NA	17.1536092999995	17.201227399999	17.201227399999	17.201227399999	17.201227399999	17.201227399999	17.201227399999	17.201227399999	17.201227399999	17.201227399999	17.201227399999	17.201227399999	17.201227399999	17.201227399999	17.201227399999	17.201227399999	17.201227399999	17.201227399999	17.201227399999	17.201227399999	17.201227399999	17.201227399999	17.201227399999	17.201227399999	17.201227399999	17.201227399999	0.015998099999706	NA	17.8391495999986	NA	19.3961401999986	19.354927299999	"[-0.41833333333333333]"	"[-0.095]"	"[0]"	"[0]"	"[1]"	"[0.5791372000003321]"	1	-1000	0.594941399998788	NA	NA	NA	NA	NA	NA	NA	"02"	"03"	"2023-12-14_17h06.14.771"	"GDT_exp"	"2023.2.2"	60.0841297982587	"2023-12-14 17h06.26.590177 +0100"	NA
"dice_2.png"	2	1	0	6	1	19.3961401999986	NA	NA	NA	NA	NA	NA	NA	NA	NA	NA	NA	NA	19.3557025999999	19.3961401999986	19.3961401999986	19.3961401999986	19.3961401999986	19.3961401999986	19.3961401999986	19.3961401999986	19.3961401999986	19.3961401999986	19.3961401999986	19.3961401999986	19.3961401999986	19.3961401999986	19.3961401999986	19.3961401999986	19.3961401999986	19.3961401999986	19.3961401999986	19.3961401999986	19.3961401999986	19.3961401999986	19.3961401999986	19.3961401999986	19.3961401999986	19.3961401999986	0.0102542999993602	NA	20.2645520999995	NA	21.8298336999997	21.7802809999994	"[-0.05416666666666667, -0.06]"	"[-0.25583333333333336, -0.31583333333333335]"	"[1, 0]"	"[0, 0]"	"[0, 1]"	"[0.47921150000001944, 0.8109989999993559]"	3	-200	0.82130909999978	NA	NA	NA	NA	NA	NA	NA	"02"	"03"	"2023-12-14_17h06.14.771"	"GDT_exp"	"2023.2.2"	60.0841297982587	"2023-12-14 17h06.26.590177 +0100"	NA
"dice_1.png"	1	1	1	7	0	21.8298336999997	NA	NA	NA	NA	NA	NA	NA	NA	NA	NA	NA	NA	21.7810993999992	21.8298336999997	21.8298336999997	21.8298336999997	21.8298336999997	21.8298336999997	21.8298336999997	21.8298336999997	21.8298336999997	21.8298336999997	21.8298336999997	21.8298336999997	21.8298336999997	21.8298336999997	21.8298336999997	21.8298336999997	21.8298336999997	21.8298336999997	21.8298336999997	21.8298336999997	21.8298336999997	21.8298336999997	21.8298336999997	21.8298336999997	21.8298336999997	21.8298336999997	0.0161728999992192	NA	22.2711760000002	NA	23.8311787999992	23.7783485	"[-0.22916666666666666, -0.016666666666666666]"	"[-0.36, -0.365]"	"[1, 0]"	"[0, 0]"	"[0, 1]"	"[0.032107799999721465, 0.3859061999992264]"	4	-100	0.403185400000439	NA	NA	NA	NA	NA	NA	NA	"02"	"03"	"2023-12-14_17h06.14.771"	"GDT_exp"	"2023.2.2"	60.0841297982587	"2023-12-14 17h06.26.590177 +0100"	NA
"dice_5.png"	5	1	2	8	4	23.8311787999992	NA	NA	NA	NA	NA	NA	NA	NA	NA	NA	NA	NA	23.7791871999998	23.8311787999992	23.8311787999992	23.8311787999992	23.8311787999992	23.8311787999992	23.8311787999992	23.8311787999992	23.8311787999992	23.8311787999992	23.8311787999992	23.8311787999992	23.8311787999992	23.8311787999992	23.8311787999992	23.8311787999992	23.8311787999992	23.8311787999992	23.8311787999992	23.8311787999992	23.8311787999992	23.8311787999992	23.8311787999992	23.8311787999992	23.8311787999992	23.8311787999992	0.0171146000011504	0.753841400000965	24.6198105000003	2.27365780000036	26.2125316000001	26.1709675999991	"[0.041666666666666664, -0.059166666666666666]"	"[-0.35333333333333333, -0.3675]"	"[1, 0]"	"[0, 0]"	"[0, 1]"	"[0.4266996999995172, 0.7364665000004607]"	4	100	NA	NA	NA	NA	NA	NA	NA	NA	"02"	"03"	"2023-12-14_17h06.14.771"	"GDT_exp"	"2023.2.2"	60.0841297982587	"2023-12-14 17h06.26.590177 +0100"	NA
"dice_3.png"	3	1	3	9	2	26.2125316000001	NA	NA	NA	NA	NA	NA	NA	NA	NA	NA	NA	NA	26.171768799999	26.2125316000001	26.2125316000001	26.2125316000001	26.2125316000001	26.2125316000001	26.2125316000001	26.2125316000001	26.2125316000001	26.2125316000001	26.2125316000001	26.2125316000001	26.2125316000001	26.2125316000001	26.2125316000001	26.2125316000001	26.2125316000001	26.2125316000001	26.2125316000001	26.2125316000001	26.2125316000001	26.2125316000001	26.2125316000001	26.2125316000001	26.2125316000001	26.2125316000001	0.0102262000000337	NA	26.8615988999991	NA	28.422039699999	28.36528	"[-0.0525, -0.0475]"	"[-0.2575, -0.32083333333333336]"	"[1, 0]"	"[0, 0]"	"[0, 1]"	"[0.2931133999991289, 0.5925399999996444]"	3	-200	0.602614999999787	NA	NA	NA	NA	NA	NA	NA	"02"	"03"	"2023-12-14_17h06.14.771"	"GDT_exp"	"2023.2.2"	60.0841297982587	"2023-12-14 17h06.26.590177 +0100"	NA
"dice_6.png"	6	1	4	10	5	28.422039699999	NA	NA	NA	NA	NA	NA	NA	NA	NA	NA	NA	NA	28.3660837999996	28.422039699999	28.422039699999	28.422039699999	28.422039699999	28.422039699999	28.422039699999	28.422039699999	28.422039699999	28.422039699999	28.422039699999	28.422039699999	28.422039699999	28.422039699999	28.422039699999	28.422039699999	28.422039699999	28.422039699999	28.422039699999	28.422039699999	28.422039699999	28.422039699999	28.422039699999	28.422039699999	28.422039699999	28.422039699999	0.0242994000000181	NA	28.9705295999993	NA	30.5139232999991	30.4727219999986	"[-0.255, -0.03916666666666667]"	"[-0.3616666666666667, -0.3516666666666667]"	"[1, 0]"	"[0, 0]"	"[0, 1]"	"[0.10598909999862371, 0.49137269999846467]"	4	-100	0.51578679999875	NA	NA	NA	NA	NA	NA	NA	"02"	"03"	"2023-12-14_17h06.14.771"	"GDT_exp"	"2023.2.2"	60.0841297982587	"2023-12-14 17h06.26.590177 +0100"	NA
"dice_4.png"	4	1	5	11	3	30.5139232999991	NA	NA	NA	NA	NA	NA	NA	NA	NA	NA	NA	NA	30.4735015999995	30.5139232999991	30.5139232999991	30.5139232999991	30.5139232999991	30.5139232999991	30.5139232999991	30.5139232999991	30.5139232999991	30.5139232999991	30.5139232999991	30.5139232999991	30.5139232999991	30.5139232999991	30.5139232999991	30.5139232999991	30.5139232999991	30.5139232999991	30.5139232999991	30.5139232999991	30.5139232999991	30.5139232999991	30.5139232999991	30.5139232999991	30.5139232999991	30.5139232999991	0.0101424999993469	0.589633599998706	31.1507679999995	2.11403539999992	32.7517463000004	32.7074825	"[0.07083333333333333, 0.07]"	"[-0.3541666666666667, -0.3541666666666667]"	"[1, 0]"	"[0, 0]"	"[0, 1]"	"[0.07885429999987537, 0.579408900000999]"	4	100	NA	NA	NA	NA	NA	NA	NA	NA	"02"	"03"	"2023-12-14_17h06.14.771"	"GDT_exp"	"2023.2.2"	60.0841297982587	"2023-12-14 17h06.26.590177 +0100"	NA
"dice_6.png"	6	2	0	12	5	32.7517463000004	NA	NA	NA	NA	NA	NA	NA	NA	NA	NA	NA	NA	32.7082761000001	32.7517463000004	32.7517463000004	32.7517463000004	32.7517463000004	32.7517463000004	32.7517463000004	32.7517463000004	32.7517463000004	32.7517463000004	32.7517463000004	32.7517463000004	32.7517463000004	32.7517463000004	32.7517463000004	32.7517463000004	32.7517463000004	32.7517463000004	32.7517463000004	32.7517463000004	32.7517463000004	32.7517463000004	32.7517463000004	32.7517463000004	32.7517463000004	32.7517463000004	0.0103906999993342	0.858793899999	33.6565575999994	2.39815959999942	35.2570660000001	35.2158701999997	"[0.06166666666666667, 0.0975]"	"[-0.3458333333333333, -0.2525]"	"[1, 0]"	"[0, 0]"	"[0, 1]"	"[0.5123891999992338, 0.8483136999984708]"	4	100	NA	NA	NA	NA	NA	NA	NA	NA	"02"	"03"	"2023-12-14_17h06.14.771"	"GDT_exp"	"2023.2.2"	60.0841297982587	"2023-12-14 17h06.26.590177 +0100"	NA
"dice_3.png"	3	2	1	13	2	35.2570660000001	NA	NA	NA	NA	NA	NA	NA	NA	NA	NA	NA	NA	35.2166631	35.2570660000001	35.2570660000001	35.2570660000001	35.2570660000001	35.2570660000001	35.2570660000001	35.2570660000001	35.2570660000001	35.2570660000001	35.2570660000001	35.2570660000001	35.2570660000001	35.2570660000001	35.2570660000001	35.2570660000001	35.2570660000001	35.2570660000001	35.2570660000001	35.2570660000001	35.2570660000001	35.2570660000001	35.2570660000001	35.2570660000001	35.2570660000001	35.2570660000001	0.0104208000011567	0.616550400000051	35.9206613999995	2.14096740000059	37.4649258999998	37.4230219000001	"[-0.16166666666666665, -0.04583333333333333]"	"[-0.33166666666666667, -0.3275]"	"[1, 0]"	"[0, 0]"	"[0, 1]"	"[0.29553979999946023, 0.6060452000001533]"	4	100	NA	NA	NA	NA	NA	NA	NA	NA	"02"	"03"	"2023-12-14_17h06.14.771"	"GDT_exp"	"2023.2.2"	60.0841297982587	"2023-12-14 17h06.26.590177 +0100"	NA
"dice_1.png"	1	2	2	14	0	37.4649258999998	NA	NA	NA	NA	NA	NA	NA	NA	NA	NA	NA	NA	37.4238296999993	37.4649258999998	37.4649258999998	37.4649258999998	37.4649258999998	37.4649258999998	37.4649258999998	37.4649258999998	37.4649258999998	37.4649258999998	37.4649258999998	37.4649258999998	37.4649258999998	37.4649258999998	37.4649258999998	37.4649258999998	37.4649258999998	37.4649258999998	37.4649258999998	37.4649258999998	37.4649258999998	37.4649258999998	37.4649258999998	37.4649258999998	37.4649258999998	37.4649258999998	0.0104743000010785	NA	38.1302396999999	NA	39.7205787999992	39.6778090999996	"[-0.16, -0.11833333333333333, -0.0575]"	"[-0.355, -0.37416666666666665, -0.2708333333333333]"	"[1, 0, 1]"	"[0, 0, 0]"	"[0, 1, 0]"	"[0.22460990000035963, 0.6079298000004201, 2.223220100000617]"	4	-100	0.618548899999951	NA	NA	NA	NA	NA	NA	NA	"02"	"03"	"2023-12-14_17h06.14.771"	"GDT_exp"	"2023.2.2"	60.0841297982587	"2023-12-14 17h06.26.590177 +0100"	NA
"dice_5.png"	5	2	3	15	4	39.7205787999992	NA	NA	NA	NA	NA	NA	NA	NA	NA	NA	NA	NA	39.6786354999986	39.7205787999992	39.7205787999992	39.7205787999992	39.7205787999992	39.7205787999992	39.7205787999992	39.7205787999992	39.7205787999992	39.7205787999992	39.7205787999992	39.7205787999992	39.7205787999992	39.7205787999992	39.7205787999992	39.7205787999992	39.7205787999992	39.7205787999992	39.7205787999992	39.7205787999992	39.7205787999992	39.7205787999992	39.7205787999992	39.7205787999992	39.7205787999992	39.7205787999992	0.0104847000002337	0.351741700000275	40.1177922999996	1.86591679999947	41.7155693999994	41.6747969999997	"[-0.05333333333333334]"	"[-0.3383333333333333]"	"[0]"	"[0]"	"[1]"	"[0.34109410000019125]"	3	200	NA	NA	NA	NA	NA	NA	NA	NA	"02"	"03"	"2023-12-14_17h06.14.771"	"GDT_exp"	"2023.2.2"	60.0841297982587	"2023-12-14 17h06.26.590177 +0100"	NA
"dice_2.png"	2	2	4	16	1	41.7155693999994	NA	NA	NA	NA	NA	NA	NA	NA	NA	NA	NA	NA	41.6755487999999	41.7155693999994	41.7155693999994	41.7155693999994	41.7155693999994	41.7155693999994	41.7155693999994	41.7155693999994	41.7155693999994	41.7155693999994	41.7155693999994	41.7155693999994	41.7155693999994	41.7155693999994	41.7155693999994	41.7155693999994	41.7155693999994	41.7155693999994	41.7155693999994	41.7155693999994	41.7155693999994	41.7155693999994	41.7155693999994	41.7155693999994	41.7155693999994	41.7155693999994	0.0104236999995919	NA	42.3848259999995	NA	43.9783055999997	43.9321435999991	"[-0.030833333333333334, 0.08583333333333333, 0.09]"	"[-0.24, -0.2725, -0.35833333333333334]"	"[1, 0, 1]"	"[0, 0, 0]"	"[0, 1, 0]"	"[0.2000382999995054, 0.6111512000006769, 2.1807367999990674]"	3	-200	0.621617599999809	NA	NA	NA	NA	NA	NA	NA	"02"	"03"	"2023-12-14_17h06.14.771"	"GDT_exp"	"2023.2.2"	60.0841297982587	"2023-12-14 17h06.26.590177 +0100"	NA
"dice_4.png"	4	2	5	17	3	43.9783055999997	NA	NA	NA	NA	NA	NA	NA	NA	NA	NA	NA	NA	43.933030799999	43.9783055999997	43.9783055999997	43.9783055999997	43.9783055999997	43.9783055999997	43.9783055999997	43.9783055999997	43.9783055999997	43.9783055999997	43.9783055999997	43.9783055999997	43.9783055999997	43.9783055999997	43.9783055999997	43.9783055999997	43.9783055999997	43.9783055999997	43.9783055999997	43.9783055999997	43.9783055999997	43.9783055999997	43.9783055999997	43.9783055999997	43.9783055999997	43.9783055999997	0.0119262999996863	0.339814200000546	44.3617631999987	1.86379309999938	45.9286076999997	45.9236401999988	"[0.23083333333333333]"	"[-0.2791666666666667]"	"[0]"	"[0]"	"[1]"	"[0.32933310000044]"	4	100	NA	NA	NA	NA	NA	NA	NA	NA	"02"	"03"	"2023-12-14_17h06.14.771"	"GDT_exp"	"2023.2.2"	60.0841297982587	"2023-12-14 17h06.26.590177 +0100"	NA
NA	NA	NA	NA	NA	NA	NA	NA	NA	NA	NA	NA	NA	NA	NA	NA	NA	NA	NA	NA	NA	NA	NA	NA	NA	NA	NA	NA	NA	NA	NA	NA	NA	NA	NA	NA	NA	NA	NA	NA	NA	NA	NA	NA	NA	NA	NA	NA	NA	NA	NA	NA	NA	NA	NA	NA	NA	NA	NA	NA	45.9242557999987	45.9286076999997	45.9286076999997	49.1309020999997	"space"	3.19234739999956	"None"	"02"	"03"	"2023-12-14_17h06.14.771"	"GDT_exp"	"2023.2.2"	60.0841297982587	"2023-12-14 17h06.26.590177 +0100"	NA
