"image"	"max_pumps"	"pump_loop.thisRepN"	"pump_loop.thisTrialN"	"pump_loop.thisN"	"pump_loop.thisIndex"	"thisRow.t"	"notes"	"Start.started"	"text_start.started"	"continue_start.started"	"mouse_start.started"	"Start.stopped"	"mouse_start.x"	"mouse_start.y"	"mouse_start.leftButton"	"mouse_start.midButton"	"mouse_start.rightButton"	"mouse_start.time"	"trials.started"	"stim_balloon.started"	"stim_balloon_burst.started"	"stim_balloon_burst.stopped"	"text_ballon_value.started"	"text_bank.started"	"mouse.started"	"sound_bang.started"	"sound_bang.stopped"	"button_balloon.started"	"trials.stopped"	"n_pumps"	"earnings"	"popped"	"mouse.x"	"mouse.y"	"mouse.leftButton"	"mouse.midButton"	"mouse.rightButton"	"mouse.time"	"button_balloon.numClicks"	"button_balloon.timesOn"	"button_balloon.timesOff"	"Feedback.started"	"text_feedback.started"	"Feedback.stopped"	"text_feedback.stopped"	"End.started"	"text_end.started"	"key_end.started"	"End.stopped"	"key_end.keys"	"key_end.rt"	"key_end.duration"	"participant"	"session"	"date"	"expName"	"psychopyVersion"	"frameRate"	"expStart"	"...61"
NA	NA	NA	NA	NA	NA	NA	NA	0.00364819999998644	0.0235362999999893	0.0235362999999893	0.00413930000001983	0.993277599999999	"[0.6416666666666667]"	"[-0.41]"	"[1]"	"[0]"	"[0]"	"[0.9881677999999852]"	NA	NA	NA	NA	NA	NA	NA	NA	NA	NA	NA	NA	NA	NA	NA	NA	NA	NA	NA	NA	NA	NA	NA	NA	NA	NA	NA	NA	NA	NA	NA	NA	NA	NA	"02"	"01"	"2023-12-14_12h50.44.881"	"BART_exp"	"2023.2.2"	60.050790958985	"2023-12-14 12h50.55.863297 +0100"	NA
"balloon.png"	118	0	0	0	27	1.13702860000001	NA	NA	NA	NA	NA	NA	NA	NA	NA	NA	NA	NA	1.01303919999998	1.13702860000001	1.13702860000001	1.13702860000001	1.13702860000001	1.13702860000001	0.0225078999999937	0.0225078999999937	0.0225078999999937	1.13702860000001	7.05640529999999	27	1.35	FALSE	"[-0.013333333333333334, -0.013333333333333334, -0.013333333333333334, -0.013333333333333334, -0.013333333333333334, -0.013333333333333334, -0.013333333333333334, -0.013333333333333334, -0.013333333333333334, -0.013333333333333334, -0.013333333333333334, -0.013333333333333334, -0.013333333333333334, -0.013333333333333334, -0.013333333333333334, -0.013333333333333334, -0.013333333333333334, -0.013333333333333334, -0.013333333333333334, -0.013333333333333334, -0.013333333333333334, -0.013333333333333334, -0.013333333333333334, -0.013333333333333334, -0.013333333333333334, -0.013333333333333334, -0.013333333333333334, 0.04833333333333333]"	"[-0.3625, -0.3625, -0.3625, -0.3625, -0.3625, -0.3625, -0.3625, -0.3625, -0.3625, -0.3625, -0.3625, -0.3625, -0.3625, -0.3625, -0.3625, -0.3625, -0.3625, -0.3625, -0.3625, -0.3625, -0.3625, -0.3625, -0.3625, -0.3625, -0.3625, -0.3625, -0.3625, -0.24333333333333335]"	"[1, 1, 1, 1, 1, 1, 1, 1, 1, 1, 1, 1, 1, 1, 1, 1, 1, 1, 1, 1, 1, 1, 1, 1, 1, 1, 1, 0]"	"[0, 0, 0, 0, 0, 0, 0, 0, 0, 0, 0, 0, 0, 0, 0, 0, 0, 0, 0, 0, 0, 0, 0, 0, 0, 0, 0, 0]"	"[0, 0, 0, 0, 0, 0, 0, 0, 0, 0, 0, 0, 0, 0, 0, 0, 0, 0, 0, 0, 0, 0, 0, 0, 0, 0, 0, 1]"	"[0.9785512999999924, 1.1615431000000171, 1.3280761000000325, 1.4949128000000087, 1.6781488999999965, 1.8610041000000024, 2.027759899999978, 2.210828499999991, 2.394286099999988, 2.5775704000000133, 2.7605659000000173, 2.943826100000024, 3.12726889999999, 3.327076599999998, 3.5269910000000095, 3.693289600000014, 3.8600301000000172, 4.060422200000005, 4.259551499999986, 4.409559300000012, 4.593341800000019, 4.75940270000001, 4.942661100000009, 5.126115500000026, 5.325800099999981, 5.509130599999992, 5.692185100000017, 6.041871800000024]"	27	"[0.865409800000009, 1.0483978999999977, 1.214930900000013, 1.3817793999999708, 1.565001499999994, 1.7478469999999788, 1.9146076999999764, 2.0976695999999606, 2.2811408999999685, 2.464425799999958, 2.647426199999984, 2.830690899999979, 3.014123100000006, 3.2139265999999793, 3.4138438999999607, 3.5801647999999773, 3.7468872000000033, 3.9473719000000074, 4.146404399999994, 4.296434299999987, 4.480220799999984, 4.646309699999961, 4.8295473000000015, 5.01300219999996, 5.212669099999971, 5.396009699999979, 5.579053399999964]"	"[0.9483260000000087, 1.1315272999999593, 1.2980408999999895, 1.4979920999999763, 1.6478720999999723, 1.830991499999982, 1.9974992999999586, 2.180739899999992, 2.347376899999972, 2.5306951000000026, 2.730651200000011, 2.913718700000004, 3.0969478000000095, 3.296808800000008, 3.4799453999999628, 3.663256399999966, 3.8298335000000066, 4.029889900000001, 4.196224499999971, 4.362977199999989, 4.546149000000014, 4.729389200000014, 4.929184399999997, 5.095832400000006, 5.279088999999999, 5.478822799999989, 5.678783500000009]"	7.05876890000002	7.08179619999999	8.56915789999999	NA	NA	NA	NA	NA	NA	NA	NA	"02"	"01"	"2023-12-14_12h50.44.881"	"BART_exp"	"2023.2.2"	60.050790958985	"2023-12-14 12h50.55.863297 +0100"	NA
"balloon.png"	31	0	1	1	7	8.65093839999997	NA	NA	NA	NA	NA	NA	NA	NA	NA	NA	NA	NA	8.56942850000001	8.65093839999997	8.65093839999997	8.65093839999997	8.65093839999997	8.65093839999997	0.0124490000000037	0.0124490000000037	0.0124490000000037	8.65093839999997	14.8571194	32	1.55	TRUE	"[0.006666666666666667, 0.006666666666666667, 0.006666666666666667, 0.006666666666666667, 0.006666666666666667, 0.006666666666666667, 0.006666666666666667, 0.006666666666666667, 0.006666666666666667, 0.006666666666666667, 0.006666666666666667, 0.006666666666666667, 0.006666666666666667, 0.006666666666666667, 0.006666666666666667, 0.006666666666666667, 0.006666666666666667, 0.006666666666666667, 0.006666666666666667, 0.006666666666666667, 0.006666666666666667, 0.006666666666666667, 0.006666666666666667, 0.006666666666666667, 0.006666666666666667, 0.006666666666666667, 0.006666666666666667, 0.006666666666666667, 0.006666666666666667, 0.006666666666666667, 0.006666666666666667, 0.006666666666666667]"	"[-0.39416666666666667, -0.39416666666666667, -0.39416666666666667, -0.39416666666666667, -0.39416666666666667, -0.39416666666666667, -0.39416666666666667, -0.39416666666666667, -0.39416666666666667, -0.39416666666666667, -0.39416666666666667, -0.39416666666666667, -0.39416666666666667, -0.39416666666666667, -0.39416666666666667, -0.39416666666666667, -0.39416666666666667, -0.39416666666666667, -0.39416666666666667, -0.39416666666666667, -0.39416666666666667, -0.39416666666666667, -0.39416666666666667, -0.39416666666666667, -0.39416666666666667, -0.39416666666666667, -0.39416666666666667, -0.39416666666666667, -0.39416666666666667, -0.39416666666666667, -0.39416666666666667, -0.39416666666666667]"	"[1, 1, 1, 1, 1, 1, 1, 1, 1, 1, 1, 1, 1, 1, 1, 1, 1, 1, 1, 1, 1, 1, 1, 1, 1, 1, 1, 1, 1, 1, 1, 1]"	"[0, 0, 0, 0, 0, 0, 0, 0, 0, 0, 0, 0, 0, 0, 0, 0, 0, 0, 0, 0, 0, 0, 0, 0, 0, 0, 0, 0, 0, 0, 0, 0]"	"[0, 0, 0, 0, 0, 0, 0, 0, 0, 0, 0, 0, 0, 0, 0, 0, 0, 0, 0, 0, 0, 0, 0, 0, 0, 0, 0, 0, 0, 0, 0, 0]"	"[0.21855829999998377, 0.4175955999999701, 0.600824399999965, 0.7839323999999692, 0.9839412000000038, 1.1834333999999558, 1.3670401999999626, 1.5667680999999902, 1.7665938999999753, 1.9666171999999733, 2.166211199999964, 2.3494232999999554, 2.5328513000000044, 2.7328218999999763, 2.9324351999999863, 3.1156146999999805, 3.2992505999999935, 3.498725899999954, 3.6822192999999857, 3.865533400000004, 4.065230499999984, 4.265110899999968, 4.465032699999995, 4.648647899999958, 4.848111200000005, 5.031277199999977, 5.214534799999967, 5.41383959999996, 5.580939399999977, 5.764057799999989, 5.963966900000003, 6.147385499999984]"	32	"[0.14569099999999935, 0.34476109999997107, 0.5279792000000043, 0.7110824000000093, 0.9111034000000018, 1.1105842000000052, 1.2941908999999896, 1.493925699999977, 1.6937558000000195, 1.893764200000021, 2.093356500000027, 2.276582000000019, 2.460017300000004, 2.6599850999999717, 2.859590400000002, 3.042762200000027, 3.2264134999999783, 3.425879199999997, 3.6093831000000023, 3.792696200000023, 3.9923847000000023, 4.192262700000015, 4.392195200000003, 4.5758167000000185, 4.77527520000001, 4.958435800000018, 5.141699399999993, 5.3409955000000195, 5.508097299999974, 5.691229200000009, 5.891132299999981, 6.0745547000000215]"	"[0.2443513999999709, 0.44433129999998755, 0.6441479999999729, 0.8107511000000045, 0.993899899999974, 1.193824099999972, 1.360432199999991, 1.5603978999999981, 1.7768831999999861, 1.9600244999999745, 2.176531699999998, 2.376687899999979, 2.559712499999989, 2.7428188999999747, 2.926079800000025, 3.1259701999999834, 3.325777500000015, 3.5089591999999925, 3.708890600000018, 3.8922926999999845, 4.091948899999977, 4.2918169999999805, 4.491914500000007, 4.674992400000008, 4.858277600000008, 5.041321100000005, 5.224609799999996, 5.407734800000014, 5.59115589999999, 5.774323700000025, 5.957539300000008, 6.1573037]"	14.8588227	14.8712122	16.3642794	NA	NA	NA	NA	NA	NA	NA	NA	"02"	"01"	"2023-12-14_12h50.44.881"	"BART_exp"	"2023.2.2"	60.050790958985	"2023-12-14 12h50.55.863297 +0100"	NA
"balloon.png"	10	0	2	2	2	16.4090688	NA	NA	NA	NA	NA	NA	NA	NA	NA	NA	NA	NA	16.3648761	16.4090688	16.4090688	16.4090688	16.4090688	16.4090688	0.00791340000000673	0.00791340000000673	0.00791340000000673	16.4090688	18.6824432	11	0.5	TRUE	"[0.006666666666666667, 0.006666666666666667, 0.006666666666666667, 0.006666666666666667, 0.006666666666666667, 0.006666666666666667, 0.006666666666666667, 0.006666666666666667, 0.006666666666666667, 0.006666666666666667, 0.006666666666666667]"	"[-0.39416666666666667, -0.39416666666666667, -0.39416666666666667, -0.39416666666666667, -0.39416666666666667, -0.39416666666666667, -0.39416666666666667, -0.39416666666666667, -0.39416666666666667, -0.39416666666666667, -0.39416666666666667]"	"[1, 1, 1, 1, 1, 1, 1, 1, 1, 1, 1]"	"[0, 0, 0, 0, 0, 0, 0, 0, 0, 0, 0]"	"[0, 0, 0, 0, 0, 0, 0, 0, 0, 0, 0]"	"[0.28378350000002683, 0.4667921000000206, 0.6501648999999929, 0.8332735999999841, 1.0166929999999752, 1.2165780999999924, 1.4327759999999898, 1.616298200000017, 1.8162136999999916, 2.015851399999974, 2.215665999999999]"	11	"[0.24855009999998856, 0.43155020000000377, 0.614922799999988, 0.7980714999999918, 0.9814663000000223, 1.1813495000000103, 1.3975441999999703, 1.5810728000000154, 1.7809843, 1.9806226000000038, 2.180438900000013]"	"[0.3147500999999693, 0.5146947000000068, 0.697946399999978, 0.8813359999999761, 1.0809679000000187, 1.2808982000000242, 1.4807465000000093, 1.6974435999999855, 1.8971642999999858, 2.080300099999988, 2.2636537000000203]"	18.683511	18.6961727	20.1951811	NA	NA	NA	NA	NA	NA	NA	NA	"02"	"01"	"2023-12-14_12h50.44.881"	"BART_exp"	"2023.2.2"	60.050790958985	"2023-12-14 12h50.55.863297 +0100"	NA
"balloon.png"	23	0	3	3	5	20.2117159	NA	NA	NA	NA	NA	NA	NA	NA	NA	NA	NA	NA	20.1954492	20.2117159	20.2117159	20.2117159	20.2117159	20.2117159	0.0137962000000016	0.0137962000000016	0.0137962000000016	20.2117159	22.2795641	9	0.45	FALSE	"[0.006666666666666667, 0.006666666666666667, 0.006666666666666667, 0.006666666666666667, 0.006666666666666667, 0.006666666666666667, 0.006666666666666667, 0.006666666666666667, 0.006666666666666667, 0.04416666666666667]"	"[-0.39416666666666667, -0.39416666666666667, -0.39416666666666667, -0.39416666666666667, -0.39416666666666667, -0.39416666666666667, -0.39416666666666667, -0.39416666666666667, -0.39416666666666667, -0.2225]"	"[1, 1, 1, 1, 1, 1, 1, 1, 1, 0]"	"[0, 0, 0, 0, 0, 0, 0, 0, 0, 0]"	"[0, 0, 0, 0, 0, 0, 0, 0, 0, 1]"	"[0.21715269999998554, 0.40071559999995543, 0.5839700999999877, 0.7837722999999528, 0.9836462999999753, 1.1836898999999903, 1.3669395999999665, 1.5666594999999575, 1.7496170999999663, 2.08273029999998]"	9	"[0.21043029999998453, 0.3940020000000004, 0.5772531000000072, 0.7770504000000074, 0.9769248000000061, 1.1769706000000042, 1.360229199999992, 1.5599478999999974, 1.7429036999999994]"	"[0.2935997999999813, 0.47685050000001183, 0.6767333000000235, 0.8599376000000234, 1.0597872000000166, 1.2597643999999946, 1.4428437999999915, 1.6262563999999884, 1.8426398999999947]"	22.2805515	22.2937649	23.7926701	NA	NA	NA	NA	NA	NA	NA	NA	"02"	"01"	"2023-12-14_12h50.44.881"	"BART_exp"	"2023.2.2"	60.050790958985	"2023-12-14 12h50.55.863297 +0100"	NA
"balloon.png"	66	0	4	4	15	23.8612625	NA	NA	NA	NA	NA	NA	NA	NA	NA	NA	NA	NA	23.7930971	23.8612625	23.8612625	23.8612625	23.8612625	23.8612625	0.0149815999999987	0.0149815999999987	0.0149815999999987	23.8612625	27.1765005	17	0.85	FALSE	"[0.0125, 0.0125, 0.0125, 0.0125, 0.0125, 0.0125, 0.0125, 0.0125, 0.013333333333333334, 0.013333333333333334, 0.013333333333333334, 0.013333333333333334, 0.013333333333333334, 0.013333333333333334, 0.015, 0.019166666666666665, 0.019166666666666665, 0.15416666666666667]"	"[-0.3933333333333333, -0.3933333333333333, -0.3933333333333333, -0.3933333333333333, -0.3933333333333333, -0.3933333333333333, -0.3933333333333333, -0.3933333333333333, -0.3933333333333333, -0.3933333333333333, -0.3933333333333333, -0.3933333333333333, -0.3933333333333333, -0.3933333333333333, -0.39416666666666667, -0.415, -0.4033333333333333, -0.135]"	"[1, 1, 1, 1, 1, 1, 1, 1, 1, 1, 1, 1, 1, 1, 1, 1, 1, 0]"	"[0, 0, 0, 0, 0, 0, 0, 0, 0, 0, 0, 0, 0, 0, 0, 0, 0, 0]"	"[0, 0, 0, 0, 0, 0, 0, 0, 0, 0, 0, 0, 0, 0, 0, 0, 0, 1]"	"[0.0697247999999604, 0.21710450000000492, 0.40038260000000037, 0.5836443000000031, 0.7834868999999571, 0.9667081000000053, 1.1500078999999914, 1.3496251999999913, 1.5330310999999597, 1.7163101999999526, 1.915948799999967, 2.0992804999999635, 2.2824332999999797, 2.46590249999997, 2.649054499999977, 2.8490694999999846, 3.0341547999999534, 3.381742900000006]"	17	"[0.000507200000015473, 0.15820330000002514, 0.3414890999999898, 0.524771200000032, 0.7245980000000145, 0.9078170999999884, 1.0911317000000054, 1.2907370000000356, 1.474162500000034, 1.6574251000000118, 1.8570674000000054, 2.0404060000000186, 2.223563600000034, 2.4070237999999904, 2.5903132000000255, 2.790184100000033, 2.9752889000000096]"	"[0.058029099999998834, 0.24121100000002116, 0.42447070000002896, 0.6076856000000248, 0.7910497999999961, 1.007375599999989, 1.1906788000000006, 1.3571737000000326, 1.5572334000000296, 1.7402592000000254, 1.923563999999999, 2.1234721999999806, 2.306629100000009, 2.506470200000024, 2.7063196999999946, 2.9062592000000222, 3.0895545000000197]"	27.17776	27.1905253	28.6734168	28.6894989	NA	NA	NA	NA	NA	NA	NA	"02"	"01"	"2023-12-14_12h50.44.881"	"BART_exp"	"2023.2.2"	60.050790958985	"2023-12-14 12h50.55.863297 +0100"	NA
"balloon.png"	123	0	5	5	28	28.6894989	NA	NA	NA	NA	NA	NA	NA	NA	NA	NA	NA	NA	28.6736747	28.6894989	28.6894989	28.6894989	28.6894989	28.6894989	0.0118449000000282	0.0118449000000282	0.0118449000000282	28.6894989	32.33999	19	0.95	FALSE	"[0.07, 0.07, 0.07, 0.07, 0.07, 0.07, 0.07, 0.07, 0.07, 0.07, 0.07, 0.07, 0.07, 0.07, 0.07, 0.07, 0.07, 0.07, 0.0975]"	"[-0.3908333333333333, -0.3908333333333333, -0.3908333333333333, -0.3908333333333333, -0.3908333333333333, -0.3908333333333333, -0.3908333333333333, -0.3908333333333333, -0.3908333333333333, -0.3908333333333333, -0.3908333333333333, -0.3908333333333333, -0.3908333333333333, -0.3908333333333333, -0.3908333333333333, -0.3908333333333333, -0.3908333333333333, -0.3908333333333333, -0.155]"	"[1, 1, 1, 1, 1, 1, 1, 1, 1, 1, 1, 1, 1, 1, 1, 1, 1, 1, 0]"	"[0, 0, 0, 0, 0, 0, 0, 0, 0, 0, 0, 0, 0, 0, 0, 0, 0, 0, 0]"	"[0, 0, 0, 0, 0, 0, 0, 0, 0, 0, 0, 0, 0, 0, 0, 0, 0, 0, 1]"	"[0.183753500000023, 0.3836251999999831, 0.5836418999999751, 0.7668297000000166, 0.9500701999999706, 1.1663358999999787, 1.366156100000012, 1.5493938000000185, 1.7492285999999808, 1.9325256000000195, 2.115890900000011, 2.2992479000000117, 2.4986862000000087, 2.698672400000021, 2.915255600000023, 3.0987529000000222, 3.2818570000000022, 3.4483715000000075, 3.6649434999999926]"	19	"[0.04334360000001425, 0.1812788000000296, 0.38116610000002993, 0.5811871000000224, 0.7643762000000152, 0.9476096000000211, 1.1638710999999944, 1.363704499999983, 1.5469279000000142, 1.746763700000031, 1.9300838999999996, 2.11342860000002, 2.296786300000008, 2.496217100000024, 2.6962214999999787, 2.9127950999999825, 3.09629910000001, 3.2793960000000197, 3.4459070999999994]"	"[0.11422970000000987, 0.2973944999999958, 0.4807794999999828, 0.6807501000000116, 0.863915899999995, 1.0637217000000305, 1.2469696, 1.446827600000006, 1.6467564000000152, 1.8299900000000093, 2.013172699999984, 2.2130328000000077, 2.396262799999988, 2.5961730999999872, 2.7959617999999864, 2.995895399999995, 3.179073599999981, 3.3622194999999806, 3.529112800000007]"	32.341276	32.3538836	33.836769	33.8529286	NA	NA	NA	NA	NA	NA	NA	"02"	"01"	"2023-12-14_12h50.44.881"	"BART_exp"	"2023.2.2"	60.050790958985	"2023-12-14 12h50.55.863297 +0100"	NA
"balloon.png"	88	0	6	6	20	33.8529286	NA	NA	NA	NA	NA	NA	NA	NA	NA	NA	NA	NA	33.8370268	33.8529286	33.8529286	33.8529286	33.8529286	33.8529286	0.0117594000000167	0.0117594000000167	0.0117594000000167	33.8529286	38.2864805	23	1.15	FALSE	"[0.018333333333333333, 0.018333333333333333, 0.018333333333333333, 0.018333333333333333, 0.018333333333333333, 0.018333333333333333, 0.018333333333333333, 0.018333333333333333, 0.018333333333333333, 0.018333333333333333, 0.018333333333333333, 0.018333333333333333, 0.018333333333333333, 0.018333333333333333, 0.018333333333333333, 0.018333333333333333, 0.018333333333333333, 0.018333333333333333, 0.018333333333333333, 0.018333333333333333, 0.018333333333333333, 0.018333333333333333, 0.04833333333333333]"	"[-0.3825, -0.3825, -0.3825, -0.3825, -0.3825, -0.3825, -0.3825, -0.3825, -0.3825, -0.3825, -0.3825, -0.3825, -0.3825, -0.3825, -0.3825, -0.3825, -0.3825, -0.3825, -0.3825, -0.3825, -0.3825, -0.3825, -0.11583333333333333]"	"[1, 1, 1, 1, 1, 1, 1, 1, 1, 1, 1, 1, 1, 1, 1, 1, 1, 1, 1, 1, 1, 1, 0]"	"[0, 0, 0, 0, 0, 0, 0, 0, 0, 0, 0, 0, 0, 0, 0, 0, 0, 0, 0, 0, 0, 0, 0]"	"[0, 0, 0, 0, 0, 0, 0, 0, 0, 0, 0, 0, 0, 0, 0, 0, 0, 0, 0, 0, 0, 0, 1]"	"[0.21676639999998315, 0.4003055999999674, 0.6001719999999864, 0.7997768999999835, 0.9831141999999886, 1.183150899999987, 1.3496858999999972, 1.5495156000000065, 1.7496377999999595, 1.9326648999999634, 2.1159222, 2.315421200000003, 2.4987301999999545, 2.665400599999998, 2.848836799999958, 3.0486880999999926, 3.248465299999964, 3.448435200000006, 3.61503399999998, 3.78153309999999, 3.964750399999957, 4.16427699999997, 4.448057399999982]"	23	"[0.05190410000000156, 0.2142793000000438, 0.3978409000000056, 0.5977002000000198, 0.797305300000005, 0.9806569000000422, 1.180675000000008, 1.3472141999999963, 1.5470498999999904, 1.7471765999999889, 1.9302046999999902, 2.1134582999999907, 2.3129543000000012, 2.4963266000000317, 2.6629359000000363, 2.8463943000000427, 3.0462234999999964, 3.246001299999989, 3.445970100000011, 3.6125627000000122, 3.7790911000000165, 3.962286199999994, 4.16180890000004]"	"[0.11414980000000696, 0.2973896000000309, 0.49730149999999185, 0.6806094000000371, 0.880222300000014, 1.0636891000000332, 1.2635434000000032, 1.4467025000000149, 1.6295066000000133, 1.8299059000000284, 2.0131368000000407, 2.1962485000000243, 2.3791683000000035, 2.5626698000000374, 2.7460698000000434, 2.945913200000007, 3.145724400000006, 3.3289195000000404, 3.5121361000000206, 3.7120735999999965, 3.878596399999992, 4.061801600000024, 4.261589300000026]"	38.2879745	38.2999108	39.782873	39.7989479	NA	NA	NA	NA	NA	NA	NA	"02"	"01"	"2023-12-14_12h50.44.881"	"BART_exp"	"2023.2.2"	60.050790958985	"2023-12-14 12h50.55.863297 +0100"	NA
"balloon.png"	44	0	7	7	10	39.7989479	NA	NA	NA	NA	NA	NA	NA	NA	NA	NA	NA	NA	39.7831354	39.7989479	39.7989479	39.7989479	39.7989479	39.7989479	0.0110811000000126	0.0110811000000126	0.0110811000000126	39.7989479	48.7623734	42	2.1	FALSE	"[0.005, 0.005, 0.005, 0.005, 0.005, 0.005, 0.005, 0.005, 0.005, 0.005, 0.005, 0.005, 0.005, 0.005, 0.005, 0.005, 0.005, 0.005, 0.005, 0.005, 0.005, 0.005, 0.005, 0.005, 0.005, 0.005, 0.005, 0.005, 0.005, 0.005, 0.005, 0.005, 0.005, 0.005, 0.005, 0.005, 0.005, 0.005, 0.005, 0.005, 0.005, 0.030833333333333334]"	"[-0.37583333333333335, -0.37583333333333335, -0.37583333333333335, -0.37583333333333335, -0.37583333333333335, -0.37583333333333335, -0.37583333333333335, -0.37583333333333335, -0.37583333333333335, -0.37583333333333335, -0.37583333333333335, -0.37583333333333335, -0.37583333333333335, -0.37583333333333335, -0.37583333333333335, -0.37583333333333335, -0.37583333333333335, -0.37583333333333335, -0.37583333333333335, -0.37583333333333335, -0.37583333333333335, -0.37583333333333335, -0.37583333333333335, -0.37583333333333335, -0.37583333333333335, -0.37583333333333335, -0.37583333333333335, -0.37583333333333335, -0.37583333333333335, -0.37583333333333335, -0.37583333333333335, -0.37583333333333335, -0.37583333333333335, -0.37583333333333335, -0.37583333333333335, -0.37583333333333335, -0.37583333333333335, -0.37583333333333335, -0.37583333333333335, -0.37583333333333335, -0.37583333333333335, -0.31916666666666665]"	"[1, 1, 1, 1, 1, 1, 1, 1, 1, 1, 1, 1, 1, 1, 1, 1, 1, 1, 1, 1, 1, 1, 1, 1, 1, 1, 1, 1, 1, 1, 1, 1, 1, 1, 1, 1, 1, 1, 1, 1, 1, 0]"	"[0, 0, 0, 0, 0, 0, 0, 0, 0, 0, 0, 0, 0, 0, 0, 0, 0, 0, 0, 0, 0, 0, 0, 0, 0, 0, 0, 0, 0, 0, 0, 0, 0, 0, 0, 0, 0, 0, 0, 0, 0, 0]"	"[0, 0, 0, 0, 0, 0, 0, 0, 0, 0, 0, 0, 0, 0, 0, 0, 0, 0, 0, 0, 0, 0, 0, 0, 0, 0, 0, 0, 0, 0, 0, 0, 0, 0, 0, 0, 0, 0, 0, 0, 0, 1]"	"[0.10045300000001589, 0.2836892999999918, 0.4836230000000228, 0.6668071000000282, 0.8500769999999989, 1.0499274000000014, 1.2831487999999922, 1.484324000000015, 1.6828520000000253, 1.8993727999999805, 2.0992261999999755, 2.2992155000000025, 2.4823286000000166, 2.682233999999994, 2.8820408999999927, 3.098545300000012, 3.2816323000000125, 3.465024900000003, 3.664719699999978, 3.864459199999999, 4.064412899999979, 4.264311099999986, 4.464461900000003, 4.6643700000000194, 4.880600700000002, 5.080706299999974, 5.2970169999999825, 5.480527800000004, 5.713649700000019, 5.930149299999982, 6.130009400000006, 6.3466874000000075, 6.5630314, 6.779622099999983, 6.9796587999999815, 7.245770600000014, 7.9121650999999815, 8.11199019999998, 8.278597999999988, 8.461757299999988, 8.628363499999978, 8.977837399999999]"	41	"[0.09764660000001868, 0.28089520000003176, 0.4808214000000248, 0.6640112000000045, 0.8472801000000345, 1.0471370000000206, 1.2803600000000301, 1.481542500000046, 1.680063300000029, 1.8965793000000417, 2.096441900000002, 2.2964312999999947, 2.4795449000000076, 2.679445000000044, 2.879247399999997, 3.095758500000045, 3.278862600000025, 3.4622419000000377, 3.661939200000006, 3.8616643000000295, 4.061622100000022, 4.261524100000031, 4.4617011000000275, 4.66159650000003, 4.877818700000034, 5.0779234000000315, 5.294234000000017, 5.477755100000024, 5.710868800000014, 5.927365900000041, 6.127233200000035, 6.343915299999992, 6.560269000000005, 6.776842000000045, 6.976873100000034, 7.242996000000005, 7.909377400000039, 8.109203200000024, 8.275821500000006, 8.458965700000022, 8.625595099999998]"	"[0.19711599999999407, 0.3804479000000356, 0.5636282000000392, 0.7635491999999999, 0.9633086000000048, 1.1633499000000143, 1.3965272000000368, 1.596383000000003, 1.7795497000000182, 1.979459600000041, 2.1794025000000374, 2.3625979000000257, 2.562501700000041, 2.7789318000000094, 2.9621601000000055, 3.1453840000000355, 3.362011100000018, 3.561807500000043, 3.7450454000000377, 3.928185000000042, 4.1281819000000155, 4.32790650000004, 4.528013000000044, 4.744498800000031, 4.944294400000047, 5.1607759999999985, 5.360757500000034, 5.577348500000028, 5.793738200000007, 6.010554000000013, 6.2267598999999905, 6.443397600000026, 6.643190300000015, 6.859607200000028, 7.0932406000000015, 7.326089400000001, 7.975637100000029, 8.15879080000002, 8.358661900000016, 8.52525589999999, 8.72516360000003]"	48.7643468	48.7764265	50.259373	50.2755114	NA	NA	NA	NA	NA	NA	NA	"02"	"01"	"2023-12-14_12h50.44.881"	"BART_exp"	"2023.2.2"	60.050790958985	"2023-12-14 12h50.55.863297 +0100"	NA
"balloon.png"	40	0	8	8	9	50.2755114	NA	NA	NA	NA	NA	NA	NA	NA	NA	NA	NA	NA	50.2596296	50.2755114	50.2755114	50.2755114	50.2755114	50.2755114	0.0112743000000251	0.0112743000000251	0.0112743000000251	50.2755114	56.7240286	29	1.45	FALSE	"[0.034166666666666665, 0.034166666666666665, 0.034166666666666665, 0.034166666666666665, 0.034166666666666665, 0.034166666666666665, 0.034166666666666665, 0.034166666666666665, 0.034166666666666665, 0.034166666666666665, 0.034166666666666665, 0.034166666666666665, 0.034166666666666665, 0.034166666666666665, 0.034166666666666665, 0.034166666666666665, 0.035, 0.035, 0.03666666666666667, 0.03666666666666667, 0.03666666666666667, 0.0375, 0.0375, 0.0375, 0.0375, 0.03833333333333333, 0.03833333333333333, 0.03833333333333333, 0.03833333333333333, 0.065]"	"[-0.39166666666666666, -0.39166666666666666, -0.39166666666666666, -0.39166666666666666, -0.39166666666666666, -0.39166666666666666, -0.39166666666666666, -0.39166666666666666, -0.39166666666666666, -0.39166666666666666, -0.39166666666666666, -0.39166666666666666, -0.39166666666666666, -0.39166666666666666, -0.39166666666666666, -0.39166666666666666, -0.39166666666666666, -0.39166666666666666, -0.3925, -0.39416666666666667, -0.39416666666666667, -0.39416666666666667, -0.39416666666666667, -0.39416666666666667, -0.39416666666666667, -0.39416666666666667, -0.39416666666666667, -0.39416666666666667, -0.39416666666666667, -0.2275]"	"[1, 1, 1, 1, 1, 1, 1, 1, 1, 1, 1, 1, 1, 1, 1, 1, 1, 1, 1, 1, 1, 1, 1, 1, 1, 1, 1, 1, 1, 0]"	"[0, 0, 0, 0, 0, 0, 0, 0, 0, 0, 0, 0, 0, 0, 0, 0, 0, 0, 0, 0, 0, 0, 0, 0, 0, 0, 0, 0, 0, 0]"	"[0, 0, 0, 0, 0, 0, 0, 0, 0, 0, 0, 0, 0, 0, 0, 0, 0, 0, 0, 0, 0, 0, 0, 0, 0, 0, 0, 0, 0, 1]"	"[0.11688529999997854, 0.3335073999999736, 0.533611599999972, 0.7334187999999813, 0.9664099999999962, 1.1666928999999868, 1.3664316999999642, 1.5662234000000126, 1.7663335999999958, 1.9993517999999995, 2.182579099999998, 2.382359299999962, 2.5822498999999652, 2.782082800000012, 3.015332899999976, 3.2153212000000053, 3.4317863999999645, 3.6486135000000104, 3.8485021999999844, 4.048321499999986, 4.248048199999971, 4.4643489000000045, 4.664183900000012, 4.863931100000002, 5.063764600000013, 5.280853400000012, 5.480304799999999, 5.880237999999963, 6.129826299999991, 6.462979399999995]"	29	"[0.11437080000001743, 0.330997200000013, 0.5311135000000036, 0.7309112000000368, 0.9639152000000308, 1.1642042000000288, 1.3639519000000178, 1.5637328000000252, 1.7638481000000183, 1.9968562000000247, 2.1801497000000154, 2.3798649999999952, 2.5797626000000378, 2.779585300000008, 3.0128243999999995, 3.2128404000000046, 3.429308600000013, 3.646142300000008, 3.8460130000000277, 4.045851700000014, 4.245560900000044, 4.461858300000017, 4.661696000000006, 4.861441600000035, 5.061278400000049, 5.278376300000048, 5.4778226000000245, 5.877761600000042, 6.127329700000018]"	"[0.2141690000000267, 0.43080930000002127, 0.63056610000001, 0.8305008000000385, 1.0303899000000456, 1.2471818000000212, 1.4467933000000244, 1.646463800000049, 1.8632302000000323, 2.063033399999995, 2.262913700000013, 2.4627866000000154, 2.679277500000012, 2.87914870000003, 3.09575650000005, 3.312299200000041, 3.5121344000000363, 3.712070800000049, 3.928651500000001, 4.12852300000003, 4.344987200000048, 4.544888900000046, 4.744715000000042, 4.944586400000048, 5.144457700000032, 5.360850300000038, 5.794277800000032, 6.010542600000008, 6.227141300000028]"	56.725624	56.7379629	58.2209891	58.2369699	NA	NA	NA	NA	NA	NA	NA	"02"	"01"	"2023-12-14_12h50.44.881"	"BART_exp"	"2023.2.2"	60.050790958985	"2023-12-14 12h50.55.863297 +0100"	NA
"balloon.png"	114	0	9	9	26	58.2369699	NA	NA	NA	NA	NA	NA	NA	NA	NA	NA	NA	NA	58.2212379	58.2369699	58.2369699	58.2369699	58.2369699	58.2369699	0.0114578000000165	0.0114578000000165	0.0114578000000165	58.2369699	65.2690789	34	1.7	FALSE	"[0.043333333333333335, 0.043333333333333335, 0.043333333333333335, 0.043333333333333335, 0.043333333333333335, 0.043333333333333335, 0.043333333333333335, 0.043333333333333335, 0.043333333333333335, 0.043333333333333335, 0.043333333333333335, 0.043333333333333335, 0.043333333333333335, 0.043333333333333335, 0.043333333333333335, 0.043333333333333335, 0.043333333333333335, 0.043333333333333335, 0.043333333333333335, 0.043333333333333335, 0.043333333333333335, 0.043333333333333335, 0.043333333333333335, 0.043333333333333335, 0.043333333333333335, 0.043333333333333335, 0.043333333333333335, 0.043333333333333335, 0.043333333333333335, 0.043333333333333335, 0.043333333333333335, 0.043333333333333335, 0.043333333333333335, 0.03666666666666667]"	"[-0.37, -0.37, -0.37, -0.37, -0.37, -0.37, -0.37, -0.37083333333333335, -0.37083333333333335, -0.37083333333333335, -0.37083333333333335, -0.37083333333333335, -0.37083333333333335, -0.37083333333333335, -0.37083333333333335, -0.37083333333333335, -0.37083333333333335, -0.37083333333333335, -0.37083333333333335, -0.37083333333333335, -0.37083333333333335, -0.37083333333333335, -0.37083333333333335, -0.37083333333333335, -0.37083333333333335, -0.37083333333333335, -0.37083333333333335, -0.37083333333333335, -0.37083333333333335, -0.37083333333333335, -0.37083333333333335, -0.37, -0.3675, -0.1625]"	"[1, 1, 1, 1, 1, 1, 1, 1, 1, 1, 1, 1, 1, 1, 1, 1, 1, 1, 1, 1, 1, 1, 1, 1, 1, 1, 1, 1, 1, 1, 1, 1, 1, 0]"	"[0, 0, 0, 0, 0, 0, 0, 0, 0, 0, 0, 0, 0, 0, 0, 0, 0, 0, 0, 0, 0, 0, 0, 0, 0, 0, 0, 0, 0, 0, 0, 0, 0, 0]"	"[0, 0, 0, 0, 0, 0, 0, 0, 0, 0, 0, 0, 0, 0, 0, 0, 0, 0, 0, 0, 0, 0, 0, 0, 0, 0, 0, 0, 0, 0, 0, 0, 0, 1]"	"[0.10032599999999547, 0.3002869999999689, 0.5001065000000153, 0.7000878000000057, 0.9332426999999939, 1.1662428000000205, 1.3661490000000072, 1.5494833000000199, 1.7327922999999714, 1.9659955000000195, 2.166154399999982, 2.382398500000022, 2.5986374999999953, 2.798859900000025, 3.015431700000022, 3.2314986999999746, 3.4316986000000043, 3.6644966000000068, 3.864577699999984, 4.0477877999999805, 4.247849299999984, 4.464264000000014, 4.68081159999997, 4.913767099999973, 5.146916599999997, 5.330342099999996, 5.546895599999971, 5.730149799999992, 5.9132338, 6.09648169999997, 6.296223300000008, 6.512724800000001, 6.729375800000014, 7.046439099999986]"	33	"[0.09759750000000622, 0.2976101000000426, 0.49738990000003014, 0.6973778000000266, 0.9305377000000021, 1.1635297000000264, 1.363462200000015, 1.5467702999999915, 1.7300867000000153, 1.9633091000000036, 2.1634472000000073, 2.3796884000000205, 2.5959301000000323, 2.7961873000000423, 3.0127251000000115, 3.2287922000000435, 3.4289888000000133, 3.6617970000000355, 3.861872300000016, 4.045084800000041, 4.245153200000004, 4.461556300000041, 4.678103899999996, 4.9110549000000105, 5.144208499999991, 5.327632999999992, 5.54418400000003, 5.727446900000018, 5.910527400000035, 6.09378270000002, 6.293524600000012, 6.510011800000029, 6.726676800000007]"	"[0.19725310000001173, 0.3970376999999985, 0.597021600000005, 0.7970829000000208, 1.013611200000014, 1.2467283000000293, 1.4465049000000363, 1.6627912000000151, 1.8629294000000414, 2.062836900000036, 2.2794205000000147, 2.495930200000032, 2.7122664000000327, 2.912373699999989, 3.112083000000041, 3.328539800000044, 3.5451495000000364, 3.745098700000028, 3.945060699999999, 4.161451, 4.361307000000011, 4.5611557999999945, 4.7776475000000005, 4.994178800000043, 5.210703800000033, 5.410602299999994, 5.593771100000026, 5.793881400000032, 5.993649199999993, 6.1934962999999925, 6.37661380000003, 6.593086200000016, 6.826311300000043]"	65.2709028	65.2823502	66.7653091	66.7813787	NA	NA	NA	NA	NA	NA	NA	"02"	"01"	"2023-12-14_12h50.44.881"	"BART_exp"	"2023.2.2"	60.050790958985	"2023-12-14 12h50.55.863297 +0100"	NA
"balloon.png"	84	0	10	10	19	66.7813787	NA	NA	NA	NA	NA	NA	NA	NA	NA	NA	NA	NA	66.7655639	66.7813787	66.7813787	66.7813787	66.7813787	66.7813787	0.0105931999999598	0.0105931999999598	0.0105931999999598	66.7813787	73.4463456	30	1.5	FALSE	"[0.0325, 0.0325, 0.0325, 0.0325, 0.0325, 0.0325, 0.0325, 0.0325, 0.0325, 0.0325, 0.0325, 0.0325, 0.0325, 0.0325, 0.0325, 0.0325, 0.0325, 0.0325, 0.0325, 0.0325, 0.0325, 0.0325, 0.0325, 0.0325, 0.0325, 0.0325, 0.0325, 0.0325, 0.0325, 0.0325, 0.04416666666666667]"	"[-0.37916666666666665, -0.37916666666666665, -0.37916666666666665, -0.37916666666666665, -0.37916666666666665, -0.37916666666666665, -0.37916666666666665, -0.37916666666666665, -0.3775, -0.3775, -0.3775, -0.3775, -0.3775, -0.3775, -0.3775, -0.3775, -0.3775, -0.3775, -0.3775, -0.3775, -0.3775, -0.3775, -0.3775, -0.3775, -0.3775, -0.3775, -0.3775, -0.3775, -0.3775, -0.3775, -0.0875]"	"[1, 1, 1, 1, 1, 1, 1, 1, 1, 1, 1, 1, 1, 1, 1, 1, 1, 1, 1, 1, 1, 1, 1, 1, 1, 1, 1, 1, 1, 1, 0]"	"[0, 0, 0, 0, 0, 0, 0, 0, 0, 0, 0, 0, 0, 0, 0, 0, 0, 0, 0, 0, 0, 0, 0, 0, 0, 0, 0, 0, 0, 0, 0]"	"[0, 0, 0, 0, 0, 0, 0, 0, 0, 0, 0, 0, 0, 0, 0, 0, 0, 0, 0, 0, 0, 0, 0, 0, 0, 0, 0, 0, 0, 0, 1]"	"[0.06677330000002257, 0.3000711000000251, 0.5001786999999922, 0.7168644000000199, 0.9167110000000207, 1.1168321000000105, 1.333011699999986, 1.5497778000000153, 1.7660445999999865, 1.9660820000000285, 2.182350499999984, 2.3658280999999874, 2.582121299999983, 2.848951100000022, 3.0820762000000173, 3.3153376999999864, 3.5317335999999955, 3.748041399999977, 3.9646023999999898, 4.164565600000003, 4.397841000000028, 4.614297299999976, 4.8474337000000105, 5.064112799999975, 5.280439999999999, 5.480648500000029, 5.696697700000016, 5.896895799999982, 6.096470399999987, 6.296279299999981, 6.679417999999998]"	30	"[0.06411129999997911, 0.29741289999998344, 0.4975426999999968, 0.7142215999999735, 0.9140682999999967, 1.1141834000000017, 1.3303616000000034, 1.5471362000000113, 1.7634162999999603, 1.9634414999999876, 2.1797176000000036, 2.3631945999999857, 2.5794932999999673, 2.846319199999982, 3.0794354999999882, 3.3127225999999723, 3.529096100000004, 3.7454146000000037, 3.9619819999999777, 4.161921799999959, 4.395196300000009, 4.61165219999998, 4.8447974000000045, 5.061473400000011, 5.277797700000008, 5.478012100000001, 5.69405660000001, 5.894260499999973, 6.093825199999969, 6.293634599999962]"	"[0.180724199999986, 0.380576499999961, 0.5972136999999975, 0.7970487000000048, 0.9968546999999717, 1.1967613999999571, 1.413359499999956, 1.6299366999999734, 1.8465085999999928, 2.0796278999999913, 2.2794794999999795, 2.4959948000000054, 2.6959728999999584, 2.9457653999999707, 3.1789818999999966, 3.4121602999999823, 3.612001399999997, 3.8285806000000093, 4.045101499999987, 4.294928099999993, 4.494787799999983, 4.711502399999972, 4.927881799999966, 5.160903200000007, 5.360956600000009, 5.577379399999984, 5.777203199999974, 5.977143399999989, 6.176950799999986, 6.393472299999985]"	73.4478922	73.4604391	74.9439345	74.9595162	NA	NA	NA	NA	NA	NA	NA	"02"	"01"	"2023-12-14_12h50.44.881"	"BART_exp"	"2023.2.2"	60.050790958985	"2023-12-14 12h50.55.863297 +0100"	NA
"balloon.png"	97	0	11	11	22	74.9595162	NA	NA	NA	NA	NA	NA	NA	NA	NA	NA	NA	NA	74.9443112	74.9595162	74.9595162	74.9595162	74.9595162	74.9595162	0.0117313000000081	0.0117313000000081	0.0117313000000081	74.9595162	80.7916273	26	1.3	FALSE	"[0.03, 0.03, 0.03, 0.03, 0.03, 0.03, 0.03, 0.03, 0.03, 0.03, 0.03, 0.03, 0.03, 0.03, 0.03, 0.03, 0.03, 0.03, 0.03, 0.03, 0.03, 0.03, 0.03, 0.03, 0.03, 0.03, 0.07166666666666667]"	"[-0.3775, -0.3775, -0.3775, -0.3775, -0.3775, -0.3775, -0.3775, -0.3775, -0.3775, -0.3775, -0.3775, -0.3775, -0.3775, -0.3775, -0.3775, -0.3775, -0.3775, -0.3775, -0.3775, -0.3775, -0.3775, -0.3775, -0.3775, -0.3775, -0.3775, -0.3775, -0.2475]"	"[1, 1, 1, 1, 1, 1, 1, 1, 1, 1, 1, 1, 1, 1, 1, 1, 1, 1, 1, 1, 1, 1, 1, 1, 1, 1, 0]"	"[0, 0, 0, 0, 0, 0, 0, 0, 0, 0, 0, 0, 0, 0, 0, 0, 0, 0, 0, 0, 0, 0, 0, 0, 0, 0, 0]"	"[0, 0, 0, 0, 0, 0, 0, 0, 0, 0, 0, 0, 0, 0, 0, 0, 0, 0, 0, 0, 0, 0, 0, 0, 0, 0, 1]"	"[0.13268190000002278, 0.33292829999999185, 0.5494163999999842, 0.7657402000000388, 0.982404200000019, 1.1830838999999855, 1.415974100000028, 1.6656121999999982, 1.8821025000000304, 2.06546800000001, 2.298653600000023, 2.5316798000000063, 2.7648869999999874, 2.980844700000034, 3.1812314000000015, 3.4307818999999995, 3.6308467000000064, 3.8306929999999966, 4.080660200000011, 4.297222299999987, 4.513642900000036, 4.730197099999998, 4.946792800000026, 5.1633591000000365, 5.363149899999996, 5.546272999999985, 5.845926099999986]"	26	"[0.1301052000000027, 0.3303655000000276, 0.5468511000000262, 0.7631816000000526, 0.9798653000000286, 1.1805605000000128, 1.413449500000013, 1.6630758000000014, 1.8795618000000331, 2.062934900000016, 2.2961224000000016, 2.5291352000000416, 2.7623305000000187, 2.9783015000000432, 3.1787027999999964, 3.428231500000038, 3.628288800000007, 3.8281439000000432, 4.078122500000006, 4.294676700000025, 4.511115300000029, 4.727652000000035, 4.944239900000014, 5.160815000000014, 5.360602700000015, 5.5437191000000325]"	"[0.22998890000002348, 0.42986310000003414, 0.6298130000000128, 0.862999200000047, 1.079775600000005, 1.2963886000000002, 1.512794700000029, 1.745915200000013, 1.9790755000000217, 2.195693600000027, 2.4288463999999976, 2.645297400000004, 2.8617627000000425, 3.0784916000000067, 3.294777100000033, 3.5113501000000156, 3.7112671000000432, 3.9610097999999994, 4.177661600000022, 4.394084399999997, 4.610660400000029, 4.827154800000017, 5.043905600000016, 5.243651800000009, 5.4434912000000395, 5.643302900000037]"	80.7930782	80.8057593	82.3048727	NA	NA	NA	NA	NA	NA	NA	NA	"02"	"01"	"2023-12-14_12h50.44.881"	"BART_exp"	"2023.2.2"	60.050790958985	"2023-12-14 12h50.55.863297 +0100"	NA
"balloon.png"	18	0	12	12	4	82.321348	NA	NA	NA	NA	NA	NA	NA	NA	NA	NA	NA	NA	82.3051437	82.321348	82.321348	82.321348	82.321348	82.321348	0.0140764999999874	0.0140764999999874	0.0140764999999874	82.321348	86.3885402	19	0.9	TRUE	"[0.035833333333333335, 0.035833333333333335, 0.035833333333333335, 0.035833333333333335, 0.035833333333333335, 0.035833333333333335, 0.035833333333333335, 0.035833333333333335, 0.035833333333333335, 0.035833333333333335, 0.035833333333333335, 0.035833333333333335, 0.035833333333333335, 0.035833333333333335, 0.035833333333333335, 0.035833333333333335, 0.035833333333333335, 0.035833333333333335, 0.035833333333333335]"	"[-0.3933333333333333, -0.3933333333333333, -0.3933333333333333, -0.3933333333333333, -0.3933333333333333, -0.3933333333333333, -0.3933333333333333, -0.3933333333333333, -0.3933333333333333, -0.3933333333333333, -0.3933333333333333, -0.3933333333333333, -0.3933333333333333, -0.3933333333333333, -0.3933333333333333, -0.3933333333333333, -0.3933333333333333, -0.3933333333333333, -0.3933333333333333]"	"[1, 1, 1, 1, 1, 1, 1, 1, 1, 1, 1, 1, 1, 1, 1, 1, 1, 1, 1]"	"[0, 0, 0, 0, 0, 0, 0, 0, 0, 0, 0, 0, 0, 0, 0, 0, 0, 0, 0]"	"[0, 0, 0, 0, 0, 0, 0, 0, 0, 0, 0, 0, 0, 0, 0, 0, 0, 0, 0]"	"[0.10046399999998812, 0.3337485000000129, 0.5504596999999762, 0.7834381000000121, 0.9834708000000205, 1.1833007999999836, 1.4000234000000091, 1.6331968000000074, 1.8164337999999702, 2.016326300000003, 2.2328132000000096, 2.4327372999999852, 2.6492258000000106, 2.8658360000000016, 3.0990008999999645, 3.3152182999999695, 3.54843139999997, 3.7815605999999775, 3.9814703000000122]"	19	"[0.09454909999999472, 0.3278366000000119, 0.5445452000000159, 0.777542799999992, 0.9775748000000135, 1.1774037000000135, 1.3941169999999943, 1.6272961000000237, 1.8105308000000377, 2.0104231000000254, 2.2269046000000117, 2.4268544000000247, 2.6433342999999923, 2.8599323000000254, 3.093114000000014, 3.3093142999999827, 3.54252630000002, 3.775652500000035, 3.975566600000036]"	"[0.227762499999983, 0.41098640000001296, 0.6441684000000123, 0.8606651000000056, 1.0606218000000354, 1.2771814000000177, 1.5103796000000216, 1.7104878000000099, 1.8933688999999845, 2.0932475999999838, 2.3098347000000103, 2.5430379000000016, 2.759544900000037, 2.992862500000001, 3.192572200000029, 3.409138100000007, 3.6256076000000235, 3.842152100000021, 4.058826300000021]"	86.3897733	86.4020005	87.8850166	87.9011254	NA	NA	NA	NA	NA	NA	NA	"02"	"01"	"2023-12-14_12h50.44.881"	"BART_exp"	"2023.2.2"	60.050790958985	"2023-12-14 12h50.55.863297 +0100"	NA
"balloon.png"	127	0	13	13	29	87.9011254	NA	NA	NA	NA	NA	NA	NA	NA	NA	NA	NA	NA	87.8852637	87.9011254	87.9011254	87.9011254	87.9011254	87.9011254	0.0114881999999738	NA	NA	87.9011254	95.049308	35	1.75	FALSE	"[0.06666666666666667, 0.06666666666666667, 0.06666666666666667, 0.06666666666666667, 0.06666666666666667, 0.06666666666666667, 0.06666666666666667, 0.06666666666666667, 0.06666666666666667, 0.06666666666666667, 0.06666666666666667, 0.06666666666666667, 0.06666666666666667, 0.06666666666666667, 0.06666666666666667, 0.06666666666666667, 0.06666666666666667, 0.06666666666666667, 0.06666666666666667, 0.06666666666666667, 0.06666666666666667, 0.06666666666666667, 0.06666666666666667, 0.0675, 0.0675, 0.0675, 0.0675, 0.0675, 0.0675, 0.06916666666666667, 0.06916666666666667, 0.06916666666666667, 0.06916666666666667, 0.06916666666666667, 0.06916666666666667, 0.07]"	"[-0.3775, -0.3775, -0.3775, -0.3775, -0.3775, -0.3775, -0.3775, -0.3775, -0.3775, -0.3775, -0.3775, -0.3775, -0.3775, -0.3775, -0.3775, -0.3775, -0.3775, -0.3775, -0.3775, -0.3775, -0.3775, -0.3775, -0.3775, -0.38166666666666665, -0.38166666666666665, -0.38166666666666665, -0.38166666666666665, -0.38166666666666665, -0.38166666666666665, -0.38166666666666665, -0.38166666666666665, -0.38166666666666665, -0.38166666666666665, -0.38166666666666665, -0.38166666666666665, -0.25333333333333335]"	"[1, 1, 1, 1, 1, 1, 1, 1, 1, 1, 1, 1, 1, 1, 1, 1, 1, 1, 1, 1, 1, 1, 1, 1, 1, 1, 1, 1, 1, 1, 1, 1, 1, 1, 1, 0]"	"[0, 0, 0, 0, 0, 0, 0, 0, 0, 0, 0, 0, 0, 0, 0, 0, 0, 0, 0, 0, 0, 0, 0, 0, 0, 0, 0, 0, 0, 0, 0, 0, 0, 0, 0, 0]"	"[0, 0, 0, 0, 0, 0, 0, 0, 0, 0, 0, 0, 0, 0, 0, 0, 0, 0, 0, 0, 0, 0, 0, 0, 0, 0, 0, 0, 0, 0, 0, 0, 0, 0, 0, 1]"	"[0.0337481999999909, 0.23371270000001232, 0.4334107999999901, 0.6332227999999986, 0.8166520999999989, 1.0164613000000031, 1.2331068999999957, 1.4493721999999707, 1.6494323000000009, 1.8492415999999707, 2.065787699999987, 2.3158142999999995, 2.499028899999985, 2.6986717999999996, 2.898947200000009, 3.098431699999992, 3.314924299999973, 3.5314525000000003, 3.7148753999999826, 3.897946999999988, 4.114635200000009, 4.297898999999973, 4.514244599999984, 4.6974652000000106, 4.897239599999978, 5.08081199999998, 5.280578300000002, 5.480222799999979, 5.696813500000019, 5.87991089999997, 6.079831599999977, 6.280039400000021, 6.49626760000001, 6.696394699999985, 6.879546699999992, 7.162580999999989]"	35	"[0.03119490000000269, 0.23116770000001452, 0.4308649000000173, 0.630679500000042, 0.8141257999999993, 1.0139151000000197, 1.2305842000000098, 1.4468410000000063, 1.6468887999999993, 1.846711599999992, 2.063260600000035, 2.3132717999999954, 2.496491800000001, 2.6961345999999935, 2.89641290000003, 3.0959007000000156, 3.3123845000000074, 3.5289154000000167, 3.712333600000022, 3.895421200000044, 4.112099999999998, 4.295366700000045, 4.511715400000014, 4.694938400000012, 4.894710000000032, 5.078289200000029, 5.278051699999992, 5.477687500000002, 5.6942845000000375, 5.877378399999998, 6.07730140000001, 6.2775122000000465, 6.493739199999993, 6.693867100000034, 6.877026000000001]"	"[0.14745540000001256, 0.3307543000000237, 0.5139700000000289, 0.7138228000000026, 0.9137364000000048, 1.1302029000000289, 1.330119400000001, 1.5299597000000063, 1.7298261000000252, 1.9298818000000324, 2.163090199999999, 2.3794790000000035, 2.5961240000000316, 2.779193100000043, 2.979221999999993, 3.1957010000000423, 3.395528900000045, 3.5954345000000103, 3.7785756000000106, 3.978556000000026, 4.178350200000011, 4.361614300000042, 4.561455300000034, 4.794675200000029, 4.9945911000000365, 5.177854000000025, 5.377588400000036, 5.57754030000001, 5.7773796000000175, 5.993936899999994, 6.176852600000018, 6.3937636, 6.57683320000001, 6.776644500000032, 6.9601088]"	95.0512757	95.0632257	96.5460687	96.5621585	NA	NA	NA	NA	NA	NA	NA	"02"	"01"	"2023-12-14_12h50.44.881"	"BART_exp"	"2023.2.2"	60.050790958985	"2023-12-14 12h50.55.863297 +0100"	NA
"balloon.png"	14	0	14	14	3	96.5621585	NA	NA	NA	NA	NA	NA	NA	NA	NA	NA	NA	NA	96.5463221	96.5621585	96.5621585	96.5621585	96.5621585	96.5621585	0.0109961999999655	0.0109961999999655	0.0109961999999655	96.5621585	99.863121	15	0.7	TRUE	"[0.045, 0.045, 0.045, 0.045, 0.045, 0.045, 0.045, 0.045, 0.045, 0.045, 0.045, 0.045, 0.045, 0.045, 0.045]"	"[-0.37416666666666665, -0.37416666666666665, -0.37416666666666665, -0.37416666666666665, -0.37416666666666665, -0.37416666666666665, -0.37416666666666665, -0.37416666666666665, -0.37416666666666665, -0.37416666666666665, -0.37416666666666665, -0.37416666666666665, -0.37416666666666665, -0.37416666666666665, -0.37416666666666665]"	"[1, 1, 1, 1, 1, 1, 1, 1, 1, 1, 1, 1, 1, 1, 1]"	"[0, 0, 0, 0, 0, 0, 0, 0, 0, 0, 0, 0, 0, 0, 0]"	"[0, 0, 0, 0, 0, 0, 0, 0, 0, 0, 0, 0, 0, 0, 0]"	"[0.16713740000000143, 0.3502328000000148, 0.5667023000000313, 0.7665956000000165, 0.9833336000000372, 1.1999394000000052, 1.4164802000000236, 1.6496307000000456, 1.8825176000000283, 2.0992875000000026, 2.315478800000051, 2.5486078000000134, 2.7487220000000434, 2.9650548000000185, 3.19834400000002]"	15	"[0.1645723999999973, 0.34766489999998385, 0.564156999999966, 0.7640396999999552, 0.9807796000000053, 1.1973992000000067, 1.4139251999999942, 1.6470731, 1.8799621999999658, 2.096728100000007, 2.312910899999963, 2.5460532999999828, 2.74618449999997, 2.962516199999982, 3.195789399999967]"	"[0.2640872999999715, 0.46398510000000215, 0.6472711999999774, 0.8638133000000039, 1.0970017999999868, 1.3135086999999999, 1.5298315000000002, 1.746612999999968, 1.9631127999999762, 2.19624749999997, 2.4131821999999943, 2.612563399999999, 2.846035699999959, 3.0623211999999853, 3.2955945999999585]"	99.8642503	99.8767413	101.3758866	NA	NA	NA	NA	NA	NA	NA	NA	"02"	"01"	"2023-12-14_12h50.44.881"	"BART_exp"	"2023.2.2"	60.050790958985	"2023-12-14 12h50.55.863297 +0100"	NA
"balloon.png"	92	0	15	15	21	101.39979	NA	NA	NA	NA	NA	NA	NA	NA	NA	NA	NA	NA	101.3761497	101.39979	101.39979	101.39979	101.39979	101.39979	0.013779100000022	0.013779100000022	0.013779100000022	101.39979	106.1919182	20	1	FALSE	"[0.045, 0.045, 0.045, 0.045, 0.045, 0.045, 0.045, 0.045, 0.045, 0.045, 0.045, 0.045, 0.045, 0.045, 0.045, 0.045, 0.045, 0.045, 0.045, 0.045, 0.04833333333333333]"	"[-0.37416666666666665, -0.37416666666666665, -0.37416666666666665, -0.37416666666666665, -0.37416666666666665, -0.37416666666666665, -0.37416666666666665, -0.37416666666666665, -0.37416666666666665, -0.37416666666666665, -0.37416666666666665, -0.37416666666666665, -0.37416666666666665, -0.37416666666666665, -0.37416666666666665, -0.37416666666666665, -0.37416666666666665, -0.37416666666666665, -0.37416666666666665, -0.37416666666666665, -0.27666666666666667]"	"[1, 1, 1, 1, 1, 1, 1, 1, 1, 1, 1, 1, 1, 1, 1, 1, 1, 1, 1, 1, 0]"	"[0, 0, 0, 0, 0, 0, 0, 0, 0, 0, 0, 0, 0, 0, 0, 0, 0, 0, 0, 0, 0]"	"[0, 0, 0, 0, 0, 0, 0, 0, 0, 0, 0, 0, 0, 0, 0, 0, 0, 0, 0, 0, 1]"	"[0.2675484000000097, 0.46731290000002446, 0.6673089000000232, 0.8837657999999919, 1.1166809000000057, 1.3333858999999961, 1.5499320999999782, 1.7664922999999817, 1.9827933999999914, 2.1994227000000137, 2.4328479999999786, 2.6660582999999747, 2.91551400000003, 3.1987682000000177, 3.398619599999961, 3.632176500000014, 3.8652567999999974, 4.081751599999961, 4.29840420000005, 4.498252699999966, 4.8143526000000065]"	20	"[0.2525835999999799, 0.45234139999996614, 0.6523264999999583, 0.868787999999995, 1.1017059999999788, 1.31842469999998, 1.5349614999999517, 1.7515365999999517, 1.967826500000001, 2.1844634999999926, 2.417899499999976, 2.6511007999999947, 2.9005405999999994, 3.183811799999944, 3.383660099999929, 3.6172173999999586, 3.8503124999999727, 4.066790500000025, 4.283449399999995, 4.48331369999994]"	"[0.3520127999999545, 0.5518634999999676, 0.7518006999999898, 0.9516430999999557, 1.1849829999999884, 1.4013876999999866, 1.6012744999999882, 1.8343703999999548, 2.0509560999999508, 2.267665999999963, 2.5339793999999642, 2.767204799999945, 3.0003206999999747, 3.2503712999999834, 3.483531200000016, 3.733313800000019, 3.949817699999926, 4.149694299999965, 4.366279899999995, 4.582749899999953]"	106.1932478	106.2059795	107.6889683	107.7050636	NA	NA	NA	NA	NA	NA	NA	"02"	"01"	"2023-12-14_12h50.44.881"	"BART_exp"	"2023.2.2"	60.050790958985	"2023-12-14 12h50.55.863297 +0100"	NA
"balloon.png"	5	0	16	16	1	107.7050636	NA	NA	NA	NA	NA	NA	NA	NA	NA	NA	NA	NA	107.6892511	107.7050636	107.7050636	107.7050636	107.7050636	107.7050636	0.0119512999999642	0.0119512999999642	0.0119512999999642	107.7050636	108.7574715	6	0.25	TRUE	"[0.0575, 0.0575, 0.0575, 0.0575, 0.0575]"	"[-0.4075, -0.4075, -0.4075, -0.4075, -0.4075]"	"[1, 1, 1, 1, 1]"	"[0, 0, 0, 0, 0]"	"[0, 0, 0, 0, 0]"	"[0.15022309999994832, 0.3666746000000103, 0.5831196000000318, 0.7830721999999923, 0.9664244000000508]"	5	"[0.1472314999999753, 0.3636882999999216, 0.5801394999999729, 0.7800899000000072, 0.9634490999999343]"	"[0.2468116000000009, 0.4632865999999467, 0.6632675999999265, 0.8630554999999731, 1.046328199999948]"	108.7583413	108.77096	110.2701753	NA	NA	NA	NA	NA	NA	NA	NA	"02"	"01"	"2023-12-14_12h50.44.881"	"BART_exp"	"2023.2.2"	60.050790958985	"2023-12-14 12h50.55.863297 +0100"	NA
"balloon.png"	110	0	17	17	25	110.2987886	NA	NA	NA	NA	NA	NA	NA	NA	NA	NA	NA	NA	110.2704425	110.2987886	110.2987886	110.2987886	110.2987886	110.2987886	0.0139678000000458	0.0139678000000458	0.0139678000000458	110.2987886	116.785309	30	1.5	FALSE	"[0.04666666666666667, 0.04666666666666667, 0.04666666666666667, 0.04666666666666667, 0.04666666666666667, 0.04666666666666667, 0.04666666666666667, 0.04666666666666667, 0.056666666666666664, 0.059166666666666666, 0.05583333333333333, 0.05583333333333333, 0.05583333333333333, 0.05583333333333333, 0.05583333333333333, 0.05583333333333333, 0.05583333333333333, 0.05583333333333333, 0.05583333333333333, 0.056666666666666664, 0.0575, 0.0575, 0.0575, 0.0575, 0.0575, 0.0575, 0.0575, 0.059166666666666666, 0.06, 0.06, 0.06, 0.10833333333333334]"	"[-0.415, -0.415, -0.415, -0.41583333333333333, -0.41583333333333333, -0.41583333333333333, -0.41583333333333333, -0.41583333333333333, -0.42, -0.41083333333333333, -0.41, -0.4091666666666667, -0.4091666666666667, -0.4091666666666667, -0.4091666666666667, -0.4091666666666667, -0.4091666666666667, -0.4091666666666667, -0.4091666666666667, -0.4033333333333333, -0.4025, -0.4025, -0.4025, -0.4025, -0.4025, -0.4025, -0.4025, -0.4008333333333333, -0.4008333333333333, -0.4008333333333333, -0.4008333333333333, -0.21583333333333332]"	"[1, 1, 1, 1, 1, 1, 1, 1, 1, 1, 1, 1, 1, 1, 1, 1, 1, 1, 1, 1, 1, 1, 1, 1, 1, 1, 1, 1, 1, 1, 1, 0]"	"[0, 0, 0, 0, 0, 0, 0, 0, 0, 0, 0, 0, 0, 0, 0, 0, 0, 0, 0, 0, 0, 0, 0, 0, 0, 0, 0, 0, 0, 0, 0, 0]"	"[0, 0, 0, 0, 0, 0, 0, 0, 0, 0, 0, 0, 0, 0, 0, 0, 0, 0, 0, 0, 0, 0, 0, 0, 0, 0, 0, 0, 0, 0, 0, 1]"	"[0.06716989999995349, 0.25071939999997994, 0.45060850000004393, 0.6529590999999755, 0.8504113999999845, 1.033538300000032, 1.2498897000000397, 1.4497556999999688, 1.6495631999999887, 1.8673138000000336, 2.0662803000000167, 2.2658883999999944, 2.4658403999999337, 2.682480700000042, 2.898862099999974, 3.099420499999951, 3.31544550000001, 3.5321139999999787, 3.7485399999999345, 3.9487038999999413, 4.181869199999937, 4.397761500000001, 4.597983999999997, 4.81450719999998, 5.030773500000009, 5.230639799999949, 5.41401929999995, 5.6304238999999825, 5.813957699999946, 5.997219900000005, 6.196721000000025, 6.513443700000039]"	31	"[0.04747980000001917, 0.2310350999999855, 0.4309474000000364, 0.6332938000000468, 0.8307418000000553, 1.0138640000000123, 1.2302153000000544, 1.4300802000000203, 1.629896400000007, 1.8476566000000503, 2.0466105000000425, 2.246211799999969, 2.4461622000000034, 2.6628200999999763, 2.8791956000000027, 3.07975399999998, 3.295770100000027, 3.5124382000000196, 3.7288710000000265, 3.9290359999999964, 4.162190200000055, 4.378087700000037, 4.578312400000073, 4.794842900000049, 5.011111300000039, 5.2109645000000455, 5.394349199999965, 5.610745100000031, 5.79428740000003, 5.977550400000041, 6.1770669]"	"[0.13068160000000262, 0.330566900000008, 0.5305425999999898, 0.747008600000072, 0.9303028000000495, 1.1467596999999614, 1.3300100999999813, 1.479918600000019, 1.7463229999999612, 1.9629476999999724, 2.146185599999967, 2.3460370999999896, 2.54584310000007, 2.7457385999999815, 2.995672099999979, 3.1955656999999746, 3.4119766999999683, 3.611869400000046, 3.82843969999999, 4.061592000000019, 4.278094500000066, 4.477972099999988, 4.694433300000014, 4.894457999999986, 5.094336399999975, 5.294145000000071, 5.51064329999997, 5.7271619000000555, 5.910442800000055, 6.076999999999998, 6.327692599999978]"	116.7869326	116.7991424	118.298321	NA	NA	NA	NA	NA	NA	NA	NA	"02"	"01"	"2023-12-14_12h50.44.881"	"BART_exp"	"2023.2.2"	60.050790958985	"2023-12-14 12h50.55.863297 +0100"	NA
"balloon.png"	71	0	18	18	16	118.3586466	NA	NA	NA	NA	NA	NA	NA	NA	NA	NA	NA	NA	118.2986528	118.3586466	118.3586466	118.3586466	118.3586466	118.3586466	0.0135738000000174	0.0135738000000174	0.0135738000000174	118.3586466	125.2961482	26	1.3	FALSE	"[0.024166666666666666, 0.024166666666666666, 0.024166666666666666, 0.024166666666666666, 0.024166666666666666, 0.024166666666666666, 0.024166666666666666, 0.024166666666666666, 0.024166666666666666, 0.024166666666666666, 0.024166666666666666, 0.024166666666666666, 0.024166666666666666, 0.024166666666666666, 0.024166666666666666, 0.024166666666666666, 0.024166666666666666, 0.024166666666666666, 0.024166666666666666, 0.024166666666666666, 0.024166666666666666, 0.024166666666666666, 0.024166666666666666, 0.024166666666666666, 0.024166666666666666, 0.024166666666666666, 0.17166666666666666]"	"[-0.36083333333333334, -0.36083333333333334, -0.36083333333333334, -0.36083333333333334, -0.36083333333333334, -0.36083333333333334, -0.36083333333333334, -0.36083333333333334, -0.36083333333333334, -0.36083333333333334, -0.36083333333333334, -0.36083333333333334, -0.36083333333333334, -0.36083333333333334, -0.36083333333333334, -0.36083333333333334, -0.36083333333333334, -0.36083333333333334, -0.36083333333333334, -0.36083333333333334, -0.3616666666666667, -0.3616666666666667, -0.3616666666666667, -0.3616666666666667, -0.3616666666666667, -0.3616666666666667, -0.07333333333333333]"	"[1, 1, 1, 1, 1, 1, 1, 1, 1, 1, 1, 1, 1, 1, 1, 1, 1, 1, 1, 1, 1, 1, 1, 1, 1, 1, 0]"	"[0, 0, 0, 0, 0, 0, 0, 0, 0, 0, 0, 0, 0, 0, 0, 0, 0, 0, 0, 0, 0, 0, 0, 0, 0, 0, 0]"	"[0, 0, 0, 0, 0, 0, 0, 0, 0, 0, 0, 0, 0, 0, 0, 0, 0, 0, 0, 0, 0, 0, 0, 0, 0, 0, 1]"	"[1.4665622999999641, 1.6497755999999981, 1.833101499999998, 2.032912499999952, 2.233001999999942, 2.4326721999999563, 2.632643499999972, 2.8653843999999253, 3.0489025999999058, 3.265514199999984, 3.4818576999999777, 3.6982918999999583, 3.898340499999904, 4.097990799999934, 4.31478699999991, 4.530964499999982, 4.764186899999913, 4.964272299999948, 5.1805539999999155, 5.38043689999995, 5.580565499999921, 5.830081399999926, 6.046942399999921, 6.230210099999908, 6.396738599999935, 6.579718299999968, 6.996070400000008]"	26	"[1.415193899999963, 1.5984112999999525, 1.7817432999999028, 1.981543899999906, 2.1816519999999855, 2.3813146999999617, 2.581283499999927, 2.8140214000000014, 2.9975405999999793, 3.2141577999999527, 3.4304992999999513, 3.64693079999995, 3.8469698999999764, 4.046624599999973, 4.263428999999974, 4.479596399999991, 4.712818499999912, 4.912904499999968, 5.129182799999967, 5.3290768999999045, 5.529209599999945, 5.778721099999984, 5.995577400000002, 6.178839999999923, 6.34538079999993, 6.528356499999973]"	"[1.5147665999999163, 1.7312535999999454, 1.914458599999989, 2.0977189999999837, 2.280985699999974, 2.497497199999998, 2.7139557999998942, 2.9137554999999793, 3.113702999999987, 3.3135475999999926, 3.5300719999999046, 3.746577299999899, 3.946495299999924, 4.146297699999991, 4.362933699999985, 4.579455800000005, 4.812578899999949, 5.029123999999911, 5.228847799999926, 5.428922799999896, 5.628731399999992, 5.895248699999911, 6.078489999999988, 6.244995299999914, 6.428198299999963, 6.711434199999985]"	125.2977451	125.3102676	126.7933597	126.8092996	NA	NA	NA	NA	NA	NA	NA	"02"	"01"	"2023-12-14_12h50.44.881"	"BART_exp"	"2023.2.2"	60.050790958985	"2023-12-14 12h50.55.863297 +0100"	NA
"balloon.png"	105	0	19	19	24	126.8092996	NA	NA	NA	NA	NA	NA	NA	NA	NA	NA	NA	NA	126.7936244	126.8092996	126.8092996	126.8092996	126.8092996	126.8092996	0.0116725000000315	0.0116725000000315	0.0116725000000315	126.8092996	132.9081925	25	1.25	FALSE	"[0.0075, 0.0075, 0.0075, 0.013333333333333334, 0.013333333333333334, 0.013333333333333334, 0.013333333333333334, 0.013333333333333334, 0.013333333333333334, 0.013333333333333334, 0.013333333333333334, 0.013333333333333334, 0.013333333333333334, 0.013333333333333334, 0.013333333333333334, 0.013333333333333334, 0.013333333333333334, 0.013333333333333334, 0.013333333333333334, 0.013333333333333334, 0.013333333333333334, 0.013333333333333334, 0.013333333333333334, 0.013333333333333334, 0.013333333333333334, 0.013333333333333334]"	"[-0.3975, -0.3975, -0.4008333333333333, -0.39416666666666667, -0.39416666666666667, -0.39416666666666667, -0.39416666666666667, -0.39416666666666667, -0.39416666666666667, -0.39416666666666667, -0.39416666666666667, -0.39416666666666667, -0.39416666666666667, -0.39416666666666667, -0.39416666666666667, -0.39416666666666667, -0.39416666666666667, -0.39416666666666667, -0.39416666666666667, -0.39416666666666667, -0.39416666666666667, -0.39416666666666667, -0.39416666666666667, -0.39416666666666667, -0.39416666666666667, -0.39416666666666667]"	"[1, 1, 1, 1, 1, 1, 1, 1, 1, 1, 1, 1, 1, 1, 1, 1, 1, 1, 1, 1, 1, 1, 1, 1, 1, 0]"	"[0, 0, 0, 0, 0, 0, 0, 0, 0, 0, 0, 0, 0, 0, 0, 0, 0, 0, 0, 0, 0, 0, 0, 0, 0, 0]"	"[0, 0, 0, 0, 0, 0, 0, 0, 0, 0, 0, 0, 0, 0, 0, 0, 0, 0, 0, 0, 0, 0, 0, 0, 0, 1]"	"[0.38321780000001127, 0.5835531000000174, 0.8169133999999758, 1.366240199999993, 1.5329033000000436, 1.7492995000000064, 1.9658371000000443, 2.1986467000000403, 2.431775000000016, 2.6320343999999523, 2.881856800000037, 3.0818673999999646, 3.314706000000001, 3.5479076000000305, 3.7645784999999705, 3.9809232000000065, 4.197674300000017, 4.464675000000057, 4.663981100000001, 4.880600299999969, 5.0803951000000325, 5.330088599999954, 5.563443500000062, 5.779612899999961, 5.946647200000029, 6.113163200000031]"	26	"[0.3807134999999562, 0.5810672000000068, 0.81443390000004, 1.36374950000004, 1.5304072000000133, 1.746794199999954, 1.963323599999967, 2.1961364000000003, 2.414195599999971, 2.629522100000031, 2.8793477000000394, 3.079346600000008, 3.312185799999952, 3.5453843000000234, 3.762066900000036, 3.978400899999997, 4.1951702999999725, 4.462158199999976, 4.661467499999958, 4.878080699999941, 5.0778746999999385, 5.327581099999975, 5.560936200000015, 5.77708599999994, 5.944124299999999, 6.110547200000042]"	"[0.49736250000000837, 0.6972137000000203, 0.9306603999999652, 1.4467984999999999, 1.6631760000000213, 1.8464162000000215, 2.0627955999999585, 2.2959529999999404, 2.51254229999995, 2.729086999999936, 2.9621989999999414, 3.1788784000000305, 3.4118621000000076, 3.6451273999999785, 3.8450286999999435, 4.0615060000000085, 4.278108699999962, 4.52793680000002, 4.76104399999997, 4.977584999999976, 5.210767300000043, 5.427342500000009, 5.660499899999991, 5.843726199999992, 6.0435161000000335, 6.110552900000016]"	132.9095896	132.9220318	134.4211219	NA	NA	NA	NA	NA	NA	NA	NA	"02"	"01"	"2023-12-14_12h50.44.881"	"BART_exp"	"2023.2.2"	60.050790958985	"2023-12-14 12h50.55.863297 +0100"	NA
"balloon.png"	49	0	20	20	11	134.4724654	NA	NA	NA	NA	NA	NA	NA	NA	NA	NA	NA	NA	134.4213865	134.4724654	134.4724654	134.4724654	134.4724654	134.4724654	0.0135941999999432	0.0135941999999432	0.0135941999999432	134.4724654	146.4828287	50	2.45	TRUE	"[0.013333333333333334, 0.013333333333333334, 0.013333333333333334, 0.013333333333333334, 0.013333333333333334, 0.013333333333333334, 0.013333333333333334, 0.013333333333333334, 0.013333333333333334, 0.013333333333333334, 0.013333333333333334, 0.013333333333333334, 0.013333333333333334, 0.013333333333333334, 0.013333333333333334, 0.013333333333333334, 0.013333333333333334, 0.013333333333333334, 0.013333333333333334, 0.013333333333333334, 0.013333333333333334, 0.013333333333333334, 0.013333333333333334, 0.013333333333333334, 0.013333333333333334, 0.013333333333333334, 0.013333333333333334, 0.013333333333333334, 0.013333333333333334, 0.013333333333333334, 0.013333333333333334, 0.013333333333333334, 0.013333333333333334, 0.013333333333333334, 0.013333333333333334, 0.013333333333333334, 0.013333333333333334, 0.013333333333333334, 0.013333333333333334, 0.013333333333333334, 0.013333333333333334, 0.013333333333333334, 0.013333333333333334, 0.013333333333333334, 0.013333333333333334, 0.013333333333333334, 0.013333333333333334, 0.013333333333333334, 0.013333333333333334, 0.013333333333333334]"	"[-0.39416666666666667, -0.39416666666666667, -0.39416666666666667, -0.39416666666666667, -0.39416666666666667, -0.39416666666666667, -0.39416666666666667, -0.39416666666666667, -0.39416666666666667, -0.39416666666666667, -0.39416666666666667, -0.39416666666666667, -0.39416666666666667, -0.39416666666666667, -0.39416666666666667, -0.39416666666666667, -0.39416666666666667, -0.39416666666666667, -0.39416666666666667, -0.39416666666666667, -0.39416666666666667, -0.39416666666666667, -0.39416666666666667, -0.39416666666666667, -0.39416666666666667, -0.39416666666666667, -0.39416666666666667, -0.39416666666666667, -0.39416666666666667, -0.39416666666666667, -0.39416666666666667, -0.39416666666666667, -0.39416666666666667, -0.39416666666666667, -0.39416666666666667, -0.39416666666666667, -0.39416666666666667, -0.39416666666666667, -0.39416666666666667, -0.39416666666666667, -0.39416666666666667, -0.39416666666666667, -0.39416666666666667, -0.39416666666666667, -0.39416666666666667, -0.39416666666666667, -0.39416666666666667, -0.39416666666666667, -0.39416666666666667, -0.39416666666666667]"	"[1, 1, 1, 1, 1, 1, 1, 1, 1, 1, 1, 1, 1, 1, 1, 1, 1, 1, 1, 1, 1, 1, 1, 1, 1, 1, 1, 1, 1, 1, 1, 1, 1, 1, 1, 1, 1, 1, 1, 1, 1, 1, 1, 1, 1, 1, 1, 1, 1, 1]"	"[0, 0, 0, 0, 0, 0, 0, 0, 0, 0, 0, 0, 0, 0, 0, 0, 0, 0, 0, 0, 0, 0, 0, 0, 0, 0, 0, 0, 0, 0, 0, 0, 0, 0, 0, 0, 0, 0, 0, 0, 0, 0, 0, 0, 0, 0, 0, 0, 0, 0]"	"[0, 0, 0, 0, 0, 0, 0, 0, 0, 0, 0, 0, 0, 0, 0, 0, 0, 0, 0, 0, 0, 0, 0, 0, 0, 0, 0, 0, 0, 0, 0, 0, 0, 0, 0, 0, 0, 0, 0, 0, 0, 0, 0, 0, 0, 0, 0, 0, 0, 0]"	"[0.28390409999997246, 0.48403719999998884, 0.7005425999999488, 0.9004526999999598, 1.1170072999999547, 1.3334846000000198, 1.6999015999999756, 1.8997877000000472, 2.099725199999966, 2.3162366999999904, 2.5160282000000507, 2.715955699999995, 2.9158512999999857, 3.1156826000000137, 3.3321789999999964, 3.532133599999952, 3.748671100000024, 3.948492999999985, 4.148443499999985, 4.364834099999939, 4.564754099999959, 4.781296300000008, 4.981218300000023, 5.19774289999998, 5.430916600000046, 5.647428099999956, 5.880351900000051, 6.09687120000001, 6.330288099999962, 6.530175500000041, 6.763041799999996, 6.963081099999954, 7.16285449999998, 7.3794099000000415, 7.646061400000008, 7.8626659000000245, 8.112192199999981, 8.378737300000012, 8.695414400000004, 9.061869300000012, 9.44501230000003, 9.744733699999983, 10.011338799999976, 10.26079070000003, 10.593901800000026, 10.910360100000048, 11.19366309999998, 11.460253100000045, 11.7265893, 11.943263600000023]"	50	"[0.24122889999989638, 0.4413763000000017, 0.6578755999998975, 0.8577829999999267, 1.0743340999999873, 1.290814399999931, 1.6572371999999405, 1.8571233999999777, 2.057065899999998, 2.2735669999999573, 2.4733602999999675, 2.673303199999964, 2.8731824999999844, 3.0730096999999432, 3.2895122999999558, 3.4894658999999137, 3.7060032999999066, 3.9058248999999705, 4.105785799999921, 4.322166100000004, 4.522080699999947, 4.738622799999916, 4.938543799999934, 5.155075299999908, 5.3882500999999365, 5.604756399999928, 5.837681499999917, 6.054199199999971, 6.287630199999967, 6.487516400000004, 6.720372699999984, 6.920414399999913, 7.120185499999934, 7.336753499999986, 7.603394999999978, 7.8199955000000045, 8.069521399999985, 8.336079799999993, 8.652755999999954, 9.01919769999995, 9.40235569999993, 9.70207389999996, 9.968667099999948, 10.218124699999976, 10.55123279999998, 10.867692399999896, 11.150996299999974, 11.41759019999995, 11.683926399999905, 11.900609299999928]"	"[0.3409724999999071, 0.5408458999999084, 0.7407612999999174, 0.94067849999999, 1.1573582999999417, 1.4236746999999923, 1.7566044999999804, 1.956624599999941, 2.173186699999974, 2.3730534000000034, 2.5730320999999776, 2.7561357999999245, 2.972691999999938, 3.1725734999999986, 3.389074800000003, 3.5723233999999593, 3.7887817999999243, 4.005447599999911, 4.221914199999901, 4.421694000000002, 4.621578499999941, 4.821486899999968, 5.03778299999999, 5.2544776999999385, 5.487728299999958, 5.720876399999952, 5.9540831999999, 6.170583699999952, 6.387153799999965, 6.60370869999997, 6.803575999999907, 7.0200346999999965, 7.219677499999989, 7.436502999999902, 7.719566299999997, 7.952758700000004, 8.185966099999973, 8.435932600000001, 8.752288799999974, 9.135545699999966, 9.535150899999962, 9.851399399999991, 10.10144559999992, 10.335513099999957, 10.684339999999906, 11.000843299999929, 11.283941299999924, 11.550480099999959, 11.800348199999917, 12.000172799999973]"	146.4850641	146.4965282	147.9956439	NA	NA	NA	NA	NA	NA	NA	NA	"02"	"01"	"2023-12-14_12h50.44.881"	"BART_exp"	"2023.2.2"	60.050790958985	"2023-12-14 12h50.55.863297 +0100"	NA
"balloon.png"	75	0	21	21	17	148.0121784	NA	NA	NA	NA	NA	NA	NA	NA	NA	NA	NA	NA	147.9959051	148.0121784	148.0121784	148.0121784	148.0121784	148.0121784	0.0126946999999973	0.0126946999999973	0.0126946999999973	148.0121784	155.976551	35	1.75	FALSE	"[0.013333333333333334, 0.013333333333333334, 0.013333333333333334, 0.013333333333333334, 0.013333333333333334, 0.013333333333333334, 0.013333333333333334, 0.013333333333333334, 0.013333333333333334, 0.013333333333333334, 0.013333333333333334, 0.013333333333333334, 0.013333333333333334, 0.013333333333333334, 0.013333333333333334, 0.013333333333333334, 0.013333333333333334, 0.013333333333333334, 0.013333333333333334, 0.013333333333333334, 0.013333333333333334, 0.013333333333333334, 0.013333333333333334, 0.013333333333333334, 0.013333333333333334, 0.013333333333333334, 0.013333333333333334, 0.013333333333333334, 0.013333333333333334, 0.013333333333333334, 0.013333333333333334, 0.013333333333333334, 0.013333333333333334, 0.013333333333333334, 0.013333333333333334, 0.1]"	"[-0.39416666666666667, -0.39416666666666667, -0.39416666666666667, -0.39416666666666667, -0.39416666666666667, -0.39416666666666667, -0.39416666666666667, -0.39416666666666667, -0.39416666666666667, -0.39416666666666667, -0.39416666666666667, -0.39416666666666667, -0.39416666666666667, -0.39416666666666667, -0.39416666666666667, -0.39416666666666667, -0.39416666666666667, -0.39416666666666667, -0.39416666666666667, -0.39416666666666667, -0.39416666666666667, -0.39416666666666667, -0.39416666666666667, -0.39416666666666667, -0.39416666666666667, -0.39416666666666667, -0.39416666666666667, -0.39416666666666667, -0.39416666666666667, -0.39416666666666667, -0.39416666666666667, -0.39416666666666667, -0.39416666666666667, -0.39416666666666667, -0.39416666666666667, -0.2833333333333333]"	"[1, 1, 1, 1, 1, 1, 1, 1, 1, 1, 1, 1, 1, 1, 1, 1, 1, 1, 1, 1, 1, 1, 1, 1, 1, 1, 1, 1, 1, 1, 1, 1, 1, 1, 1, 0]"	"[0, 0, 0, 0, 0, 0, 0, 0, 0, 0, 0, 0, 0, 0, 0, 0, 0, 0, 0, 0, 0, 0, 0, 0, 0, 0, 0, 0, 0, 0, 0, 0, 0, 0, 0, 0]"	"[0, 0, 0, 0, 0, 0, 0, 0, 0, 0, 0, 0, 0, 0, 0, 0, 0, 0, 0, 0, 0, 0, 0, 0, 0, 0, 0, 0, 0, 0, 0, 0, 0, 0, 0, 1]"	"[0.2838097999999718, 0.4837645000000066, 0.68386959999998, 0.9168035999999802, 1.150384200000076, 1.3668949999999995, 1.5667719000000488, 1.8000056000000768, 2.0163822000000664, 2.249307799999997, 2.482540599999993, 2.7157157000000325, 2.949097800000004, 3.1990665000000718, 3.3989731000000347, 3.632056000000034, 3.8318413000000646, 4.081445000000031, 4.2813995000000205, 4.498153399999978, 4.74788250000006, 4.930976999999984, 5.164133900000024, 5.380731200000014, 5.563945699999977, 5.780396500000052, 6.013813499999969, 6.213404700000069, 6.430273800000009, 6.6301202000000785, 6.863274300000057, 7.07971329999998, 7.296369099999993, 7.496008599999982, 7.6961059000000205, 7.979236000000014]"	35	"[0.2787160999999969, 0.4786811999999827, 0.6787856999999349, 0.9117195000000038, 1.1453206999999566, 1.3618156, 1.5616950999999517, 1.7949277000000166, 2.0113152999999784, 2.244228700000008, 2.4774682999999413, 2.710639399999991, 2.9440234999999575, 3.193993399999954, 3.393898400000012, 3.626978699999995, 3.8267664999999624, 4.076361799999972, 4.276329099999998, 4.493078800000035, 4.742803999999978, 4.925901500000009, 5.159055999999964, 5.375670000000014, 5.5588771999999835, 5.775318999999968, 6.008743200000026, 6.208330499999988, 6.425202000000013, 6.62503879999997, 6.858192499999973, 7.074645099999998, 7.291288799999961, 7.4909437000000025, 7.691034599999966]"	"[0.37861339999994925, 0.5784843999999794, 0.7951146999999992, 1.011389300000019, 1.2446949000000131, 1.478008100000011, 1.7111412000000428, 1.9109452000000147, 2.1276196999999684, 2.3607690999999704, 2.5939597999999933, 2.8270955000000413, 3.043612199999984, 3.2769362999999885, 3.5099448999999368, 3.7431017999999767, 3.9429939999999988, 4.1594416000000365, 4.392728000000034, 4.609263100000021, 4.842352699999992, 5.059003599999983, 5.25889559999996, 5.475353899999959, 5.658596999999986, 5.87509579999994, 6.074852399999941, 6.32488909999995, 6.541296099999954, 6.741097999999965, 6.9743499999999585, 7.190913499999965, 7.3906886999999415, 7.590717000000041, 7.807231099999967]"	155.9782789	155.9903966	157.4892605	NA	NA	NA	NA	NA	NA	NA	NA	"02"	"01"	"2023-12-14_12h50.44.881"	"BART_exp"	"2023.2.2"	60.050790958985	"2023-12-14 12h50.55.863297 +0100"	NA
"balloon.png"	27	0	22	22	6	157.5161837	NA	NA	NA	NA	NA	NA	NA	NA	NA	NA	NA	NA	157.4895564	157.5161837	157.5161837	157.5161837	157.5161837	157.5161837	0.013083800000004	0.013083800000004	0.013083800000004	157.5161837	163.1885655	24	1.2	FALSE	"[0.03166666666666667, 0.03166666666666667, 0.03166666666666667, 0.03166666666666667, 0.03166666666666667, 0.03166666666666667, 0.03166666666666667, 0.03166666666666667, 0.03166666666666667, 0.03166666666666667, 0.03166666666666667, 0.03166666666666667, 0.03166666666666667, 0.03166666666666667, 0.03166666666666667, 0.03166666666666667, 0.03166666666666667, 0.03166666666666667, 0.03166666666666667, 0.03166666666666667, 0.03166666666666667, 0.03166666666666667, 0.03166666666666667, 0.03166666666666667, 0.1025]"	"[-0.3675, -0.3675, -0.3675, -0.3675, -0.3675, -0.3675, -0.3675, -0.3675, -0.3675, -0.3675, -0.3675, -0.3675, -0.3675, -0.3675, -0.3675, -0.3675, -0.3675, -0.3675, -0.3675, -0.3675, -0.3675, -0.3675, -0.3675, -0.3675, -0.2275]"	"[1, 1, 1, 1, 1, 1, 1, 1, 1, 1, 1, 1, 1, 1, 1, 1, 1, 1, 1, 1, 1, 1, 1, 1, 0]"	"[0, 0, 0, 0, 0, 0, 0, 0, 0, 0, 0, 0, 0, 0, 0, 0, 0, 0, 0, 0, 0, 0, 0, 0, 0]"	"[0, 0, 0, 0, 0, 0, 0, 0, 0, 0, 0, 0, 0, 0, 0, 0, 0, 0, 0, 0, 0, 0, 0, 0, 1]"	"[0.027729899999940244, 0.2343346999999767, 0.4358161000000109, 0.6342475999999806, 0.8670432000000119, 1.3170039999999972, 1.5666987999999265, 1.7833654999999453, 2.016572099999962, 2.2331984999999577, 2.4495125999999345, 2.6663594999999987, 2.9158052000000225, 3.132227499999999, 3.332475299999942, 3.5823431999999684, 3.815447400000039, 4.048714399999994, 4.281947999999943, 4.515049699999963, 4.731567799999993, 4.931377300000008, 5.131024000000025, 5.331210199999987, 5.6975999]"	24	"[0.0005376999999953114, 0.21687200000008033, 0.4183570000000145, 0.6167720000000827, 0.8495654000000741, 1.299531399999978, 1.5492394000000331, 1.7659082000000126, 1.9991150000000744, 2.215732399999979, 2.4320407999999816, 2.648890100000017, 2.898335700000075, 3.1147578999999723, 3.315007200000082, 3.564883399999985, 3.797980900000084, 4.031249100000082, 4.264496200000053, 4.497587700000054, 4.71409970000002, 4.913909500000045, 5.113553799999977, 5.313749799999982]"	"[0.11650570000006155, 0.31643910000002506, 0.5329995000000736, 0.7494861000000128, 1.199282100000005, 1.4323917000000392, 1.6488911000000144, 1.8655399000000443, 2.0817778000000544, 2.2985439999999926, 2.531804299999976, 2.7482387000000017, 2.998170200000004, 3.2147002000000384, 3.4313616000000593, 3.6644200000000637, 3.9141656000000467, 4.147293500000046, 4.36397199999999, 4.597060199999987, 4.813625100000081, 4.996809600000006, 5.213310299999989, 5.413145100000065]"	163.1900331	163.2024145	164.7014914	NA	NA	NA	NA	NA	NA	NA	NA	"02"	"01"	"2023-12-14_12h50.44.881"	"BART_exp"	"2023.2.2"	60.050790958985	"2023-12-14 12h50.55.863297 +0100"	NA
"balloon.png"	62	0	23	23	14	164.7347797	NA	NA	NA	NA	NA	NA	NA	NA	NA	NA	NA	NA	164.7017578	164.7347797	164.7347797	164.7347797	164.7347797	164.7347797	0.0135391999999683	0.0135391999999683	0.0135391999999683	164.7347797	170.1346677	22	1.1	FALSE	"[-0.0016666666666666668, -0.0016666666666666668, -0.0016666666666666668, -0.0016666666666666668, -0.0016666666666666668, -0.0016666666666666668, -0.0016666666666666668, -0.0016666666666666668, -0.0016666666666666668, -0.0016666666666666668, -0.0016666666666666668, 0.006666666666666667, 0.006666666666666667, 0.006666666666666667, 0.006666666666666667, 0.006666666666666667, 0.008333333333333333, 0.0175, 0.020833333333333332, 0.020833333333333332, 0.023333333333333334, 0.023333333333333334, 0.023333333333333334, 0.023333333333333334, 0.08416666666666667]"	"[-0.34833333333333333, -0.34833333333333333, -0.385, -0.385, -0.385, -0.385, -0.385, -0.385, -0.385, -0.385, -0.385, -0.37833333333333335, -0.37833333333333335, -0.37833333333333335, -0.38416666666666666, -0.38416666666666666, -0.38333333333333336, -0.37666666666666665, -0.37583333333333335, -0.37583333333333335, -0.3775, -0.37833333333333335, -0.37833333333333335, -0.37833333333333335, -0.15166666666666667]"	"[1, 1, 1, 1, 1, 1, 1, 1, 1, 1, 1, 1, 1, 1, 1, 1, 1, 1, 1, 1, 1, 1, 1, 1, 0]"	"[0, 0, 0, 0, 0, 0, 0, 0, 0, 0, 0, 0, 0, 0, 0, 0, 0, 0, 0, 0, 0, 0, 0, 0, 0]"	"[0, 0, 0, 0, 0, 0, 0, 0, 0, 0, 0, 0, 0, 0, 0, 0, 0, 0, 0, 0, 0, 0, 0, 0, 1]"	"[0.4006903000000648, 0.6170559000000821, 0.9174265000000332, 1.1002666000000545, 1.3002236000000948, 1.4838569000000916, 1.6830733000000464, 1.8661916000000929, 2.066301199999998, 2.2495832000000746, 2.4659015000000863, 2.6823689999999942, 2.8824688000000833, 3.0989457000000584, 3.3154253000000153, 3.532042600000068, 3.7317077000000154, 3.931860800000095, 4.133336999999983, 4.348316300000079, 4.566721800000096, 4.764699000000064, 4.964179300000069, 5.132143799999994, 5.43150090000006]"	23	"[0.6260909000000083, 0.8931615999999849, 1.0759997999999769, 1.275966599999947, 1.4595946999999114, 1.6588302999999769, 1.8419216999999435, 2.0420345999999654, 2.2253150000000232, 2.4416493999999602, 2.658104900000012, 2.8582024999999476, 3.0746795999999676, 3.2911599999999908, 3.507775699999911, 3.7074433999999883, 3.9075935999999274, 4.10909700000002, 4.324061099999994, 4.542457599999921, 4.740442599999938, 4.939920299999926, 5.107993999999962]"	"[0.7924853999999186, 0.9924758999999312, 1.175528399999962, 1.3755000999999538, 1.57538169999998, 1.7751468999999815, 1.9584333999999899, 2.1416105999999218, 2.34153589999994, 2.541417000000024, 2.7578710999999885, 2.957794599999943, 3.190949499999988, 3.390868800000021, 3.6073451999999406, 3.823870100000022, 4.023793899999987, 4.240263899999945, 4.4567718999999215, 4.656733599999939, 4.856642999999963, 5.039730399999939, 5.2562597999999525]"	170.1360777	170.1478203	171.6307042	171.6468726	NA	NA	NA	NA	NA	NA	NA	"02"	"01"	"2023-12-14_12h50.44.881"	"BART_exp"	"2023.2.2"	60.050790958985	"2023-12-14 12h50.55.863297 +0100"	NA
"balloon.png"	1	0	24	24	0	171.6468726	NA	NA	NA	NA	NA	NA	NA	NA	NA	NA	NA	NA	171.6309689	171.6468726	171.6468726	171.6468726	171.6468726	171.6468726	0.0109214000000293	0.0109214000000293	0.0109214000000293	171.6468726	172.0829733	2	0.05	TRUE	"[0.08833333333333333, 0.08833333333333333]"	"[-0.38666666666666666, -0.38666666666666666]"	"[1, 1]"	"[0, 0]"	"[0, 0]"	"[0.15051530000005187, 0.33346180000000913]"	2	"[0.1479320999999345, 0.3308684999999514]"	"[0.2641354999999521, 0.43067329999996673]"	172.083729	172.0966048	173.579466	173.5955548	NA	NA	NA	NA	NA	NA	NA	"02"	"01"	"2023-12-14_12h50.44.881"	"BART_exp"	"2023.2.2"	60.050790958985	"2023-12-14 12h50.55.863297 +0100"	NA
"balloon.png"	101	0	25	25	23	173.5955548	NA	NA	NA	NA	NA	NA	NA	NA	NA	NA	NA	NA	173.5797178	173.5955548	173.5955548	173.5955548	173.5955548	173.5955548	0.0119357999999465	NA	NA	173.5955548	178.1452307	21	1.05	FALSE	"[0.08833333333333333, 0.08833333333333333, 0.08833333333333333, 0.08833333333333333, 0.08833333333333333, 0.08833333333333333, 0.08833333333333333, 0.08833333333333333, 0.08833333333333333, 0.08833333333333333, 0.08833333333333333, 0.08833333333333333, 0.08833333333333333, 0.08833333333333333, 0.08833333333333333, 0.08833333333333333, 0.08833333333333333, 0.08833333333333333, 0.08833333333333333, 0.08833333333333333, 0.08833333333333333, 0.04083333333333333]"	"[-0.38666666666666666, -0.38666666666666666, -0.38666666666666666, -0.38666666666666666, -0.38666666666666666, -0.38666666666666666, -0.38666666666666666, -0.38666666666666666, -0.38666666666666666, -0.38666666666666666, -0.38666666666666666, -0.38666666666666666, -0.38666666666666666, -0.38666666666666666, -0.38666666666666666, -0.38666666666666666, -0.38666666666666666, -0.38666666666666666, -0.38666666666666666, -0.38666666666666666, -0.38666666666666666, -0.245]"	"[1, 1, 1, 1, 1, 1, 1, 1, 1, 1, 1, 1, 1, 1, 1, 1, 1, 1, 1, 1, 1, 0]"	"[0, 0, 0, 0, 0, 0, 0, 0, 0, 0, 0, 0, 0, 0, 0, 0, 0, 0, 0, 0, 0, 0]"	"[0, 0, 0, 0, 0, 0, 0, 0, 0, 0, 0, 0, 0, 0, 0, 0, 0, 0, 0, 0, 0, 1]"	"[0.06693430000007083, 0.28366010000002007, 0.5000751999999693, 0.7168628000000581, 0.9334204000000454, 1.149959200000012, 1.383130000000051, 1.5830054000000473, 1.815928299999996, 2.0328524000000243, 2.265868400000045, 2.466852099999983, 2.6656192000000374, 2.88209089999998, 3.0985504999999876, 3.3149543000000676, 3.5315431000000217, 3.7147041000000627, 3.9147732000000133, 4.098081699999966, 4.281145700000025, 4.564149300000054]"	21	"[0.06439819999991414, 0.28111759999990227, 0.497535399999947, 0.7143335999999181, 0.9308868999999049, 1.147429099999954, 1.380604299999959, 1.5804806999999528, 1.813400599999909, 2.030333100000007, 2.2633402999999817, 2.464486299999976, 2.6630971999999247, 2.8795646999999462, 3.0960377000000108, 3.312434699999926, 3.52902969999991, 3.7121764999999414, 3.9122451999999157, 4.095582400000012, 4.278617399999916]"	"[0.164172399999984, 0.38076279999995677, 0.5807279999999082, 0.813849199999936, 1.0304362999999057, 1.2636692999999468, 1.463455999999951, 1.679996499999902, 1.9132108000000017, 2.1297519999999395, 2.3295818999999938, 2.562699299999963, 2.7792967999999973, 2.9790226000000075, 3.1957563999999365, 3.3955885999999964, 3.595498199999952, 3.795305600000006, 3.995130099999983, 4.19510379999997, 4.3948444999999765]"	178.1466958	178.1593083	179.6584297	NA	NA	NA	NA	NA	NA	NA	NA	"02"	"01"	"2023-12-14_12h50.44.881"	"BART_exp"	"2023.2.2"	60.050790958985	"2023-12-14 12h50.55.863297 +0100"	NA
"balloon.png"	53	0	26	26	12	179.7178552	NA	NA	NA	NA	NA	NA	NA	NA	NA	NA	NA	NA	179.6586934	179.7178552	179.7178552	179.7178552	179.7178552	179.7178552	0.0139169000000265	0.0139169000000265	0.0139169000000265	179.7178552	184.1416137	20	1	FALSE	"[0.07083333333333333, 0.07083333333333333, 0.07083333333333333, 0.07083333333333333, 0.07083333333333333, 0.07083333333333333, 0.07083333333333333, 0.07083333333333333, 0.07083333333333333, 0.07083333333333333, 0.07083333333333333, 0.07083333333333333, 0.07083333333333333, 0.07083333333333333, 0.07083333333333333, 0.07083333333333333, 0.07083333333333333, 0.07083333333333333, 0.07083333333333333, 0.07083333333333333, 0.05]"	"[-0.3975, -0.3975, -0.3975, -0.3975, -0.3975, -0.3975, -0.3975, -0.3975, -0.3975, -0.3975, -0.3975, -0.3975, -0.3975, -0.3975, -0.3975, -0.3975, -0.3975, -0.3975, -0.3975, -0.3975, -0.3016666666666667]"	"[1, 1, 1, 1, 1, 1, 1, 1, 1, 1, 1, 1, 1, 1, 1, 1, 1, 1, 1, 1, 0]"	"[0, 0, 0, 0, 0, 0, 0, 0, 0, 0, 0, 0, 0, 0, 0, 0, 0, 0, 0, 0, 0]"	"[0, 0, 0, 0, 0, 0, 0, 0, 0, 0, 0, 0, 0, 0, 0, 0, 0, 0, 0, 0, 1]"	"[0.13420259999998052, 0.5504836999999725, 0.7671949999999015, 0.98370639999996, 1.2004143999999997, 1.4168964999998934, 1.649671299999909, 1.86620599999992, 2.0826543999999103, 2.299477799999977, 2.532463999999891, 2.7490362999999434, 2.9492316999999275, 3.148978399999919, 3.348897899999997, 3.5485062999999855, 3.7150958999999375, 3.8818659999999454, 4.0816948999998885, 4.264819899999907, 4.481493199999932]"	20	"[0.08392100000003211, 0.5001994000000423, 0.7169121000000587, 0.9334239000000935, 1.1501414000000523, 1.3666218000000754, 1.5994099000000688, 1.8159306000000015, 2.032369200000062, 2.2492042000000083, 2.4821865000000116, 2.6987705000000233, 2.898954500000059, 3.0987310000000434, 3.298629300000016, 3.4982281000000057, 3.6648190000000795, 3.831583300000034, 4.031415000000038, 4.21455190000006]"	"[0.400017200000093, 0.5998946000000842, 0.8164594000000989, 1.0329437999999982, 1.2495537000000922, 1.46609890000002, 1.6824947000000066, 1.8989261000000397, 2.1322388000000956, 2.365443099999993, 2.581987500000082, 2.76524720000009, 2.981869700000061, 3.1816721000000143, 3.3649454000000105, 3.5646829000000935, 3.7312405000000126, 3.9311479000000418, 4.114375800000062, 4.297641400000089]"	184.1429616	184.1557378	185.6549713	NA	NA	NA	NA	NA	NA	NA	NA	"02"	"01"	"2023-12-14_12h50.44.881"	"BART_exp"	"2023.2.2"	60.050790958985	"2023-12-14 12h50.55.863297 +0100"	NA
"balloon.png"	57	0	27	27	13	185.7267981	NA	NA	NA	NA	NA	NA	NA	NA	NA	NA	NA	NA	185.6554967	185.7267981	185.7267981	185.7267981	185.7267981	185.7267981	0.0143166000000292	0.0143166000000292	0.0143166000000292	185.7267981	192.1028634	31	1.55	FALSE	"[0.060833333333333336, 0.060833333333333336, 0.060833333333333336, 0.060833333333333336, 0.060833333333333336, 0.060833333333333336, 0.060833333333333336, 0.060833333333333336, 0.060833333333333336, 0.060833333333333336, 0.060833333333333336, 0.060833333333333336, 0.060833333333333336, 0.060833333333333336, 0.060833333333333336, 0.060833333333333336, 0.060833333333333336, 0.060833333333333336, 0.060833333333333336, 0.060833333333333336, 0.060833333333333336, 0.060833333333333336, 0.060833333333333336, 0.060833333333333336, 0.060833333333333336, 0.060833333333333336, 0.060833333333333336, 0.060833333333333336, 0.060833333333333336, 0.060833333333333336, 0.060833333333333336, 0.051666666666666666]"	"[-0.3975, -0.3975, -0.3975, -0.3975, -0.3975, -0.3975, -0.3975, -0.3975, -0.3975, -0.3975, -0.3975, -0.3975, -0.3975, -0.3975, -0.3975, -0.3975, -0.3975, -0.3975, -0.3975, -0.3975, -0.3975, -0.3975, -0.3975, -0.3975, -0.3975, -0.3975, -0.3975, -0.3975, -0.3975, -0.3975, -0.3975, -0.26]"	"[1, 1, 1, 1, 1, 1, 1, 1, 1, 1, 1, 1, 1, 1, 1, 1, 1, 1, 1, 1, 1, 1, 1, 1, 1, 1, 1, 1, 1, 1, 1, 0]"	"[0, 0, 0, 0, 0, 0, 0, 0, 0, 0, 0, 0, 0, 0, 0, 0, 0, 0, 0, 0, 0, 0, 0, 0, 0, 0, 0, 0, 0, 0, 0, 0]"	"[0, 0, 0, 0, 0, 0, 0, 0, 0, 0, 0, 0, 0, 0, 0, 0, 0, 0, 0, 0, 0, 0, 0, 0, 0, 0, 0, 0, 0, 0, 0, 1]"	"[0.07230260000005728, 0.21692259999997532, 0.46633440000005066, 0.6666622000000189, 0.8831340000000409, 1.0996485000000575, 1.2829116999999997, 1.4998937000000296, 1.7159737000000632, 1.9158539999999675, 2.131941299999994, 2.348499400000037, 2.5652869000000464, 2.781865000000039, 3.016215699999975, 3.214704900000015, 3.4146173999999974, 3.59777930000007, 3.7812602999999854, 3.9810918000000584, 4.180682000000047, 4.364286200000038, 4.564237700000035, 4.76403270000003, 4.963785700000017, 5.163700100000028, 5.363586599999962, 5.563543800000048, 5.763412099999982, 5.963239499999986, 6.146404700000062, 6.445941100000027]"	31	"[0.0005158000000164975, 0.1545231000000058, 0.40394910000009077, 0.6042840000000069, 0.8207600000000639, 1.0373041999999941, 1.2205350000000408, 1.43752470000004, 1.6536020000000917, 1.8534728000000769, 2.0695669000000407, 2.2861132000000453, 2.502907700000037, 2.7194765000000416, 2.9538692000000992, 3.152325000000019, 3.3522528000000875, 3.535400000000095, 3.7188878000000614, 3.918718300000023, 4.118301599999995, 4.30190760000005, 4.501867100000027, 4.701656899999989, 4.901409199999989, 5.101319999999987, 5.3012023, 5.50116300000002, 5.701049500000067, 5.90086830000007, 6.084040200000004]"	"[0.05396070000006148, 0.2539149000000407, 0.4705185000000256, 0.7039408000000549, 0.9036240000000362, 1.1035318000000416, 1.3200115000000778, 1.5365333000000874, 1.7364033000000063, 1.9528066999999965, 2.1528033000000732, 2.3692098000000215, 2.5859623000000056, 2.819041000000084, 3.0355712000000494, 3.2187832000000753, 3.4185907000000952, 3.6186082000000397, 3.8017792000000554, 4.001574699999992, 4.2014767000000575, 4.401352200000019, 4.617970700000001, 4.801042000000052, 5.000825700000064, 5.200847700000054, 5.400786400000015, 5.600691400000073, 5.800486200000023, 5.96702479999999, 6.183605499999999]"	192.1044381	192.1169686	193.59987	193.6160747	NA	NA	NA	NA	NA	NA	NA	"02"	"01"	"2023-12-14_12h50.44.881"	"BART_exp"	"2023.2.2"	60.050790958985	"2023-12-14 12h50.55.863297 +0100"	NA
"balloon.png"	36	0	28	28	8	193.6160747	NA	NA	NA	NA	NA	NA	NA	NA	NA	NA	NA	NA	193.6001221	193.6160747	193.6160747	193.6160747	193.6160747	193.6160747	0.0117490999999745	0.0117490999999745	0.0117490999999745	193.6160747	201.2641715	37	1.8	TRUE	"[0.0008333333333333334, 0.0008333333333333334, 0.0008333333333333334, 0.0008333333333333334, 0.0008333333333333334, 0.0008333333333333334, 0.0008333333333333334, 0.0008333333333333334, 0.0008333333333333334, 0.0008333333333333334, 0.0008333333333333334, 0.0008333333333333334, 0.0008333333333333334, 0.0008333333333333334, 0.0008333333333333334, 0.0008333333333333334, 0.0008333333333333334, 0.0008333333333333334, 0.0008333333333333334, 0.0008333333333333334, 0.0008333333333333334, 0.0008333333333333334, 0.0008333333333333334, 0.0008333333333333334, 0.0008333333333333334, 0.0008333333333333334, 0.0008333333333333334, 0.0008333333333333334, 0.0008333333333333334, 0.0008333333333333334, 0.0008333333333333334, 0.0008333333333333334, 0.0008333333333333334, 0.0008333333333333334, 0.0008333333333333334, 0.0008333333333333334]"	"[-0.4008333333333333, -0.4008333333333333, -0.4008333333333333, -0.4008333333333333, -0.4008333333333333, -0.4008333333333333, -0.4008333333333333, -0.4008333333333333, -0.4008333333333333, -0.4008333333333333, -0.4008333333333333, -0.4008333333333333, -0.4008333333333333, -0.4008333333333333, -0.4008333333333333, -0.4008333333333333, -0.4008333333333333, -0.4008333333333333, -0.4008333333333333, -0.4008333333333333, -0.4008333333333333, -0.4008333333333333, -0.4008333333333333, -0.4008333333333333, -0.4008333333333333, -0.4008333333333333, -0.4008333333333333, -0.4008333333333333, -0.4008333333333333, -0.4008333333333333, -0.4008333333333333, -0.4008333333333333, -0.4008333333333333, -0.4008333333333333, -0.4008333333333333, -0.4008333333333333]"	"[1, 1, 1, 1, 1, 1, 1, 1, 1, 1, 1, 1, 1, 1, 1, 1, 1, 1, 1, 1, 1, 1, 1, 1, 1, 1, 1, 1, 1, 1, 1, 1, 1, 1, 1, 1]"	"[0, 0, 0, 0, 0, 0, 0, 0, 0, 0, 0, 0, 0, 0, 0, 0, 0, 0, 0, 0, 0, 0, 0, 0, 0, 0, 0, 0, 0, 0, 0, 0, 0, 0, 0, 0]"	"[0, 0, 0, 0, 0, 0, 0, 0, 0, 0, 0, 0, 0, 0, 0, 0, 0, 0, 0, 0, 0, 0, 0, 0, 0, 0, 0, 0, 0, 0, 0, 0, 0, 0, 0, 0]"	"[0.13378700000009758, 0.36688709999998537, 0.55024370000001, 0.7667443000000276, 0.9830704000000878, 1.1829064000000926, 1.4163532000000032, 1.6329293000000007, 1.8494338000000425, 2.0990377000000535, 2.282578400000034, 2.4823519999999917, 2.6822032000000036, 2.882177800000022, 3.0654809000000114, 3.248641399999997, 3.631675300000097, 3.8648537999999917, 4.047965500000032, 4.231247000000053, 4.4309330000000955, 4.647541700000033, 4.863887800000043, 5.063727500000027, 5.263653900000008, 5.480200800000034, 5.713635500000009, 5.946875100000057, 6.1466490999999905, 6.363261599999987, 6.564497600000095, 6.746182299999987, 6.946124900000086, 7.162663300000077, 7.345850799999994, 7.562544900000034]"	36	"[0.13107500000000982, 0.3641757000000325, 0.5475370999999996, 0.7640440000000126, 0.9803685000000542, 1.1802069999999958, 1.4136511000000382, 1.6302284000000782, 1.8467452000001003, 2.0963382000001047, 2.279872100000034, 2.4796706000000768, 2.6795125000001008, 2.8794887000000244, 3.062795000000051, 3.245954700000084, 3.6289772000000085, 3.862163500000065, 4.045268899999996, 4.22855190000007, 4.428231400000072, 4.644843600000058, 4.861188500000026, 5.061053900000047, 5.260946200000035, 5.477526000000012, 5.71094800000003, 5.944178500000021, 6.143957999999998, 6.3605627000000595, 6.561812300000042, 6.743483000000083, 6.943425100000013, 7.159959000000072, 7.3431511, 7.559848299999999]"	"[0.23062480000010055, 0.4139630000000807, 0.6470973000000413, 0.8468674000000647, 1.080168800000024, 1.296740800000066, 1.5298872000000756, 1.7297660000000405, 1.9459865000000036, 2.146126200000026, 2.379343300000073, 2.612544200000002, 2.795823500000097, 2.962264800000071, 3.162331800000061, 3.511940700000082, 3.7451499000000013, 3.9449668000000884, 4.1282302000000755, 4.328189600000087, 4.511259300000006, 4.7111494000000675, 4.927684200000044, 5.127490400000056, 5.327493600000025, 5.560624800000028, 5.793804200000068, 6.010299600000053, 6.243546800000104, 6.443342200000075, 6.6432071000000406, 6.826450100000102, 7.026312200000007, 7.242603099999997, 7.442699800000014, 7.642563800000062]"	201.2658554	201.2778322	202.7767088	NA	NA	NA	NA	NA	NA	NA	NA	"02"	"01"	"2023-12-14_12h50.44.881"	"BART_exp"	"2023.2.2"	60.050790958985	"2023-12-14 12h50.55.863297 +0100"	NA
"balloon.png"	79	0	29	29	18	202.8403089	NA	NA	NA	NA	NA	NA	NA	NA	NA	NA	NA	NA	202.776973	202.8403089	202.8403089	202.8403089	202.8403089	202.8403089	0.0129546000000573	0.0129546000000573	0.0129546000000573	202.8403089	210.7752998	35	1.75	FALSE	"[0.0075, 0.0075, 0.0075, 0.0075, 0.0075, 0.0075, 0.0075, 0.0075, 0.0075, 0.0075, 0.0075, 0.0075, 0.0075, 0.0075, 0.0075, 0.0075, 0.0075, 0.0075, 0.0075, 0.0075, 0.0075, 0.0075, 0.0075, 0.0075, 0.0075, 0.0075, 0.0075, 0.0075, 0.0075, 0.0075, 0.0075, 0.0075, 0.0075, 0.0075, 0.0075, 0.014166666666666666]"	"[-0.39, -0.39, -0.39, -0.39, -0.39, -0.39, -0.39, -0.39, -0.39, -0.39, -0.39, -0.39, -0.39, -0.39, -0.39, -0.39, -0.39, -0.39, -0.39, -0.39, -0.39, -0.39, -0.39, -0.39, -0.39, -0.39, -0.39, -0.39, -0.39, -0.39, -0.39, -0.39, -0.39, -0.39, -0.39, -0.3433333333333333]"	"[1, 1, 1, 1, 1, 1, 1, 1, 1, 1, 1, 1, 1, 1, 1, 1, 1, 1, 1, 1, 1, 1, 1, 1, 1, 1, 1, 1, 1, 1, 1, 1, 1, 1, 1, 0]"	"[0, 0, 0, 0, 0, 0, 0, 0, 0, 0, 0, 0, 0, 0, 0, 0, 0, 0, 0, 0, 0, 0, 0, 0, 0, 0, 0, 0, 0, 0, 0, 0, 0, 0, 0, 0]"	"[0, 0, 0, 0, 0, 0, 0, 0, 0, 0, 0, 0, 0, 0, 0, 0, 0, 0, 0, 0, 0, 0, 0, 0, 0, 0, 0, 0, 0, 0, 0, 0, 0, 0, 0, 1]"	"[0.16749049999998533, 0.36747969999998986, 0.5839959999999564, 0.78382959999999, 1.0003622999998925, 1.2336431999999604, 1.466905499999939, 1.683117399999901, 1.932788999999957, 2.133155399999964, 2.38305969999999, 2.5994666999999936, 2.8157363999999916, 3.049191399999927, 3.265768499999922, 3.4824026000000003, 3.682155899999998, 3.915022699999895, 4.148339699999951, 4.381358099999943, 4.597959699999933, 4.831088499999964, 5.047815899999932, 5.264112399999931, 5.480730299999891, 5.697519399999919, 5.897337399999969, 6.097262799999953, 6.313639799999919, 6.513551199999938, 6.7134933999999475, 6.930163999999991, 7.146188999999936, 7.3463738999998895, 7.5463854999999285, 7.996952199999896]"	35	"[0.11250119999999697, 0.31250330000000304, 0.5290231000000176, 0.728839999999991, 0.9453795000000582, 1.1786809000000176, 1.411941899999988, 1.6281407999999828, 1.877809700000057, 2.078179299999988, 2.328093899999999, 2.544487600000025, 2.7607578000000785, 2.994215000000054, 3.210792500000025, 3.4274356000000807, 3.627187700000036, 3.860051500000054, 4.093386399999986, 4.326395000000048, 4.542984600000068, 4.776111700000001, 4.99283980000007, 5.20913250000001, 5.425758100000053, 5.6425440000000435, 5.842353000000003, 6.042298600000095, 6.258665199999996, 6.458585599999992, 6.658526400000028, 6.875199100000032, 7.091209400000025, 7.29139500000008, 7.491433900000061]"	"[0.17883820000008654, 0.37881030000005467, 0.5953127000000222, 0.8284234999999853, 1.0449714000000085, 1.278242700000078, 1.5114720999999918, 1.7279256000000487, 1.9445156000000452, 2.177684500000055, 2.3942944000000352, 2.644057700000076, 2.8773317000000134, 3.0771078000000216, 3.2935760999999957, 3.510223500000052, 3.7267029000000775, 3.943274900000006, 4.176364300000046, 4.4096230000000105, 4.642713100000037, 4.8758525000000645, 5.10907700000007, 5.3088564000000815, 5.525410899999997, 5.742023099999983, 5.941903700000012, 6.141700200000059, 6.358329700000013, 6.558025900000075, 6.774721699999986, 6.991208300000039, 7.22435280000002, 7.407589099999996, 7.6074769000000515]"	210.7769906	210.7881276	212.2710591	212.2871525	NA	NA	NA	NA	NA	NA	NA	"02"	"01"	"2023-12-14_12h50.44.881"	"BART_exp"	"2023.2.2"	60.050790958985	"2023-12-14 12h50.55.863297 +0100"	NA
NA	NA	NA	NA	NA	NA	NA	NA	NA	NA	NA	NA	NA	NA	NA	NA	NA	NA	NA	NA	NA	NA	NA	NA	NA	NA	NA	NA	NA	NA	NA	NA	NA	NA	NA	NA	NA	NA	NA	NA	NA	NA	NA	NA	NA	NA	212.2711067	212.2871525	212.2871525	214.3367485	"space"	2.04338209999992	"None"	"02"	"01"	"2023-12-14_12h50.44.881"	"BART_exp"	"2023.2.2"	60.050790958985	"2023-12-14 12h50.55.863297 +0100"	NA
