"diceImage"	"d_number"	"dice_loop.thisRepN"	"dice_loop.thisTrialN"	"dice_loop.thisN"	"dice_loop.thisIndex"	"thisRow.t"	"notes"	"Start.started"	"text_start.started"	"continue_start.started"	"mouse_start.started"	"Start.stopped"	"mouse_start.x"	"mouse_start.y"	"mouse_start.leftButton"	"mouse_start.midButton"	"mouse_start.rightButton"	"mouse_start.time"	"trial.started"	"box_dice.started"	"text_dice_header.started"	"text_gain.started"	"value_gain.started"	"text_bank.started"	"value_bank.started"	"img_dice_1.started"	"img_dice_2.started"	"img_dice_3.started"	"img_dice_4.started"	"img_dice_5.started"	"img_dice_6.started"	"img_dice_1_2.started"	"img_dice_3_4.started"	"img_dice_5_6.started"	"img_dice_1_2_3.started"	"img_dice_4_5_6.started"	"img_dice_1_2_3_4.started"	"img_dice_2_3_4_5.started"	"img_dice_3_4_5_6.started"	"text_value_header.started"	"text_value_1000.started"	"text_value_500.started"	"text_value_200.started"	"text_value_100.started"	"mouse_task.started"	"gain_sound.started"	"img_dice_throw_trials.started"	"gain_sound.stopped"	"img_dice_throw_trials.stopped"	"trial.stopped"	"mouse_task.x"	"mouse_task.y"	"mouse_task.leftButton"	"mouse_task.midButton"	"mouse_task.rightButton"	"mouse_task.time"	"choice"	"gain"	"loss_sound.started"	"End.started"	"text_end.started"	"key_end.started"	"End.stopped"	"key_end.keys"	"key_end.rt"	"key_end.duration"	"participant"	"session"	"date"	"expName"	"psychopyVersion"	"frameRate"	"expStart"	"...75"
NA	NA	NA	NA	NA	NA	NA	NA	0.0468475999950897	0.0592233999923337	0.0592233999923337	0.0471863999991911	18.8363018999953	"[0.6398148148148148]"	"[-0.39814814814814814]"	"[1]"	"[0]"	"[0]"	"[18.788524000003235]"	NA	NA	NA	NA	NA	NA	NA	NA	NA	NA	NA	NA	NA	NA	NA	NA	NA	NA	NA	NA	NA	NA	NA	NA	NA	NA	NA	NA	NA	NA	NA	NA	NA	NA	NA	NA	NA	NA	NA	NA	NA	NA	NA	NA	NA	NA	NA	NA	28	"02"	"2024-02-19_13h50.29.249"	"GDT_exp"	"2023.2.3"	119.977012410956	"2024-02-19 13h50.58.522098 +0100"	NA
"dice_4.png"	4	0	0	0	3	18.9188514999987	NA	NA	NA	NA	NA	NA	NA	NA	NA	NA	NA	NA	18.8411729999934	18.9188514999987	18.9188514999987	18.9188514999987	18.9188514999987	18.9188514999987	18.9188514999987	18.9188514999987	18.9188514999987	18.9188514999987	18.9188514999987	18.9188514999987	18.9188514999987	18.9188514999987	18.9188514999987	18.9188514999987	18.9188514999987	18.9188514999987	18.9188514999987	18.9188514999987	18.9188514999987	18.9188514999987	18.9188514999987	18.9188514999987	18.9188514999987	18.9188514999987	0.0225119000097038	3.74943750000966	22.652425999986	5.24954910000088	24.227675999995	24.1885077999905	"[-0.24259259259259258, -0.6481481481481481]"	"[-0.362962962962963, 0.2574074074074074]"	"[1, 0]"	"[0, 0]"	"[0, 1]"	"[2.5289363999909256, 3.6956451000005472]"	4	100	NA	NA	NA	NA	NA	NA	NA	NA	28	"02"	"2024-02-19_13h50.29.249"	"GDT_exp"	"2023.2.3"	119.977012410956	"2024-02-19 13h50.58.522098 +0100"	NA
"dice_2.png"	2	0	1	1	1	24.227675999995	NA	NA	NA	NA	NA	NA	NA	NA	NA	NA	NA	NA	24.189314999996	24.227675999995	24.227675999995	24.227675999995	24.227675999995	24.227675999995	24.227675999995	24.227675999995	24.227675999995	24.227675999995	24.227675999995	24.227675999995	24.227675999995	24.227675999995	24.227675999995	24.227675999995	24.227675999995	24.227675999995	24.227675999995	24.227675999995	24.227675999995	24.227675999995	24.227675999995	24.227675999995	24.227675999995	24.227675999995	0.0145235000090906	2.08015900000464	26.34447489999	3.60546500000055	27.9111398999958	27.8634612999886	"[-0.31851851851851853, -0.5101851851851852]"	"[-0.36018518518518516, 0.30648148148148147]"	"[1, 0]"	"[0, 0]"	"[0, 1]"	"[1.2336312000115868, 2.0653659000090556]"	4	100	NA	NA	NA	NA	NA	NA	NA	NA	28	"02"	"2024-02-19_13h50.29.249"	"GDT_exp"	"2023.2.3"	119.977012410956	"2024-02-19 13h50.58.522098 +0100"	NA
"dice_5.png"	5	0	2	2	4	27.9111398999958	NA	NA	NA	NA	NA	NA	NA	NA	NA	NA	NA	NA	27.864044499991	27.9111398999958	27.9111398999958	27.9111398999958	27.9111398999958	27.9111398999958	27.9111398999958	27.9111398999958	27.9111398999958	27.9111398999958	27.9111398999958	27.9111398999958	27.9111398999958	27.9111398999958	27.9111398999958	27.9111398999958	27.9111398999958	27.9111398999958	27.9111398999958	27.9111398999958	27.9111398999958	27.9111398999958	27.9111398999958	27.9111398999958	27.9111398999958	27.9111398999958	0.0180235000007087	2.63071830000263	30.5696251999907	4.15589470000123	32.1280643999926	32.0807719999866	"[-0.10740740740740741, -0.5675925925925925]"	"[-0.25, 0.25462962962962965]"	"[1, 0]"	"[0, 0]"	"[0, 1]"	"[0.4041659000067739, 2.612581399996998]"	3	200	NA	NA	NA	NA	NA	NA	NA	NA	28	"02"	"2024-02-19_13h50.29.249"	"GDT_exp"	"2023.2.3"	119.977012410956	"2024-02-19 13h50.58.522098 +0100"	NA
"dice_6.png"	6	0	3	3	5	32.1280643999926	NA	NA	NA	NA	NA	NA	NA	NA	NA	NA	NA	NA	32.0813155999931	32.1280643999926	32.1280643999926	32.1280643999926	32.1280643999926	32.1280643999926	32.1280643999926	32.1280643999926	32.1280643999926	32.1280643999926	32.1280643999926	32.1280643999926	32.1280643999926	32.1280643999926	32.1280643999926	32.1280643999926	32.1280643999926	32.1280643999926	32.1280643999926	32.1280643999926	32.1280643999926	32.1280643999926	32.1280643999926	32.1280643999926	32.1280643999926	32.1280643999926	0.0179725000052713	NA	34.1366646999959	NA	35.6866555999877	35.6476461999991	"[-0.42685185185185187, -0.5944444444444444]"	"[-0.25277777777777777, 0.28703703703703703]"	"[1, 0]"	"[0, 0]"	"[0, 1]"	"[0.9289578000025358, 1.962194499996258]"	3	-200	1.98039830000198	NA	NA	NA	NA	NA	NA	NA	28	"02"	"2024-02-19_13h50.29.249"	"GDT_exp"	"2023.2.3"	119.977012410956	"2024-02-19 13h50.58.522098 +0100"	NA
"dice_1.png"	1	0	4	4	0	35.6866555999877	NA	NA	NA	NA	NA	NA	NA	NA	NA	NA	NA	NA	35.6482212999981	35.6866555999877	35.6866555999877	35.6866555999877	35.6866555999877	35.6866555999877	35.6866555999877	35.6866555999877	35.6866555999877	35.6866555999877	35.6866555999877	35.6866555999877	35.6866555999877	35.6866555999877	35.6866555999877	35.6866555999877	35.6866555999877	35.6866555999877	35.6866555999877	35.6866555999877	35.6866555999877	35.6866555999877	35.6866555999877	35.6866555999877	35.6866555999877	35.6866555999877	0.0150114999996731	NA	37.4368934999948	NA	38.9785462	38.9391315999965	"[-0.31203703703703706, -0.6296296296296297]"	"[-0.37037037037037035, 0.24537037037037038]"	"[1, 0]"	"[0, 0]"	"[0, 1]"	"[0.6565238000039244, 1.706544999993639]"	4	-100	1.7220124000014	NA	NA	NA	NA	NA	NA	NA	28	"02"	"2024-02-19_13h50.29.249"	"GDT_exp"	"2023.2.3"	119.977012410956	"2024-02-19 13h50.58.522098 +0100"	NA
"dice_3.png"	3	0	5	5	2	38.9785462	NA	NA	NA	NA	NA	NA	NA	NA	NA	NA	NA	NA	38.9396719999932	38.9785462	38.9785462	38.9785462	38.9785462	38.9785462	38.9785462	38.9785462	38.9785462	38.9785462	38.9785462	38.9785462	38.9785462	38.9785462	38.9785462	38.9785462	38.9785462	38.9785462	38.9785462	38.9785462	38.9785462	38.9785462	38.9785462	38.9785462	38.9785462	38.9785462	0.0147487999929581	1.09741380000196	40.1119373999973	2.59755350000341	41.6787141999957	41.6395474999881	"[-0.6185185185185185, -0.5314814814814814]"	"[-0.3712962962962963, 0.36203703703703705]"	"[1, 0]"	"[0, 0]"	"[0, 1]"	"[0.44911270000739023, 1.0824881000007736]"	4	100	NA	NA	NA	NA	NA	NA	NA	NA	28	"02"	"2024-02-19_13h50.29.249"	"GDT_exp"	"2023.2.3"	119.977012410956	"2024-02-19 13h50.58.522098 +0100"	NA
"dice_3.png"	3	1	0	6	2	41.6787141999957	NA	NA	NA	NA	NA	NA	NA	NA	NA	NA	NA	NA	41.6401171999896	41.6787141999957	41.6787141999957	41.6787141999957	41.6787141999957	41.6787141999957	41.6787141999957	41.6787141999957	41.6787141999957	41.6787141999957	41.6787141999957	41.6787141999957	41.6787141999957	41.6787141999957	41.6787141999957	41.6787141999957	41.6787141999957	41.6787141999957	41.6787141999957	41.6787141999957	41.6787141999957	41.6787141999957	41.6787141999957	41.6787141999957	41.6787141999957	41.6787141999957	0.0146813999890583	2.79732709999371	44.5040436999989	4.29742069999338	46.0873538999876	46.0401722999959	"[-0.31296296296296294, -0.7157407407407408]"	"[-0.3648148148148148, 0.24722222222222223]"	"[1, 0]"	"[0, 0]"	"[0, 1]"	"[1.94082280001021, 2.782571800009464]"	4	100	NA	NA	NA	NA	NA	NA	NA	NA	28	"02"	"2024-02-19_13h50.29.249"	"GDT_exp"	"2023.2.3"	119.977012410956	"2024-02-19 13h50.58.522098 +0100"	NA
"dice_5.png"	5	1	1	7	4	46.0873538999876	NA	NA	NA	NA	NA	NA	NA	NA	NA	NA	NA	NA	46.040777199989	46.0873538999876	46.0873538999876	46.0873538999876	46.0873538999876	46.0873538999876	46.0873538999876	46.0873538999876	46.0873538999876	46.0873538999876	46.0873538999876	46.0873538999876	46.0873538999876	46.0873538999876	46.0873538999876	46.0873538999876	46.0873538999876	46.0873538999876	46.0873538999876	46.0873538999876	46.0873538999876	46.0873538999876	46.0873538999876	46.0873538999876	46.0873538999876	46.0873538999876	0.0183748000126798	2.24694190001173	48.3624978999869	3.76369290000002	49.9127959999896	49.8732292999921	"[0.07962962962962963, -0.6425925925925926]"	"[-0.35185185185185186, 0.2574074074074074]"	"[1, 0]"	"[0, 0]"	"[0, 1]"	"[1.0613357000111137, 2.2281606000033207]"	4	100	NA	NA	NA	NA	NA	NA	NA	NA	28	"02"	"2024-02-19_13h50.29.249"	"GDT_exp"	"2023.2.3"	119.977012410956	"2024-02-19 13h50.58.522098 +0100"	NA
"dice_2.png"	2	1	2	8	1	49.9127959999896	NA	NA	NA	NA	NA	NA	NA	NA	NA	NA	NA	NA	49.8737673999858	49.9127959999896	49.9127959999896	49.9127959999896	49.9127959999896	49.9127959999896	49.9127959999896	49.9127959999896	49.9127959999896	49.9127959999896	49.9127959999896	49.9127959999896	49.9127959999896	49.9127959999896	49.9127959999896	49.9127959999896	49.9127959999896	49.9127959999896	49.9127959999896	49.9127959999896	49.9127959999896	49.9127959999896	49.9127959999896	49.9127959999896	49.9127959999896	49.9127959999896	0.0148335000121733	NA	50.9376930999861	NA	52.5127839999914	52.4737263999996	"[-0.06944444444444445, -0.6722222222222223]"	"[-0.2361111111111111, 0.24814814814814815]"	"[1, 0]"	"[0, 0]"	"[0, 1]"	"[0.14068939999560826, 0.9822224999952596]"	3	-200	0.997375100007048	NA	NA	NA	NA	NA	NA	NA	28	"02"	"2024-02-19_13h50.29.249"	"GDT_exp"	"2023.2.3"	119.977012410956	"2024-02-19 13h50.58.522098 +0100"	NA
"dice_4.png"	4	1	3	9	3	52.5127839999914	NA	NA	NA	NA	NA	NA	NA	NA	NA	NA	NA	NA	52.4742994999979	52.5127839999914	52.5127839999914	52.5127839999914	52.5127839999914	52.5127839999914	52.5127839999914	52.5127839999914	52.5127839999914	52.5127839999914	52.5127839999914	52.5127839999914	52.5127839999914	52.5127839999914	52.5127839999914	52.5127839999914	52.5127839999914	52.5127839999914	52.5127839999914	52.5127839999914	52.5127839999914	52.5127839999914	52.5127839999914	52.5127839999914	52.5127839999914	52.5127839999914	0.0149936999951024	1.80545749999874	54.3462466999918	3.33058740000706	55.9046796999901	55.865467599986	"[0.026851851851851852, -0.6527777777777778]"	"[-0.33425925925925926, 0.19444444444444445]"	"[1, 0]"	"[0, 0]"	"[0, 1]"	"[0.8401608999993186, 1.7901878999982728]"	4	100	NA	NA	NA	NA	NA	NA	NA	NA	28	"02"	"2024-02-19_13h50.29.249"	"GDT_exp"	"2023.2.3"	119.977012410956	"2024-02-19 13h50.58.522098 +0100"	NA
"dice_1.png"	1	1	4	10	0	55.9046796999901	NA	NA	NA	NA	NA	NA	NA	NA	NA	NA	NA	NA	55.8660087999888	55.9046796999901	55.9046796999901	55.9046796999901	55.9046796999901	55.9046796999901	55.9046796999901	55.9046796999901	55.9046796999901	55.9046796999901	55.9046796999901	55.9046796999901	55.9046796999901	55.9046796999901	55.9046796999901	55.9046796999901	55.9046796999901	55.9046796999901	55.9046796999901	55.9046796999901	55.9046796999901	55.9046796999901	55.9046796999901	55.9046796999901	55.9046796999901	55.9046796999901	0.0145729000068968	NA	58.0299607999914	NA	59.6049724999903	59.5572960999998	"[0.07407407407407407, -0.6574074074074074]"	"[-0.15092592592592594, 0.23425925925925925]"	"[1, 0]"	"[0, 0]"	"[0, 1]"	"[1.3574976999952924, 2.0826086000015493]"	2	-500	2.09728190000169	NA	NA	NA	NA	NA	NA	NA	28	"02"	"2024-02-19_13h50.29.249"	"GDT_exp"	"2023.2.3"	119.977012410956	"2024-02-19 13h50.58.522098 +0100"	NA
"dice_6.png"	6	1	5	11	5	59.6049724999903	NA	NA	NA	NA	NA	NA	NA	NA	NA	NA	NA	NA	59.5578446	59.6049724999903	59.6049724999903	59.6049724999903	59.6049724999903	59.6049724999903	59.6049724999903	59.6049724999903	59.6049724999903	59.6049724999903	59.6049724999903	59.6049724999903	59.6049724999903	59.6049724999903	59.6049724999903	59.6049724999903	59.6049724999903	59.6049724999903	59.6049724999903	59.6049724999903	59.6049724999903	59.6049724999903	59.6049724999903	59.6049724999903	59.6049724999903	59.6049724999903	0.0176859999919543	NA	60.463322599986	NA	62.0384456999891	61.9907870999887	"[-0.6111111111111112, -0.6546296296296297]"	"[-0.3490740740740741, 0.22314814814814815]"	"[1, 0]"	"[0, 0]"	"[0, 1]"	"[0.1459752000082517, 0.8128565000079107]"	4	-100	0.830618399995728	NA	NA	NA	NA	NA	NA	NA	28	"02"	"2024-02-19_13h50.29.249"	"GDT_exp"	"2023.2.3"	119.977012410956	"2024-02-19 13h50.58.522098 +0100"	NA
"dice_4.png"	4	2	0	12	3	62.0384456999891	NA	NA	NA	NA	NA	NA	NA	NA	NA	NA	NA	NA	61.9913220999879	62.0384456999891	62.0384456999891	62.0384456999891	62.0384456999891	62.0384456999891	62.0384456999891	62.0384456999891	62.0384456999891	62.0384456999891	62.0384456999891	62.0384456999891	62.0384456999891	62.0384456999891	62.0384456999891	62.0384456999891	62.0384456999891	62.0384456999891	62.0384456999891	62.0384456999891	62.0384456999891	62.0384456999891	62.0384456999891	62.0384456999891	62.0384456999891	62.0384456999891	0.0215748000046005	1.18069349999132	63.2385329999961	2.70580110000446	64.7970685999899	64.7575881999946	"[0.001851851851851852, -0.6074074074074074]"	"[-0.35555555555555557, 0.2388888888888889]"	"[1, 0]"	"[0, 0]"	"[0, 1]"	"[0.025559500005329028, 1.158977600003709]"	4	100	NA	NA	NA	NA	NA	NA	NA	NA	28	"02"	"2024-02-19_13h50.29.249"	"GDT_exp"	"2023.2.3"	119.977012410956	"2024-02-19 13h50.58.522098 +0100"	NA
"dice_6.png"	6	2	1	13	5	64.7970685999899	NA	NA	NA	NA	NA	NA	NA	NA	NA	NA	NA	NA	64.7581171999918	64.7970685999899	64.7970685999899	64.7970685999899	64.7970685999899	64.7970685999899	64.7970685999899	64.7970685999899	64.7970685999899	64.7970685999899	64.7970685999899	64.7970685999899	64.7970685999899	64.7970685999899	64.7970685999899	64.7970685999899	64.7970685999899	64.7970685999899	64.7970685999899	64.7970685999899	64.7970685999899	64.7970685999899	64.7970685999899	64.7970685999899	64.7970685999899	64.7970685999899	0.0143496999953641	2.51413319999119	67.347151799986	4.01431389999925	68.9222541999916	68.883067399991	"[-0.09444444444444444, -0.6601851851851852]"	"[-0.2796296296296296, 0.28888888888888886]"	"[1, 0]"	"[0, 0]"	"[0, 1]"	"[1.0662833000096725, 2.4995783000049414]"	3	200	NA	NA	NA	NA	NA	NA	NA	NA	28	"02"	"2024-02-19_13h50.29.249"	"GDT_exp"	"2023.2.3"	119.977012410956	"2024-02-19 13h50.58.522098 +0100"	NA
"dice_3.png"	3	2	2	14	2	68.9222541999916	NA	NA	NA	NA	NA	NA	NA	NA	NA	NA	NA	NA	68.883603299997	68.9222541999916	68.9222541999916	68.9222541999916	68.9222541999916	68.9222541999916	68.9222541999916	68.9222541999916	68.9222541999916	68.9222541999916	68.9222541999916	68.9222541999916	68.9222541999916	68.9222541999916	68.9222541999916	68.9222541999916	68.9222541999916	68.9222541999916	68.9222541999916	68.9222541999916	68.9222541999916	68.9222541999916	68.9222541999916	68.9222541999916	68.9222541999916	68.9222541999916	0.0149319000047399	2.88899060001131	71.8475551999873	4.38931230000162	73.4142387999891	73.375214899992	"[-0.44351851851851853, -0.19537037037037036, -0.5935185185185186]"	"[-0.2601851851851852, -0.3398148148148148, 0.28888888888888886]"	"[1, 1, 0]"	"[0, 0, 0]"	"[0, 0, 1]"	"[0.23184940000646748, 1.965284400008386, 2.8736848999978974]"	4	100	NA	NA	NA	NA	NA	NA	NA	NA	28	"02"	"2024-02-19_13h50.29.249"	"GDT_exp"	"2023.2.3"	119.977012410956	"2024-02-19 13h50.58.522098 +0100"	NA
"dice_2.png"	2	2	3	15	1	73.4142387999891	NA	NA	NA	NA	NA	NA	NA	NA	NA	NA	NA	NA	73.3759327999869	73.4142387999891	73.4142387999891	73.4142387999891	73.4142387999891	73.4142387999891	73.4142387999891	73.4142387999891	73.4142387999891	73.4142387999891	73.4142387999891	73.4142387999891	73.4142387999891	73.4142387999891	73.4142387999891	73.4142387999891	73.4142387999891	73.4142387999891	73.4142387999891	73.4142387999891	73.4142387999891	73.4142387999891	73.4142387999891	73.4142387999891	73.4142387999891	73.4142387999891	0.0147258000069996	3.9554344000062	77.4144707999949	5.46384340000805	78.972929399999	78.9335973999987	"[-0.5805555555555556, -0.6148148148148148]"	"[-0.325, 0.2518518518518518]"	"[1, 0]"	"[0, 0]"	"[0, 1]"	"[2.9737802000017837, 3.94068509999488]"	4	100	NA	NA	NA	NA	NA	NA	NA	NA	28	"02"	"2024-02-19_13h50.29.249"	"GDT_exp"	"2023.2.3"	119.977012410956	"2024-02-19 13h50.58.522098 +0100"	NA
"dice_5.png"	5	2	4	16	4	78.972929399999	NA	NA	NA	NA	NA	NA	NA	NA	NA	NA	NA	NA	78.9341193999862	78.972929399999	78.972929399999	78.972929399999	78.972929399999	78.972929399999	78.972929399999	78.972929399999	78.972929399999	78.972929399999	78.972929399999	78.972929399999	78.972929399999	78.972929399999	78.972929399999	78.972929399999	78.972929399999	78.972929399999	78.972929399999	78.972929399999	78.972929399999	78.972929399999	78.972929399999	78.972929399999	78.972929399999	78.972929399999	0.0144952999980887	2.84745400000247	81.8481108999986	4.35594100000162	83.3900137999881	83.3505582999933	"[0.05277777777777778, -0.6314814814814815]"	"[-0.36574074074074076, 0.23703703703703705]"	"[1, 0]"	"[0, 0]"	"[0, 1]"	"[1.5995784999977332, 2.832880200003274]"	4	100	NA	NA	NA	NA	NA	NA	NA	NA	28	"02"	"2024-02-19_13h50.29.249"	"GDT_exp"	"2023.2.3"	119.977012410956	"2024-02-19 13h50.58.522098 +0100"	NA
"dice_1.png"	1	2	5	17	0	83.3900137999881	NA	NA	NA	NA	NA	NA	NA	NA	NA	NA	NA	NA	83.3511083999911	83.3900137999881	83.3900137999881	83.3900137999881	83.3900137999881	83.3900137999881	83.3900137999881	83.3900137999881	83.3900137999881	83.3900137999881	83.3900137999881	83.3900137999881	83.3900137999881	83.3900137999881	83.3900137999881	83.3900137999881	83.3900137999881	83.3900137999881	83.3900137999881	83.3900137999881	83.3900137999881	83.3900137999881	83.3900137999881	83.3900137999881	83.3900137999881	83.3900137999881	0.0144815999956336	NA	85.1315808999934	NA	86.6735657999961	86.6608912999945	"[-0.3175925925925926, -0.6]"	"[-0.34444444444444444, 0.23333333333333334]"	"[1, 0]"	"[0, 0]"	"[0, 1]"	"[1.032661699995515, 1.6992596000054618]"	4	-100	1.7140187999903	NA	NA	NA	NA	NA	NA	NA	28	"02"	"2024-02-19_13h50.29.249"	"GDT_exp"	"2023.2.3"	119.977012410956	"2024-02-19 13h50.58.522098 +0100"	NA
NA	NA	NA	NA	NA	NA	NA	NA	NA	NA	NA	NA	NA	NA	NA	NA	NA	NA	NA	NA	NA	NA	NA	NA	NA	NA	NA	NA	NA	NA	NA	NA	NA	NA	NA	NA	NA	NA	NA	NA	NA	NA	NA	NA	NA	NA	NA	NA	NA	NA	NA	NA	NA	NA	NA	NA	NA	NA	NA	NA	86.6613352999993	86.6735657999961	86.6735657999961	95.7244882999948	"space"	9.04913649999071	"None"	28	"02"	"2024-02-19_13h50.29.249"	"GDT_exp"	"2023.2.3"	119.977012410956	"2024-02-19 13h50.58.522098 +0100"	NA
