"diceImage"	"d_number"	"dice_loop.thisRepN"	"dice_loop.thisTrialN"	"dice_loop.thisN"	"dice_loop.thisIndex"	"thisRow.t"	"notes"	"Start.started"	"text_start.started"	"continue_start.started"	"mouse_start.started"	"Start.stopped"	"mouse_start.x"	"mouse_start.y"	"mouse_start.leftButton"	"mouse_start.midButton"	"mouse_start.rightButton"	"mouse_start.time"	"trial.started"	"box_dice.started"	"text_dice_header.started"	"text_gain.started"	"value_gain.started"	"text_bank.started"	"value_bank.started"	"img_dice_1.started"	"img_dice_2.started"	"img_dice_3.started"	"img_dice_4.started"	"img_dice_5.started"	"img_dice_6.started"	"img_dice_1_2.started"	"img_dice_3_4.started"	"img_dice_5_6.started"	"img_dice_1_2_3.started"	"img_dice_4_5_6.started"	"img_dice_1_2_3_4.started"	"img_dice_2_3_4_5.started"	"img_dice_3_4_5_6.started"	"text_value_header.started"	"text_value_1000.started"	"text_value_500.started"	"text_value_200.started"	"text_value_100.started"	"mouse_task.started"	"gain_sound.started"	"img_dice_throw_trials.started"	"gain_sound.stopped"	"img_dice_throw_trials.stopped"	"trial.stopped"	"mouse_task.x"	"mouse_task.y"	"mouse_task.leftButton"	"mouse_task.midButton"	"mouse_task.rightButton"	"mouse_task.time"	"choice"	"gain"	"loss_sound.started"	"End.started"	"text_end.started"	"key_end.started"	"End.stopped"	"key_end.keys"	"key_end.rt"	"key_end.duration"	"participant"	"session"	"date"	"expName"	"psychopyVersion"	"frameRate"	"expStart"	"...75"
NA	NA	NA	NA	NA	NA	NA	NA	0.00119799992535263	0.00814559997525066	0.00814559997525066	0.001496700104326	61.0052614999004	"[-0.08425925925925926]"	"[0.19444444444444445]"	"[0]"	"[0]"	"[1]"	"[61.00323989999015]"	NA	NA	NA	NA	NA	NA	NA	NA	NA	NA	NA	NA	NA	NA	NA	NA	NA	NA	NA	NA	NA	NA	NA	NA	NA	NA	NA	NA	NA	NA	NA	NA	NA	NA	NA	NA	NA	NA	NA	NA	NA	NA	NA	NA	NA	NA	NA	NA	36	"02"	"2024-02-28_15h37.35.290"	"GDT_exp"	"2023.2.3"	122.507583202268	"2024-02-28 15h37.52.298627 +0100"	NA
"dice_2.png"	2	0	0	0	1	61.0796446999302	NA	NA	NA	NA	NA	NA	NA	NA	NA	NA	NA	NA	61.0111294999951	61.0796446999302	61.0796446999302	61.0796446999302	61.0796446999302	61.0796446999302	61.0796446999302	61.0796446999302	61.0796446999302	61.0796446999302	61.0796446999302	61.0796446999302	61.0796446999302	61.0796446999302	61.0796446999302	61.0796446999302	61.0796446999302	61.0796446999302	61.0796446999302	61.0796446999302	61.0796446999302	61.0796446999302	61.0796446999302	61.0796446999302	61.0796446999302	61.0796446999302	0.0237632000353187	3.81357370002661	64.8755288999528	5.317742299987	66.4089619999286	66.3807119999547	"[-0.24537037037037038, -0.24537037037037038]"	"[-0.35185185185185186, -0.35185185185185186]"	"[1, 0]"	"[0, 0]"	"[0, 1]"	"[3.3287711000302806, 3.7582512999651954]"	4	100	NA	NA	NA	NA	NA	NA	NA	NA	36	"02"	"2024-02-28_15h37.35.290"	"GDT_exp"	"2023.2.3"	122.507583202268	"2024-02-28 15h37.52.298627 +0100"	NA
"dice_5.png"	5	0	1	1	4	66.4089619999286	NA	NA	NA	NA	NA	NA	NA	NA	NA	NA	NA	NA	66.381525099976	66.4089619999286	66.4089619999286	66.4089619999286	66.4089619999286	66.4089619999286	66.4089619999286	66.4089619999286	66.4089619999286	66.4089619999286	66.4089619999286	66.4089619999286	66.4089619999286	66.4089619999286	66.4089619999286	66.4089619999286	66.4089619999286	66.4089619999286	66.4089619999286	66.4089619999286	66.4089619999286	66.4089619999286	66.4089619999286	66.4089619999286	66.4089619999286	66.4089619999286	0.00871610001195222	0.73919389990624	67.1755113999825	2.25301939994097	68.7215727999574	68.6904753999552	"[-0.2537037037037037, -0.2537037037037037]"	"[-0.3592592592592593, -0.3592592592592593]"	"[1, 0]"	"[0, 0]"	"[0, 1]"	"[0.2878908000420779, 0.7302186000160873]"	4	100	NA	NA	NA	NA	NA	NA	NA	NA	36	"02"	"2024-02-28_15h37.35.290"	"GDT_exp"	"2023.2.3"	122.507583202268	"2024-02-28 15h37.52.298627 +0100"	NA
"dice_6.png"	6	0	2	2	5	68.7215727999574	NA	NA	NA	NA	NA	NA	NA	NA	NA	NA	NA	NA	68.6910354999127	68.7215727999574	68.7215727999574	68.7215727999574	68.7215727999574	68.7215727999574	68.7215727999574	68.7215727999574	68.7215727999574	68.7215727999574	68.7215727999574	68.7215727999574	68.7215727999574	68.7215727999574	68.7215727999574	68.7215727999574	68.7215727999574	68.7215727999574	68.7215727999574	68.7215727999574	68.7215727999574	68.7215727999574	68.7215727999574	68.7215727999574	68.7215727999574	68.7215727999574	0.0120109999552369	0.599791599903256	69.3465236999327	2.11989579990041	70.9016658999026	70.8698605999816	"[0.06481481481481481, 0.06481481481481481]"	"[-0.3527777777777778, -0.3527777777777778]"	"[1, 0]"	"[0, 0]"	"[0, 1]"	"[0.1867801999906078, 0.5875889000017196]"	4	100	NA	NA	NA	NA	NA	NA	NA	NA	36	"02"	"2024-02-28_15h37.35.290"	"GDT_exp"	"2023.2.3"	122.507583202268	"2024-02-28 15h37.52.298627 +0100"	NA
"dice_3.png"	3	0	3	3	2	70.9016658999026	NA	NA	NA	NA	NA	NA	NA	NA	NA	NA	NA	NA	70.8705057000043	70.9016658999026	70.9016658999026	70.9016658999026	70.9016658999026	70.9016658999026	70.9016658999026	70.9016658999026	70.9016658999026	70.9016658999026	70.9016658999026	70.9016658999026	70.9016658999026	70.9016658999026	70.9016658999026	70.9016658999026	70.9016658999026	70.9016658999026	70.9016658999026	70.9016658999026	70.9016658999026	70.9016658999026	70.9016658999026	70.9016658999026	70.9016658999026	70.9016658999026	0.0119614999275655	1.3480432999786	72.2720031999052	2.86747739999555	73.8276638999814	73.7907930999063	"[-0.5842592592592593, -0.5824074074074074]"	"[-0.35555555555555557, -0.3527777777777778]"	"[1, 0]"	"[0, 0]"	"[0, 1]"	"[1.0268769999966025, 1.3358594999881461]"	4	100	NA	NA	NA	NA	NA	NA	NA	NA	36	"02"	"2024-02-28_15h37.35.290"	"GDT_exp"	"2023.2.3"	122.507583202268	"2024-02-28 15h37.52.298627 +0100"	NA
"dice_1.png"	1	0	4	4	0	73.8276638999814	NA	NA	NA	NA	NA	NA	NA	NA	NA	NA	NA	NA	73.7913874000078	73.8276638999814	73.8276638999814	73.8276638999814	73.8276638999814	73.8276638999814	73.8276638999814	73.8276638999814	73.8276638999814	73.8276638999814	73.8276638999814	73.8276638999814	73.8276638999814	73.8276638999814	73.8276638999814	73.8276638999814	73.8276638999814	73.8276638999814	73.8276638999814	73.8276638999814	73.8276638999814	73.8276638999814	73.8276638999814	73.8276638999814	73.8276638999814	73.8276638999814	0.0121258998988196	NA	74.4996046999004	NA	76.0325836999109	76.0035171000054	"[-0.21666666666666667, -0.21666666666666667, -0.3037037037037037]"	"[-0.34074074074074073, -0.34074074074074073, -0.34629629629629627]"	"[1, 0, 1]"	"[0, 0, 0]"	"[0, 1, 0]"	"[0.23357400007080287, 0.6389956000493839, 2.1313419999787584]"	4	-100	0.651404499891214	NA	NA	NA	NA	NA	NA	NA	36	"02"	"2024-02-28_15h37.35.290"	"GDT_exp"	"2023.2.3"	122.507583202268	"2024-02-28 15h37.52.298627 +0100"	NA
"dice_4.png"	4	0	5	5	3	76.0325836999109	NA	NA	NA	NA	NA	NA	NA	NA	NA	NA	NA	NA	76.0041977999499	76.0325836999109	76.0325836999109	76.0325836999109	76.0325836999109	76.0325836999109	76.0325836999109	76.0325836999109	76.0325836999109	76.0325836999109	76.0325836999109	76.0325836999109	76.0325836999109	76.0325836999109	76.0325836999109	76.0325836999109	76.0325836999109	76.0325836999109	76.0325836999109	76.0325836999109	76.0325836999109	76.0325836999109	76.0325836999109	76.0325836999109	76.0325836999109	76.0325836999109	0.0088551000226289	0.523780000046827	76.5833308999427	2.04453519999515	78.1287683999399	78.1003201999702	"[-0.3037037037037037]"	"[-0.34629629629629627]"	"[0]"	"[0]"	"[1]"	"[0.5147181999636814]"	4	100	NA	NA	NA	NA	NA	NA	NA	NA	36	"02"	"2024-02-28_15h37.35.290"	"GDT_exp"	"2023.2.3"	122.507583202268	"2024-02-28 15h37.52.298627 +0100"	NA
"dice_5.png"	5	1	0	6	4	78.1287683999399	NA	NA	NA	NA	NA	NA	NA	NA	NA	NA	NA	NA	78.100893799914	78.1287683999399	78.1287683999399	78.1287683999399	78.1287683999399	78.1287683999399	78.1287683999399	78.1287683999399	78.1287683999399	78.1287683999399	78.1287683999399	78.1287683999399	78.1287683999399	78.1287683999399	78.1287683999399	78.1287683999399	78.1287683999399	78.1287683999399	78.1287683999399	78.1287683999399	78.1287683999399	78.1287683999399	78.1287683999399	78.1287683999399	78.1287683999399	78.1287683999399	0.0090417000465095	0.586315599968657	78.7450202999171	2.10891690000426	80.2955742999911	80.2597754999297	"[-0.2962962962962963, -0.2962962962962963]"	"[-0.34629629629629627, -0.34629629629629627]"	"[1, 0]"	"[0, 0]"	"[0, 1]"	"[0.20279030001256615, 0.5769384000450373]"	4	100	NA	NA	NA	NA	NA	NA	NA	NA	36	"02"	"2024-02-28_15h37.35.290"	"GDT_exp"	"2023.2.3"	122.507583202268	"2024-02-28 15h37.52.298627 +0100"	NA
"dice_2.png"	2	1	1	7	1	80.2955742999911	NA	NA	NA	NA	NA	NA	NA	NA	NA	NA	NA	NA	80.2606064999709	80.2955742999911	80.2955742999911	80.2955742999911	80.2955742999911	80.2955742999911	80.2955742999911	80.2955742999911	80.2955742999911	80.2955742999911	80.2955742999911	80.2955742999911	80.2955742999911	80.2955742999911	80.2955742999911	80.2955742999911	80.2955742999911	80.2955742999911	80.2955742999911	80.2955742999911	80.2955742999911	80.2955742999911	80.2955742999911	80.2955742999911	80.2955742999911	80.2955742999911	0.01565539999865	NA	81.0015284999972	NA	82.5367187999655	82.5083416999551	"[0.024074074074074074, 0.024074074074074074, 0.024074074074074074]"	"[-0.35555555555555557, -0.35555555555555557, -0.35555555555555557]"	"[1, 0, 1]"	"[0, 0, 0]"	"[0, 1, 0]"	"[0.26486340002156794, 0.6690291999839246, 2.107460799976252]"	4	-100	0.68488570000045	NA	NA	NA	NA	NA	NA	NA	36	"02"	"2024-02-28_15h37.35.290"	"GDT_exp"	"2023.2.3"	122.507583202268	"2024-02-28 15h37.52.298627 +0100"	NA
"dice_1.png"	1	1	2	8	0	82.5367187999655	NA	NA	NA	NA	NA	NA	NA	NA	NA	NA	NA	NA	82.5089327999158	82.5367187999655	82.5367187999655	82.5367187999655	82.5367187999655	82.5367187999655	82.5367187999655	82.5367187999655	82.5367187999655	82.5367187999655	82.5367187999655	82.5367187999655	82.5367187999655	82.5367187999655	82.5367187999655	82.5367187999655	82.5367187999655	82.5367187999655	82.5367187999655	82.5367187999655	82.5367187999655	82.5367187999655	82.5367187999655	82.5367187999655	82.5367187999655	82.5367187999655	0.00875560007989406	NA	83.3286444999976	NA	84.8748594999779	84.8462225999683	"[0.024074074074074074, 0.024074074074074074]"	"[-0.35555555555555557, -0.35555555555555557]"	"[1, 0]"	"[0, 0]"	"[0, 1]"	"[0.3269698000513017, 0.755296100047417]"	4	-100	0.76423440000508	NA	NA	NA	NA	NA	NA	NA	36	"02"	"2024-02-28_15h37.35.290"	"GDT_exp"	"2023.2.3"	122.507583202268	"2024-02-28 15h37.52.298627 +0100"	NA
"dice_3.png"	3	1	3	9	2	84.8748594999779	NA	NA	NA	NA	NA	NA	NA	NA	NA	NA	NA	NA	84.8469639999093	84.8748594999779	84.8748594999779	84.8748594999779	84.8748594999779	84.8748594999779	84.8748594999779	84.8748594999779	84.8748594999779	84.8748594999779	84.8748594999779	84.8748594999779	84.8748594999779	84.8748594999779	84.8748594999779	84.8748594999779	84.8748594999779	84.8748594999779	84.8748594999779	84.8748594999779	84.8748594999779	84.8748594999779	84.8748594999779	84.8748594999779	84.8748594999779	84.8748594999779	0.00906940002460032	0.627626900095493	85.5303105999483	2.13449620001484	87.0685516999802	87.040301400004	"[0.10833333333333334, 0.10833333333333334]"	"[-0.3388888888888889, -0.3388888888888889]"	"[1, 0]"	"[0, 0]"	"[0, 1]"	"[0.3387561000417918, 0.6183597999624908]"	4	100	NA	NA	NA	NA	NA	NA	NA	NA	36	"02"	"2024-02-28_15h37.35.290"	"GDT_exp"	"2023.2.3"	122.507583202268	"2024-02-28 15h37.52.298627 +0100"	NA
"dice_6.png"	6	1	4	10	5	87.0685516999802	NA	NA	NA	NA	NA	NA	NA	NA	NA	NA	NA	NA	87.0408460999606	87.0685516999802	87.0685516999802	87.0685516999802	87.0685516999802	87.0685516999802	87.0685516999802	87.0685516999802	87.0685516999802	87.0685516999802	87.0685516999802	87.0685516999802	87.0685516999802	87.0685516999802	87.0685516999802	87.0685516999802	87.0685516999802	87.0685516999802	87.0685516999802	87.0685516999802	87.0685516999802	87.0685516999802	87.0685516999802	87.0685516999802	87.0685516999802	87.0685516999802	0.00876449991483241	0.599710899987258	87.7000374000054	2.11384319991339	89.2421210999601	89.2110266999807	"[0.10555555555555556, 0.10555555555555556]"	"[-0.3398148148148148, -0.3398148148148148]"	"[1, 0]"	"[0, 0]"	"[0, 1]"	"[0.18391659995540977, 0.5907429999206215]"	4	100	NA	NA	NA	NA	NA	NA	NA	NA	36	"02"	"2024-02-28_15h37.35.290"	"GDT_exp"	"2023.2.3"	122.507583202268	"2024-02-28 15h37.52.298627 +0100"	NA
"dice_4.png"	4	1	5	11	3	89.2421210999601	NA	NA	NA	NA	NA	NA	NA	NA	NA	NA	NA	NA	89.2115942999953	89.2421210999601	89.2421210999601	89.2421210999601	89.2421210999601	89.2421210999601	89.2421210999601	89.2421210999601	89.2421210999601	89.2421210999601	89.2421210999601	89.2421210999601	89.2421210999601	89.2421210999601	89.2421210999601	89.2421210999601	89.2421210999601	89.2421210999601	89.2421210999601	89.2421210999601	89.2421210999601	89.2421210999601	89.2421210999601	89.2421210999601	89.2421210999601	89.2421210999601	0.0109443999826908	0.635729999979958	89.9075391999213	2.14631820004433	91.4472587999189	91.4114630999975	"[0.10555555555555556, 0.10555555555555556]"	"[-0.3398148148148148, -0.3398148148148148]"	"[1, 0]"	"[0, 0]"	"[0, 1]"	"[0.2163578000618145, 0.6247936000581831]"	4	100	NA	NA	NA	NA	NA	NA	NA	NA	36	"02"	"2024-02-28_15h37.35.290"	"GDT_exp"	"2023.2.3"	122.507583202268	"2024-02-28 15h37.52.298627 +0100"	NA
"dice_2.png"	2	2	0	12	1	91.4472587999189	NA	NA	NA	NA	NA	NA	NA	NA	NA	NA	NA	NA	91.4120839999523	91.4472587999189	91.4472587999189	91.4472587999189	91.4472587999189	91.4472587999189	91.4472587999189	91.4472587999189	91.4472587999189	91.4472587999189	91.4472587999189	91.4472587999189	91.4472587999189	91.4472587999189	91.4472587999189	91.4472587999189	91.4472587999189	91.4472587999189	91.4472587999189	91.4472587999189	91.4472587999189	91.4472587999189	91.4472587999189	91.4472587999189	91.4472587999189	91.4472587999189	0.0138300999533385	0.69512799999211	92.1657075999538	2.22276869998313	93.7270482999738	93.6939166999655	"[-0.55, -0.55]"	"[-0.3425925925925926, -0.3425925925925926]"	"[1, 0]"	"[0, 0]"	"[0, 1]"	"[0.28801839996594936, 0.6811368999769911]"	4	100	NA	NA	NA	NA	NA	NA	NA	NA	36	"02"	"2024-02-28_15h37.35.290"	"GDT_exp"	"2023.2.3"	122.507583202268	"2024-02-28 15h37.52.298627 +0100"	NA
"dice_4.png"	4	2	1	13	3	93.7270482999738	NA	NA	NA	NA	NA	NA	NA	NA	NA	NA	NA	NA	93.6944693999831	93.7270482999738	93.7270482999738	93.7270482999738	93.7270482999738	93.7270482999738	93.7270482999738	93.7270482999738	93.7270482999738	93.7270482999738	93.7270482999738	93.7270482999738	93.7270482999738	93.7270482999738	93.7270482999738	93.7270482999738	93.7270482999738	93.7270482999738	93.7270482999738	93.7270482999738	93.7270482999738	93.7270482999738	93.7270482999738	93.7270482999738	93.7270482999738	93.7270482999738	0.0129814998945221	0.697829299955629	94.4526192999911	2.21868019993417	96.0062381000025	95.9715708999429	"[-0.55, -0.55]"	"[-0.3425925925925926, -0.3425925925925926]"	"[1, 0]"	"[0, 0]"	"[0, 1]"	"[0.2738460999680683, 0.6859154000412673]"	4	100	NA	NA	NA	NA	NA	NA	NA	NA	36	"02"	"2024-02-28_15h37.35.290"	"GDT_exp"	"2023.2.3"	122.507583202268	"2024-02-28 15h37.52.298627 +0100"	NA
"dice_6.png"	6	2	2	14	5	96.0062381000025	NA	NA	NA	NA	NA	NA	NA	NA	NA	NA	NA	NA	95.9721813999349	96.0062381000025	96.0062381000025	96.0062381000025	96.0062381000025	96.0062381000025	96.0062381000025	96.0062381000025	96.0062381000025	96.0062381000025	96.0062381000025	96.0062381000025	96.0062381000025	96.0062381000025	96.0062381000025	96.0062381000025	96.0062381000025	96.0062381000025	96.0062381000025	96.0062381000025	96.0062381000025	96.0062381000025	96.0062381000025	96.0062381000025	96.0062381000025	96.0062381000025	0.0131435999646783	NA	96.794438199955	NA	98.3534020999214	98.3230824999046	"[-0.55, -0.55]"	"[-0.3425925925925926, -0.3425925925925926]"	"[1, 0]"	"[0, 0]"	"[0, 1]"	"[0.3239462999626994, 0.7519753000233322]"	4	-100	0.765310299932025	NA	NA	NA	NA	NA	NA	NA	36	"02"	"2024-02-28_15h37.35.290"	"GDT_exp"	"2023.2.3"	122.507583202268	"2024-02-28 15h37.52.298627 +0100"	NA
"dice_5.png"	5	2	3	15	4	98.3534020999214	NA	NA	NA	NA	NA	NA	NA	NA	NA	NA	NA	NA	98.3237054999918	98.3534020999214	98.3534020999214	98.3534020999214	98.3534020999214	98.3534020999214	98.3534020999214	98.3534020999214	98.3534020999214	98.3534020999214	98.3534020999214	98.3534020999214	98.3534020999214	98.3534020999214	98.3534020999214	98.3534020999214	98.3534020999214	98.3534020999214	98.3534020999214	98.3534020999214	98.3534020999214	98.3534020999214	98.3534020999214	98.3534020999214	98.3534020999214	98.3534020999214	0.0100214000558481	NA	99.1079508999828	NA	100.644146899926	100.612037999905	"[-0.5453703703703704, -0.5453703703703704]"	"[-0.34074074074074073, -0.34074074074074073]"	"[1, 0]"	"[0, 0]"	"[0, 1]"	"[0.31704170000739396, 0.7168940000701696]"	4	-100	0.727090700063854	NA	NA	NA	NA	NA	NA	NA	36	"02"	"2024-02-28_15h37.35.290"	"GDT_exp"	"2023.2.3"	122.507583202268	"2024-02-28 15h37.52.298627 +0100"	NA
"dice_3.png"	3	2	4	16	2	100.644146899926	NA	NA	NA	NA	NA	NA	NA	NA	NA	NA	NA	NA	100.612743899925	100.644146899926	100.644146899926	100.644146899926	100.644146899926	100.644146899926	100.644146899926	100.644146899926	100.644146899926	100.644146899926	100.644146899926	100.644146899926	100.644146899926	100.644146899926	100.644146899926	100.644146899926	100.644146899926	100.644146899926	100.644146899926	100.644146899926	100.644146899926	100.644146899926	100.644146899926	100.644146899926	100.644146899926	100.644146899926	0.0105342000024393	0.778350699925795	101.451651299954	2.29793629993219	102.994813699974	102.962048199959	"[-0.6157407407407407, -0.6157407407407407, -0.6157407407407407]"	"[-0.35648148148148145, -0.35648148148148145, -0.35648148148148145]"	"[1, 0, 1]"	"[0, 0, 0]"	"[0, 1, 0]"	"[0.11678819998633116, 0.7676197000546381, 2.3268483999418095]"	4	100	NA	NA	NA	NA	NA	NA	NA	NA	36	"02"	"2024-02-28_15h37.35.290"	"GDT_exp"	"2023.2.3"	122.507583202268	"2024-02-28 15h37.52.298627 +0100"	NA
"dice_1.png"	1	2	5	17	0	102.994813699974	NA	NA	NA	NA	NA	NA	NA	NA	NA	NA	NA	NA	102.962674699957	102.994813699974	102.994813699974	102.994813699974	102.994813699974	102.994813699974	102.994813699974	102.994813699974	102.994813699974	102.994813699974	102.994813699974	102.994813699974	102.994813699974	102.994813699974	102.994813699974	102.994813699974	102.994813699974	102.994813699974	102.994813699974	102.994813699974	102.994813699974	102.994813699974	102.994813699974	102.994813699974	102.994813699974	102.994813699974	0.0109100000699982	0.454188100062311	103.47366499994	1.97243439999875	105.001370599959	104.996133199893	"[-0.6157407407407407]"	"[-0.35648148148148145]"	"[0]"	"[0]"	"[1]"	"[0.4430847999174148]"	4	100	NA	NA	NA	NA	NA	NA	NA	NA	36	"02"	"2024-02-28_15h37.35.290"	"GDT_exp"	"2023.2.3"	122.507583202268	"2024-02-28 15h37.52.298627 +0100"	NA
NA	NA	NA	NA	NA	NA	NA	NA	NA	NA	NA	NA	NA	NA	NA	NA	NA	NA	NA	NA	NA	NA	NA	NA	NA	NA	NA	NA	NA	NA	NA	NA	NA	NA	NA	NA	NA	NA	NA	NA	NA	NA	NA	NA	NA	NA	NA	NA	NA	NA	NA	NA	NA	NA	NA	NA	NA	NA	NA	NA	104.996814399958	105.001370599959	105.001370599959	113.249960899935	"space"	8.24445220001508	"None"	36	"02"	"2024-02-28_15h37.35.290"	"GDT_exp"	"2023.2.3"	122.507583202268	"2024-02-28 15h37.52.298627 +0100"	NA
