"image"	"max_pumps"	"pump_loop.thisRepN"	"pump_loop.thisTrialN"	"pump_loop.thisN"	"pump_loop.thisIndex"	"thisRow.t"	"notes"	"Start.started"	"text_start.started"	"continue_start.started"	"mouse_start.started"	"Start.stopped"	"mouse_start.x"	"mouse_start.y"	"mouse_start.leftButton"	"mouse_start.midButton"	"mouse_start.rightButton"	"mouse_start.time"	"trials.started"	"stim_balloon.started"	"stim_balloon_burst.started"	"stim_balloon_burst.stopped"	"text_ballon_value.started"	"text_bank.started"	"mouse.started"	"sound_bang.started"	"sound_bang.stopped"	"button_balloon.started"	"trials.stopped"	"n_pumps"	"earnings"	"popped"	"mouse.x"	"mouse.y"	"mouse.leftButton"	"mouse.midButton"	"mouse.rightButton"	"mouse.time"	"button_balloon.numClicks"	"button_balloon.timesOn"	"button_balloon.timesOff"	"Feedback.started"	"text_feedback.started"	"Feedback.stopped"	"text_feedback.stopped"	"End.started"	"text_end.started"	"key_end.started"	"End.stopped"	"key_end.keys"	"key_end.rt"	"key_end.duration"	"participant"	"session"	"date"	"expName"	"psychopyVersion"	"frameRate"	"expStart"	"...61"
NA	NA	NA	NA	NA	NA	NA	NA	0.0371447000652552	0.0471532000228763	0.0471532000228763	0.0374759002588689	47.284566000104	"[0.7111111111111111]"	"[-0.3925925925925926]"	"[1]"	"[0]"	"[0]"	"[47.24644220015034]"	NA	NA	NA	NA	NA	NA	NA	NA	NA	NA	NA	NA	NA	NA	NA	NA	NA	NA	NA	NA	NA	NA	NA	NA	NA	NA	NA	NA	NA	NA	NA	NA	NA	NA	"05"	"01"	"2024-01-31_15h09.33.265"	"BART_exp"	"2023.2.3"	119.962187853916	"2024-01-31 15h09.45.763031 +0100"	NA
"balloon.png"	14	0	0	0	3	47.3587160999887	NA	NA	NA	NA	NA	NA	NA	NA	NA	NA	NA	NA	47.2922761002555	47.3587160999887	47.3587160999887	47.3587160999887	47.3587160999887	47.3587160999887	0.0094359996728599	0.0094359996728599	0.0094359996728599	47.3587160999887	50.7108897003345	15	0.7	TRUE	"[-0.08611111111111111, -0.08611111111111111, -0.08611111111111111, -0.08611111111111111, -0.08611111111111111, -0.08611111111111111, -0.08611111111111111, -0.08611111111111111, -0.08611111111111111, -0.08611111111111111, -0.08611111111111111, -0.08611111111111111, -0.08611111111111111, -0.08611111111111111, -0.08611111111111111]"	"[-0.38796296296296295, -0.38796296296296295, -0.38796296296296295, -0.38796296296296295, -0.38796296296296295, -0.38796296296296295, -0.38796296296296295, -0.38796296296296295, -0.38796296296296295, -0.38796296296296295, -0.38796296296296295, -0.38796296296296295, -0.38796296296296295, -0.38796296296296295, -0.38796296296296295]"	"[1, 1, 1, 1, 1, 1, 1, 1, 1, 1, 1, 1, 1, 1, 1]"	"[0, 0, 0, 0, 0, 0, 0, 0, 0, 0, 0, 0, 0, 0, 0]"	"[0, 0, 0, 0, 0, 0, 0, 0, 0, 0, 0, 0, 0, 0, 0]"	"[1.1589856003411114, 1.325517900288105, 1.4588001002557576, 1.625713299959898, 1.7840187000110745, 1.9256372000090778, 2.0671916003338993, 2.2007116000168025, 2.3507069000042975, 2.5340251000598073, 2.717371900100261, 2.867269600275904, 3.042427800130099, 3.184150299988687, 3.334080300293863]"	15	"[1.1053603999316692, 1.2718855999410152, 1.405163099989295, 1.5720814000815153, 1.7303888997994363, 1.87200259976089, 2.0135536999441683, 2.1470767999999225, 2.297073199879378, 2.4803935000672936, 2.663738699629903, 2.813635299913585, 2.9887934997677803, 3.1305199000053108, 3.2804494998417795]"	"[1.1716942000202835, 1.3217356000095606, 1.4716908000409603, 1.655094699934125, 1.7967966999858618, 1.9384339996613562, 2.0717583000659943, 2.2301074997521937, 2.3634671000763774, 2.5718155996873975, 2.730144999921322, 2.9134811996482313, 3.0552177000790834, 3.2051307996734977, 3.355167799629271]"	50.7126108002849	50.7256126999855	52.2174002001993	NA	NA	NA	NA	NA	NA	NA	NA	"05"	"01"	"2024-01-31_15h09.33.265"	"BART_exp"	"2023.2.3"	119.962187853916	"2024-01-31 15h09.45.763031 +0100"	NA
"balloon.png"	75	0	1	1	17	52.2340183001943	NA	NA	NA	NA	NA	NA	NA	NA	NA	NA	NA	NA	52.2175815999508	52.2340183001943	52.2340183001943	52.2340183001943	52.2340183001943	52.2340183001943	0.00622540013864636	0.00622540013864636	0.00622540013864636	52.2340183001943	55.7110025002621	10	0.5	FALSE	"[-0.08611111111111111, -0.08611111111111111, -0.08611111111111111, -0.08611111111111111, -0.08611111111111111, -0.08611111111111111, -0.08611111111111111, -0.08611111111111111, -0.08611111111111111, -0.08611111111111111, 0.06296296296296296]"	"[-0.38796296296296295, -0.38796296296296295, -0.38796296296296295, -0.38796296296296295, -0.38796296296296295, -0.38796296296296295, -0.38796296296296295, -0.38796296296296295, -0.38796296296296295, -0.38796296296296295, -0.2851851851851852]"	"[1, 1, 1, 1, 1, 1, 1, 1, 1, 1, 0]"	"[0, 0, 0, 0, 0, 0, 0, 0, 0, 0, 0]"	"[0, 0, 0, 0, 0, 0, 0, 0, 0, 0, 1]"	"[0.32546209963038564, 0.5006247996352613, 0.6423128000460565, 0.8090570997446775, 0.9588259998708963, 1.1171770999208093, 1.3255388997495174, 1.6173661998473108, 1.7838879995979369, 1.9422318995930254, 3.492529799696058]"	10	"[0.31770569970831275, 0.49286750005558133, 0.6345580997876823, 0.801306199748069, 0.9510745997540653, 1.1094219000078738, 1.3177855997346342, 1.609612099826336, 1.7761356998234987, 1.934476399794221]"	"[0.3842604998499155, 0.5759385996498168, 0.7259015999734402, 0.8842929997481406, 1.0259614000096917, 1.1842895997688174, 1.4259474999271333, 1.692661500070244, 1.851017799694091, 2.01768789999187]"	55.7117701000534	55.7259247000329	57.2177375000902	NA	NA	NA	NA	NA	NA	NA	NA	"05"	"01"	"2024-01-31_15h09.33.265"	"BART_exp"	"2023.2.3"	119.962187853916	"2024-01-31 15h09.45.763031 +0100"	NA
"balloon.png"	1	0	2	2	0	57.2343586999923	NA	NA	NA	NA	NA	NA	NA	NA	NA	NA	NA	NA	57.2179159000516	57.2343586999923	57.2343586999923	57.2343586999923	57.2343586999923	57.2343586999923	0.00743789970874786	0.00743789970874786	0.00743789970874786	57.2343586999923	57.8864293000661	2	0.05	TRUE	"[-0.012037037037037037, -0.012037037037037037]"	"[-0.3685185185185185, -0.3675925925925926]"	"[1, 1]"	"[0, 0]"	"[0, 0]"	"[0.4506315002217889, 0.6006328002549708]"	2	"[0.4425829998217523, 0.5925622000358999]"	"[0.5006002001464367, 0.6506726001389325]"	57.8870031000115	57.892770900391	59.3847652999684	59.4011733001098	NA	NA	NA	NA	NA	NA	NA	"05"	"01"	"2024-01-31_15h09.33.265"	"BART_exp"	"2023.2.3"	119.962187853916	"2024-01-31 15h09.45.763031 +0100"	NA
"balloon.png"	18	0	3	3	4	59.4011733001098	NA	NA	NA	NA	NA	NA	NA	NA	NA	NA	NA	NA	59.3849388002418	59.4011733001098	59.4011733001098	59.4011733001098	59.4011733001098	59.4011733001098	-0.00083100004121661	-0.00083100004121661	-0.00083100004121661	59.4011733001098	63.6033256002702	19	0.9	TRUE	"[-0.012037037037037037, -0.012037037037037037, -0.012037037037037037, -0.012037037037037037, -0.012037037037037037, -0.012037037037037037, -0.012037037037037037, -0.012037037037037037, -0.012037037037037037, -0.012037037037037037, -0.012037037037037037, -0.012037037037037037, -0.012037037037037037, -0.012037037037037037, -0.012037037037037037, -0.012037037037037037, -0.012037037037037037, -0.012037037037037037, -0.012037037037037037]"	"[-0.37222222222222223, -0.37222222222222223, -0.37222222222222223, -0.37222222222222223, -0.37222222222222223, -0.37222222222222223, -0.37222222222222223, -0.37222222222222223, -0.37222222222222223, -0.37222222222222223, -0.37222222222222223, -0.37222222222222223, -0.37222222222222223, -0.37222222222222223, -0.37222222222222223, -0.37222222222222223, -0.37222222222222223, -0.37222222222222223, -0.37222222222222223]"	"[1, 1, 1, 1, 1, 1, 1, 1, 1, 1, 1, 1, 1, 1, 1, 1, 1, 1, 1]"	"[0, 0, 0, 0, 0, 0, 0, 0, 0, 0, 0, 0, 0, 0, 0, 0, 0, 0, 0]"	"[0, 0, 0, 0, 0, 0, 0, 0, 0, 0, 0, 0, 0, 0, 0, 0, 0, 0, 0]"	"[0.6337703000754118, 0.8420861000195146, 0.9920689999125898, 1.1503428001888096, 1.2838190998882055, 1.433834900148213, 1.5837371000088751, 1.750347100198269, 1.908951799850911, 2.0674169999547303, 2.2338916999287903, 2.400479500181973, 2.5670814998447895, 2.8505979999899864, 3.150460499804467, 3.4006567001342773, 3.6172934002242982, 3.8339541000314057, 4.0923405000939965]"	19	"[0.6233827001415193, 0.8316978001967072, 0.9816860998980701, 1.1399598000571132, 1.2734301001764834, 1.4234458999708295, 1.5733508998528123, 1.7399615999311209, 1.8985871002078056, 2.057035999838263, 2.223507100250572, 2.3900911998935044, 2.556692299898714, 2.8402108000591397, 3.1400788999162614, 3.3902761000208557, 3.606907700188458, 3.8235666998662055, 4.081953700166196]"	"[0.7397408001124859, 0.8897514999844134, 1.0480895000509918, 1.1983177000656724, 1.3482095999643207, 1.4981651999987662, 1.6731269001029432, 1.8148019998334348, 1.9900911999866366, 2.1317006000317633, 2.314847799949348, 2.4898586999624968, 2.6482462999410927, 2.9399071000516415, 3.223245699889958, 3.4732929999008775, 3.7066409001126885, 3.8983184001408517, 4.198313800152391]"	63.6041858000681	63.6098211002536	65.1017988999374	65.1182373003103	NA	NA	NA	NA	NA	NA	NA	"05"	"01"	"2024-01-31_15h09.33.265"	"BART_exp"	"2023.2.3"	119.962187853916	"2024-01-31 15h09.45.763031 +0100"	NA
"balloon.png"	10	0	4	4	2	65.1182373003103	NA	NA	NA	NA	NA	NA	NA	NA	NA	NA	NA	NA	65.1019791001454	65.1182373003103	65.1182373003103	65.1182373003103	65.1182373003103	65.1182373003103	-0.00092220026999711	-0.00092220026999711	-0.00092220026999711	65.1182373003103	67.6037973002531	11	0.5	TRUE	"[-0.011111111111111112, -0.011111111111111112, -0.012037037037037037, -0.012037037037037037, -0.012037037037037037, -0.012037037037037037, -0.012037037037037037, -0.012037037037037037, -0.012037037037037037, -0.012037037037037037, -0.012037037037037037]"	"[-0.38333333333333336, -0.38333333333333336, -0.3814814814814815, -0.3787037037037037, -0.3787037037037037, -0.3787037037037037, -0.3787037037037037, -0.3787037037037037, -0.3787037037037037, -0.3787037037037037, -0.3787037037037037]"	"[1, 1, 1, 1, 1, 1, 1, 1, 1, 1, 1]"	"[0, 0, 0, 0, 0, 0, 0, 0, 0, 0, 0]"	"[0, 0, 0, 0, 0, 0, 0, 0, 0, 0, 0]"	"[0.4336578003130853, 0.6669406001456082, 0.8252743002958596, 0.9921582001261413, 1.1504856999963522, 1.308827199973166, 1.4836515001952648, 1.6171399001032114, 1.8921290002763271, 2.192186700180173, 2.4254716001451015]"	11	"[0.4302698001265526, 0.6635579001158476, 0.821881300304085, 0.9887657002545893, 1.1470929002389312, 1.3054345003329217, 1.480259499978274, 1.61374679999426, 1.8887381004169583, 2.1887954003177583, 2.4220808004029095]"	"[0.5466888002119958, 0.7384177003987134, 0.9050892000086606, 1.0717456000857055, 1.2384703001007438, 1.3801061999984086, 1.5468151001259685, 1.7217915002256632, 2.005195800215006, 2.2801999002695084, 2.4885010002180934]"	67.6045809001662	67.6100583001971	69.1021027001552	69.110199900344	NA	NA	NA	NA	NA	NA	NA	"05"	"01"	"2024-01-31_15h09.33.265"	"BART_exp"	"2023.2.3"	119.962187853916	"2024-01-31 15h09.45.763031 +0100"	NA
"balloon.png"	88	0	5	5	20	69.110199900344	NA	NA	NA	NA	NA	NA	NA	NA	NA	NA	NA	NA	69.1022890000604	69.110199900344	69.110199900344	69.110199900344	69.110199900344	69.110199900344	0.00568030029535293	NA	NA	69.110199900344	71.3118750001304	5	0.25	FALSE	"[-0.012037037037037037, -0.012037037037037037, -0.012037037037037037, -0.012037037037037037, -0.012037037037037037, 0.012037037037037037]"	"[-0.37962962962962965, -0.37962962962962965, -0.37962962962962965, -0.37962962962962965, -0.37962962962962965, -0.2898148148148148]"	"[1, 1, 1, 1, 1, 0]"	"[0, 0, 0, 0, 0, 0]"	"[0, 0, 0, 0, 0, 1]"	"[0.4419527999125421, 0.6418857001699507, 0.8002368002198637, 0.9670823998749256, 1.158756900113076, 2.208672100212425]"	5	"[0.4400972002185881, 0.6400301000103354, 0.798375400248915, 0.9652267000637949, 1.1568995001725852]"	"[0.52321010036394, 0.7149256002157927, 0.889919700101018, 1.0649399003013968, 1.2399730002507567]"	71.3125391001813	71.3186576999724	72.8106149001978	72.8270975002088	NA	NA	NA	NA	NA	NA	NA	"05"	"01"	"2024-01-31_15h09.33.265"	"BART_exp"	"2023.2.3"	119.962187853916	"2024-01-31 15h09.45.763031 +0100"	NA
"balloon.png"	53	0	6	6	12	72.8270975002088	NA	NA	NA	NA	NA	NA	NA	NA	NA	NA	NA	NA	72.8108062003739	72.8270975002088	72.8270975002088	72.8270975002088	72.8270975002088	72.8270975002088	-0.00052689993754029	-0.00052689993754029	-0.00052689993754029	72.8270975002088	75.9455193001777	10	0.5	FALSE	"[-0.002777777777777778, -0.001851851851851852, -0.001851851851851852, -0.001851851851851852, -0.001851851851851852, -0.001851851851851852, -0.001851851851851852, -0.001851851851851852, -0.001851851851851852, -0.001851851851851852, 0.062037037037037036]"	"[-0.4, -0.4, -0.4, -0.4, -0.4, -0.4, -0.4, -0.4, -0.4, -0.4, -0.24166666666666667]"	"[1, 1, 1, 1, 1, 1, 1, 1, 1, 1, 0]"	"[0, 0, 0, 0, 0, 0, 0, 0, 0, 0, 0]"	"[0, 0, 0, 0, 0, 0, 0, 0, 0, 0, 1]"	"[0.36716199992224574, 0.5586390001699328, 0.6919841999188066, 0.8421677998267114, 1.0004851999692619, 1.1588293998502195, 1.317041200120002, 1.5255153998732567, 1.9421091000549495, 2.375424100086093, 3.133820699993521]"	10	"[0.3624203000217676, 0.5538885002024472, 0.6872395002283156, 0.8374218000099063, 0.9957400001585484, 1.1540823001414537, 1.3122970000840724, 1.5207664999179542, 1.9373659999109805, 2.3706728001125157]"	"[0.46206980012357235, 0.6204066001810133, 0.7704195999540389, 0.9218466002494097, 1.062190200202167, 1.2287821001373231, 1.3788215001113713, 1.6123588001355529, 2.0038247001357377, 2.4872024999931455]"	75.9463047999889	75.9522939003073	77.4443184002303	77.4690852002241	NA	NA	NA	NA	NA	NA	NA	"05"	"01"	"2024-01-31_15h09.33.265"	"BART_exp"	"2023.2.3"	119.962187853916	"2024-01-31 15h09.45.763031 +0100"	NA
"balloon.png"	123	0	7	7	28	77.4690852002241	NA	NA	NA	NA	NA	NA	NA	NA	NA	NA	NA	NA	77.4445088002831	77.4690852002241	77.4690852002241	77.4690852002241	77.4690852002241	77.4690852002241	-0.00045600021257996	-0.00045600021257996	-0.00045600021257996	77.4690852002241	81.5793823003769	14	0.7	FALSE	"[-0.011111111111111112, -0.011111111111111112, -0.011111111111111112, -0.011111111111111112, -0.011111111111111112, -0.011111111111111112, -0.011111111111111112, -0.011111111111111112, -0.011111111111111112, -0.011111111111111112, -0.011111111111111112, -0.011111111111111112, -0.011111111111111112, -0.011111111111111112, 0.014814814814814815]"	"[-0.39537037037037037, -0.39537037037037037, -0.39537037037037037, -0.39537037037037037, -0.39537037037037037, -0.39537037037037037, -0.39537037037037037, -0.39537037037037037, -0.39537037037037037, -0.39537037037037037, -0.39537037037037037, -0.39537037037037037, -0.39537037037037037, -0.39537037037037037, -0.2962962962962963]"	"[1, 1, 1, 1, 1, 1, 1, 1, 1, 1, 1, 1, 1, 1, 0]"	"[0, 0, 0, 0, 0, 0, 0, 0, 0, 0, 0, 0, 0, 0, 0]"	"[0, 0, 0, 0, 0, 0, 0, 0, 0, 0, 0, 0, 0, 0, 1]"	"[0.31685589998960495, 0.4751997999846935, 0.6335563003085554, 0.7920706002041698, 0.9503771001473069, 1.125262400135398, 1.2934433002956212, 1.4670452000573277, 1.6336533003486693, 1.9086658000014722, 2.23382080020383, 2.6837434000335634, 3.1672228001989424, 3.5589068001136184, 4.133930600248277]"	14	"[0.30600319989025593, 0.4643482998944819, 0.6227056998759508, 0.7812306000851095, 0.9395269998349249, 1.1144166998565197, 1.2827506000176072, 1.4562002001330256, 1.6228057001717389, 1.897825499996543, 2.2229698998853564, 2.672895799856633, 3.156372900120914, 3.548056600149721]"	"[0.37257050024345517, 0.5392050999216735, 0.7059961999766529, 0.8475572001188993, 1.0225626002065837, 1.197581000160426, 1.3725987998768687, 1.5392728000879288, 1.6976168002001941, 1.999013700056821, 2.3059833999723196, 2.772700199857354, 3.2560569001361728, 3.647916399873793]"	81.5802498999983	81.5860061002895	83.0781269003637	83.0944667002186	NA	NA	NA	NA	NA	NA	NA	"05"	"01"	"2024-01-31_15h09.33.265"	"BART_exp"	"2023.2.3"	119.962187853916	"2024-01-31 15h09.45.763031 +0100"	NA
"balloon.png"	118	0	8	8	27	83.0944667002186	NA	NA	NA	NA	NA	NA	NA	NA	NA	NA	NA	NA	83.0783188003115	83.0944667002186	83.0944667002186	83.0944667002186	83.0944667002186	83.0944667002186	-0.00069080013781785	-0.00069080013781785	-0.00069080013781785	83.0944667002186	89.654929399956	20	1	FALSE	"[-0.024074074074074074, -0.024074074074074074, -0.024074074074074074, -0.024074074074074074, -0.024074074074074074, -0.024074074074074074, -0.024074074074074074, -0.024074074074074074, -0.024074074074074074, -0.024074074074074074, -0.024074074074074074, -0.024074074074074074, -0.024074074074074074, -0.024074074074074074, -0.024074074074074074, -0.024074074074074074, -0.024074074074074074, -0.024074074074074074, -0.024074074074074074, -0.018518518518518517, 0.037037037037037035]"	"[-0.39537037037037037, -0.39537037037037037, -0.39537037037037037, -0.39537037037037037, -0.39537037037037037, -0.39537037037037037, -0.39537037037037037, -0.39537037037037037, -0.39537037037037037, -0.39537037037037037, -0.39537037037037037, -0.39537037037037037, -0.39537037037037037, -0.39537037037037037, -0.39537037037037037, -0.39537037037037037, -0.39537037037037037, -0.39537037037037037, -0.39537037037037037, -0.37777777777777777, -0.275]"	"[1, 1, 1, 1, 1, 1, 1, 1, 1, 1, 1, 1, 1, 1, 1, 1, 1, 1, 1, 1, 0]"	"[0, 0, 0, 0, 0, 0, 0, 0, 0, 0, 0, 0, 0, 0, 0, 0, 0, 0, 0, 0, 0]"	"[0, 0, 0, 0, 0, 0, 0, 0, 0, 0, 0, 0, 0, 0, 0, 0, 0, 0, 0, 0, 1]"	"[0.39195339987054467, 0.675131400115788, 0.8751452001743019, 1.283609800040722, 1.5670219999738038, 1.7503990000113845, 1.967057699803263, 2.1920892000198364, 2.4002831000834703, 2.6004098998382688, 2.8088047998026013, 3.083616899792105, 3.4003270999528468, 3.8004287001676857, 4.133903699927032, 4.467065999750048, 4.7256279001012444, 5.067207799758762, 5.358974199742079, 6.017223699949682, 6.5756791001185775]"	20	"[0.38466819981113076, 0.6678423001430929, 0.8678578999824822, 1.276324899867177, 1.5597411999478936, 1.743116000201553, 1.9597753998823464, 2.1848022998310626, 2.392995299771428, 2.593128699809313, 2.801527999807149, 3.076326500158757, 3.393045600038022, 3.7931400001980364, 4.1266193999908864, 4.45977979991585, 4.718344899825752, 5.059923099819571, 5.351695800200105, 6.009941500145942]"	"[0.5344062000513077, 0.7594089000485837, 0.9594053002074361, 1.3510930999182165, 1.617803500033915, 1.8261242997832596, 2.0511469999328256, 2.25946700014174, 2.467832800000906, 2.667897699866444, 2.884507699869573, 3.15123560000211, 3.484567599836737, 3.884584699757397, 4.242996099870652, 4.54310780018568, 4.834629700053483, 5.159656499978155, 5.443010100163519, 6.076393499970436]"	89.6558926003054	89.6614695000462	91.1535372002982	91.1616739002056	NA	NA	NA	NA	NA	NA	NA	"05"	"01"	"2024-01-31_15h09.33.265"	"BART_exp"	"2023.2.3"	119.962187853916	"2024-01-31 15h09.45.763031 +0100"	NA
"balloon.png"	5	0	9	9	1	91.1616739002056	NA	NA	NA	NA	NA	NA	NA	NA	NA	NA	NA	NA	91.1537226000801	91.1616739002056	91.1616739002056	91.1616739002056	91.1616739002056	91.1616739002056	-0.00096399988979101	-0.00096399988979101	-0.00096399988979101	91.1616739002056	92.6053707003593	6	0.25	TRUE	"[0.003703703703703704, 0.003703703703703704, 0.003703703703703704, 0.003703703703703704, 0.003703703703703704, 0.003703703703703704]"	"[-0.39814814814814814, -0.39814814814814814, -0.39814814814814814, -0.39814814814814814, -0.3962962962962963, -0.39537037037037037]"	"[1, 1, 1, 1, 1, 1]"	"[0, 0, 0, 0, 0, 0]"	"[0, 0, 0, 0, 0, 0]"	"[0.2838090998120606, 0.45881889993324876, 0.6421663998626173, 0.9254626999609172, 1.1336984997615218, 1.358726799953729]"	6	"[0.2817390002310276, 0.45675170002505183, 0.6400999003089964, 0.9233951000496745, 1.1316308001987636, 1.356666600331664]"	"[0.3480924000032246, 0.5397430001758039, 0.7147921002469957, 0.9814623002894223, 1.198146500159055, 1.4397976002655923]"	92.606043800246	92.6117513999343	94.1037453003228	94.1285151001066	NA	NA	NA	NA	NA	NA	NA	"05"	"01"	"2024-01-31_15h09.33.265"	"BART_exp"	"2023.2.3"	119.962187853916	"2024-01-31 15h09.45.763031 +0100"	NA
"balloon.png"	62	0	10	10	14	94.1285151001066	NA	NA	NA	NA	NA	NA	NA	NA	NA	NA	NA	NA	94.1039260001853	94.1285151001066	94.1285151001066	94.1285151001066	94.1285151001066	94.1285151001066	-0.00085379974916577	-0.00085379974916577	-0.00085379974916577	94.1285151001066	96.4552537002601	6	0.3	FALSE	"[0.003703703703703704, 0.003703703703703704, 0.003703703703703704, 0.003703703703703704, 0.003703703703703704, 0.003703703703703704, 0.01574074074074074]"	"[-0.39351851851851855, -0.39351851851851855, -0.39351851851851855, -0.39351851851851855, -0.39351851851851855, -0.39351851851851855, -0.3101851851851852]"	"[1, 1, 1, 1, 1, 1, 0]"	"[0, 0, 0, 0, 0, 0, 0]"	"[0, 0, 0, 0, 0, 0, 1]"	"[0.3338112998753786, 0.5587774999439716, 0.7669362002052367, 0.975318499840796, 1.3421395998448133, 1.6671849000267684, 2.350402799900621]"	6	"[0.32233310025185347, 0.5472957002930343, 0.7554546999745071, 0.9638364999555051, 1.3306533000431955, 1.6557054999284446]"	"[0.4136838000267744, 0.6219625002704561, 0.8136346000246704, 1.030362700112164, 1.4386666002683342, 1.730385100003332]"	96.4559981999919	96.4620372001082	97.9540062001906	97.9787747003138	NA	NA	NA	NA	NA	NA	NA	"05"	"01"	"2024-01-31_15h09.33.265"	"BART_exp"	"2023.2.3"	119.962187853916	"2024-01-31 15h09.45.763031 +0100"	NA
"balloon.png"	84	0	11	11	19	97.9787747003138	NA	NA	NA	NA	NA	NA	NA	NA	NA	NA	NA	NA	97.9541824003682	97.9787747003138	97.9787747003138	97.9787747003138	97.9787747003138	97.9787747003138	-0.00058839982375502	-0.00058839982375502	-0.00058839982375502	97.9787747003138	102.69906530017	18	0.9	FALSE	"[0.000925925925925926, 0.000925925925925926, 0.000925925925925926, 0.000925925925925926, 0.000925925925925926, 0.000925925925925926, 0.000925925925925926, 0.000925925925925926, 0.000925925925925926, 0.000925925925925926, 0.000925925925925926, 0.000925925925925926, 0.000925925925925926, 0.000925925925925926, 0.000925925925925926, 0.000925925925925926, 0.000925925925925926, 0.000925925925925926, 0.03333333333333333]"	"[-0.38425925925925924, -0.38425925925925924, -0.38425925925925924, -0.38425925925925924, -0.38425925925925924, -0.3851851851851852, -0.3851851851851852, -0.3851851851851852, -0.3851851851851852, -0.3851851851851852, -0.3851851851851852, -0.3851851851851852, -0.3851851851851852, -0.3851851851851852, -0.3851851851851852, -0.3851851851851852, -0.3851851851851852, -0.3851851851851852, -0.28055555555555556]"	"[1, 1, 1, 1, 1, 1, 1, 1, 1, 1, 1, 1, 1, 1, 1, 1, 1, 1, 0]"	"[0, 0, 0, 0, 0, 0, 0, 0, 0, 0, 0, 0, 0, 0, 0, 0, 0, 0, 0]"	"[0, 0, 0, 0, 0, 0, 0, 0, 0, 0, 0, 0, 0, 0, 0, 0, 0, 0, 1]"	"[0.42543649999424815, 0.6254213000647724, 0.7919697002507746, 0.9753193003125489, 1.1753173000179231, 1.367031500209123, 1.5836412003263831, 1.8004825999960303, 2.0255623003467917, 2.2756039001978934, 2.45888390019536, 2.6589337000623345, 2.9089593002572656, 3.175678000319749, 3.4005812001414597, 3.625629900023341, 3.958816200029105, 4.234014100395143, 4.743748700246215]"	18	"[0.41387899965047836, 0.613858999684453, 0.7804020997136831, 0.9637532997876406, 1.1637528999708593, 1.355475699994713, 1.572072499897331, 1.7889181999489665, 2.013993099797517, 2.2640444999560714, 2.447318200021982, 2.6473722998052835, 2.8973975996486843, 3.16411229968071, 3.3890203000046313, 3.614063899964094, 3.9472475997172296, 4.222449499648064]"	"[0.5135393999516964, 0.7052917997352779, 0.8718824000097811, 1.0385672999545932, 1.2385827000252903, 1.4219591999426484, 1.6470595998689532, 1.8636965998448431, 2.1220482997596264, 2.3219828996807337, 2.5303315999917686, 2.7303764997050166, 2.972041899804026, 3.247036499902606, 3.4470798997208476, 3.731804699636996, 4.055437499657273, 4.297109100036323]"	102.700003799982	102.71244070027	104.20427600015	NA	NA	NA	NA	NA	NA	NA	NA	"05"	"01"	"2024-01-31_15h09.33.265"	"BART_exp"	"2023.2.3"	119.962187853916	"2024-01-31 15h09.45.763031 +0100"	NA
"balloon.png"	101	0	12	12	23	104.229210800026	NA	NA	NA	NA	NA	NA	NA	NA	NA	NA	NA	NA	104.204462800175	104.229210800026	104.229210800026	104.229210800026	104.229210800026	104.229210800026	0.00599859980866313	0.00599859980866313	0.00599859980866313	104.229210800026	109.614602100104	24	1.2	FALSE	"[0.013888888888888888, 0.013888888888888888, 0.013888888888888888, 0.013888888888888888, 0.013888888888888888, 0.013888888888888888, 0.013888888888888888, 0.013888888888888888, 0.013888888888888888, 0.013888888888888888, 0.013888888888888888, 0.013888888888888888, 0.013888888888888888, 0.013888888888888888, 0.013888888888888888, 0.013888888888888888, 0.013888888888888888, 0.013888888888888888, 0.013888888888888888, 0.013888888888888888, 0.013888888888888888, 0.013888888888888888, 0.013888888888888888, 0.013888888888888888, 0.05925925925925926]"	"[-0.3851851851851852, -0.3851851851851852, -0.3851851851851852, -0.3851851851851852, -0.3851851851851852, -0.3851851851851852, -0.3851851851851852, -0.3851851851851852, -0.3851851851851852, -0.3851851851851852, -0.3851851851851852, -0.3851851851851852, -0.3851851851851852, -0.3851851851851852, -0.3851851851851852, -0.3851851851851852, -0.3851851851851852, -0.3851851851851852, -0.3851851851851852, -0.3851851851851852, -0.3851851851851852, -0.3851851851851852, -0.3851851851851852, -0.3851851851851852, -0.2601851851851852]"	"[1, 1, 1, 1, 1, 1, 1, 1, 1, 1, 1, 1, 1, 1, 1, 1, 1, 1, 1, 1, 1, 1, 1, 1, 0]"	"[0, 0, 0, 0, 0, 0, 0, 0, 0, 0, 0, 0, 0, 0, 0, 0, 0, 0, 0, 0, 0, 0, 0, 0, 0]"	"[0, 0, 0, 0, 0, 0, 0, 0, 0, 0, 0, 0, 0, 0, 0, 0, 0, 0, 0, 0, 0, 0, 0, 0, 1]"	"[0.3254605997353792, 0.4835436996072531, 0.6337184999138117, 0.8004290997050703, 0.9754518000409007, 1.1504140999168158, 1.3504035999067128, 1.5337679996155202, 1.7252912996336818, 1.900303399655968, 2.075345499906689, 2.2586667998693883, 2.4420199999585748, 2.617202799767256, 2.81719349976629, 3.0337975998409092, 3.2088946998119354, 3.417262999806553, 3.6172736999578774, 3.817149699665606, 4.0504565997980535, 4.284025699831545, 4.508894599974155, 4.775652799755335, 5.409045999869704]"	24	"[0.31479139998555183, 0.4728647000156343, 0.6230484000407159, 0.7897525001317263, 0.9647770998999476, 1.1397476000711322, 1.3397327000275254, 1.5230910000391304, 1.7146177999675274, 1.889627800323069, 2.0646708998829126, 2.2479922003112733, 2.431342599913478, 2.606527800206095, 2.8065166999585927, 3.0231262003071606, 3.1982204001396894, 3.4065963001921773, 3.6065974002704024, 3.80647880025208, 4.039778400212526, 4.273355400189757, 4.4982229000888765, 4.764982900116593]"	"[0.38945680018514395, 0.5811239001341164, 0.7311092000454664, 0.8977622999809682, 1.0561716998927295, 1.231112000066787, 1.4228230002336204, 1.606180100236088, 1.78119260026142, 1.9728192002512515, 2.1645074002444744, 2.347928300034255, 2.522863999940455, 2.6979096001014113, 2.9062688001431525, 3.106269400101155, 3.2979216002859175, 3.5063189999200404, 3.6812757002189755, 3.906314800027758, 4.139644300099462, 4.372979300096631, 4.58133010007441, 4.864714700262994]"	109.615744899958	109.621300600003	111.113238000311	111.121353300288	NA	NA	NA	NA	NA	NA	NA	"05"	"01"	"2024-01-31_15h09.33.265"	"BART_exp"	"2023.2.3"	119.962187853916	"2024-01-31 15h09.45.763031 +0100"	NA
"balloon.png"	66	0	13	13	15	111.121353300288	NA	NA	NA	NA	NA	NA	NA	NA	NA	NA	NA	NA	111.113424400333	111.121353300288	111.121353300288	111.121353300288	111.121353300288	111.121353300288	0.005674600135535	0.005674600135535	0.005674600135535	111.121353300288	116.715242000297	24	1.2	FALSE	"[-0.010185185185185186, -0.010185185185185186, -0.010185185185185186, -0.010185185185185186, -0.010185185185185186, -0.010185185185185186, -0.010185185185185186, -0.010185185185185186, -0.010185185185185186, -0.010185185185185186, -0.010185185185185186, -0.010185185185185186, -0.010185185185185186, -0.010185185185185186, -0.010185185185185186, -0.010185185185185186, -0.010185185185185186, -0.010185185185185186, -0.010185185185185186, -0.010185185185185186, -0.010185185185185186, -0.010185185185185186, -0.010185185185185186, -0.010185185185185186, 0.03518518518518519]"	"[-0.39166666666666666, -0.39166666666666666, -0.39166666666666666, -0.39166666666666666, -0.39166666666666666, -0.39166666666666666, -0.39166666666666666, -0.39166666666666666, -0.39166666666666666, -0.39166666666666666, -0.39166666666666666, -0.39166666666666666, -0.39166666666666666, -0.39166666666666666, -0.39166666666666666, -0.39166666666666666, -0.39166666666666666, -0.39166666666666666, -0.39166666666666666, -0.39166666666666666, -0.39166666666666666, -0.39166666666666666, -0.39166666666666666, -0.39166666666666666, -0.28055555555555556]"	"[1, 1, 1, 1, 1, 1, 1, 1, 1, 1, 1, 1, 1, 1, 1, 1, 1, 1, 1, 1, 1, 1, 1, 1, 0]"	"[0, 0, 0, 0, 0, 0, 0, 0, 0, 0, 0, 0, 0, 0, 0, 0, 0, 0, 0, 0, 0, 0, 0, 0, 0]"	"[0, 0, 0, 0, 0, 0, 0, 0, 0, 0, 0, 0, 0, 0, 0, 0, 0, 0, 0, 0, 0, 0, 0, 0, 1]"	"[0.45879589999094605, 0.650454199872911, 0.833774599712342, 1.0089681996032596, 1.1753098997287452, 1.3419773997738957, 1.5004839999601245, 1.6671716999262571, 1.8338408996351063, 1.9921283996663988, 2.1753578996285796, 2.350379599723965, 2.5420559998601675, 2.73374899988994, 2.958786000031978, 3.125444599892944, 3.358813100028783, 3.558807199820876, 3.77552119968459, 3.9754935996606946, 4.209019099827856, 4.434080400038511, 4.659143399912864, 4.984200999606401, 5.600894399918616]"	24	"[0.4568991996347904, 0.6485833995975554, 0.8318785997107625, 1.0070679998025298, 1.1734093995764852, 1.340076099615544, 1.4985835999250412, 1.66527419956401, 1.8319409997202456, 1.9902351996861398, 2.173461399972439, 2.348483099602163, 2.540156999602914, 2.7318493998609483, 2.9568865997716784, 3.123545699752867, 3.3569167996756732, 3.5569187998771667, 3.773625999689102, 3.9736034995876253, 4.207123499829322, 4.4321821997873485, 4.657248499803245, 4.982304999604821]"	"[0.5398825998418033, 0.7316889995709062, 0.9148870999924839, 1.0817426997236907, 1.2649347996339202, 1.423274999950081, 1.590130899567157, 1.7566518997773528, 1.914966399781406, 2.0816503996029496, 2.256696399766952, 2.440027099568397, 2.631928199902177, 2.823370599653572, 3.006898299790919, 3.231845199596137, 3.4317521997727454, 3.6234266995452344, 3.840114699676633, 4.05680639995262, 4.29847709974274, 4.531826399732381, 4.748499199748039, 5.106880199629813]"	116.716322500259	116.721718300134	118.213707000017	118.221852899995	NA	NA	NA	NA	NA	NA	NA	"05"	"01"	"2024-01-31_15h09.33.265"	"BART_exp"	"2023.2.3"	119.962187853916	"2024-01-31 15h09.45.763031 +0100"	NA
"balloon.png"	110	0	14	14	25	118.221852899995	NA	NA	NA	NA	NA	NA	NA	NA	NA	NA	NA	NA	118.213889600243	118.221852899995	118.221852899995	118.221852899995	118.221852899995	118.221852899995	0.00559729989618063	0.00559729989618063	0.00559729989618063	118.221852899995	124.707347300369	24	1.2	FALSE	"[-0.002777777777777778, -0.002777777777777778, -0.002777777777777778, -0.002777777777777778, -0.002777777777777778, -0.002777777777777778, -0.002777777777777778, -0.002777777777777778, -0.002777777777777778, -0.002777777777777778, -0.002777777777777778, -0.002777777777777778, -0.002777777777777778, -0.002777777777777778, -0.002777777777777778, -0.002777777777777778, -0.002777777777777778, -0.002777777777777778, -0.002777777777777778, -0.002777777777777778, -0.002777777777777778, -0.002777777777777778, -0.002777777777777778, -0.002777777777777778, 0.009259259259259259]"	"[-0.37592592592592594, -0.37592592592592594, -0.37592592592592594, -0.37592592592592594, -0.37592592592592594, -0.37592592592592594, -0.37592592592592594, -0.37592592592592594, -0.37592592592592594, -0.37592592592592594, -0.37592592592592594, -0.37592592592592594, -0.37592592592592594, -0.37592592592592594, -0.37592592592592594, -0.37592592592592594, -0.37592592592592594, -0.37592592592592594, -0.37592592592592594, -0.37592592592592594, -0.37592592592592594, -0.37592592592592594, -0.37592592592592594, -0.37592592592592594, -0.27037037037037037]"	"[1, 1, 1, 1, 1, 1, 1, 1, 1, 1, 1, 1, 1, 1, 1, 1, 1, 1, 1, 1, 1, 1, 1, 1, 0]"	"[0, 0, 0, 0, 0, 0, 0, 0, 0, 0, 0, 0, 0, 0, 0, 0, 0, 0, 0, 0, 0, 0, 0, 0, 0]"	"[0, 0, 0, 0, 0, 0, 0, 0, 0, 0, 0, 0, 0, 0, 0, 0, 0, 0, 0, 0, 0, 0, 0, 0, 1]"	"[0.308740499895066, 0.5255130999721587, 0.7837924002669752, 0.9921391000971198, 1.1588436998426914, 1.3088211002759635, 1.4837291999720037, 1.7089304002001882, 1.9672237001359463, 2.1838829000480473, 2.3922255001962185, 2.6089643999002874, 2.825427900068462, 3.0088185002095997, 3.192324799951166, 3.408934500068426, 3.608915999997407, 3.833832799922675, 4.058889800217003, 4.283875499852002, 4.484556199982762, 4.692366300150752, 5.359037999995053, 5.759161599911749, 6.492524100001901]"	24	"[0.3069162000901997, 0.5236868998035789, 0.7819690997712314, 0.9903184999711812, 1.1570170996710658, 1.3069992000237107, 1.481908000074327, 1.70710159977898, 1.9653946999460459, 2.182058099657297, 2.390403099823743, 2.6071418998762965, 2.8236008998937905, 3.00699059991166, 3.19050299981609, 3.4071176000870764, 3.6070934999734163, 3.8320067999884486, 4.057066299952567, 4.282047600019723, 4.482728899922222, 4.690539199858904, 5.357210400048643, 5.75733819976449]"	"[0.43173439987003803, 0.6151401000097394, 0.8816582998260856, 1.0733326999470592, 1.2150308997370303, 1.4066710998304188, 1.5816985997371376, 1.7818734999746084, 2.0568357999436557, 2.273454699665308, 2.4734700000844896, 2.690142599865794, 2.9151786998845637, 3.1068519996479154, 3.290153999812901, 3.4821764999069273, 3.706866799853742, 3.915241099894047, 4.148565599694848, 4.365245099645108, 4.5736758997663856, 4.798585899639875, 5.465292599983513, 5.848655899986625]"	124.708372000139	124.713927000295	126.20589660015	126.214028400369	NA	NA	NA	NA	NA	NA	NA	"05"	"01"	"2024-01-31_15h09.33.265"	"BART_exp"	"2023.2.3"	119.962187853916	"2024-01-31 15h09.45.763031 +0100"	NA
"balloon.png"	127	0	15	15	29	126.214028400369	NA	NA	NA	NA	NA	NA	NA	NA	NA	NA	NA	NA	126.206076500006	126.214028400369	126.214028400369	126.214028400369	126.214028400369	126.214028400369	0.00571889989078044	0.00571889989078044	0.00571889989078044	126.214028400369	132.166080800351	20	1	FALSE	"[-0.000925925925925926, 0.0, 0.0, 0.0, 0.0, 0.0, 0.0, 0.0, 0.0, 0.0, 0.0, 0.0, 0.0, 0.0, 0.0, 0.0, 0.0, 0.0, 0.0, 0.0, 0.025]"	"[-0.40555555555555556, -0.40555555555555556, -0.40555555555555556, -0.40555555555555556, -0.40555555555555556, -0.40555555555555556, -0.40555555555555556, -0.40555555555555556, -0.40555555555555556, -0.40555555555555556, -0.40555555555555556, -0.40555555555555556, -0.4046296296296296, -0.40370370370370373, -0.4009259259259259, -0.4009259259259259, -0.4009259259259259, -0.4009259259259259, -0.4009259259259259, -0.4009259259259259, -0.2916666666666667]"	"[1, 1, 1, 1, 1, 1, 1, 1, 1, 1, 1, 1, 1, 1, 1, 1, 1, 1, 1, 1, 0]"	"[0, 0, 0, 0, 0, 0, 0, 0, 0, 0, 0, 0, 0, 0, 0, 0, 0, 0, 0, 0, 0]"	"[0, 0, 0, 0, 0, 0, 0, 0, 0, 0, 0, 0, 0, 0, 0, 0, 0, 0, 0, 0, 1]"	"[0.31712959986180067, 0.5422100997529924, 0.7171241999603808, 0.9172221999615431, 1.0837047998793423, 1.2421570997685194, 1.400521599687636, 1.5588829996995628, 1.7171673998236656, 1.9005213999189436, 2.0837869998067617, 2.3005414996296167, 2.5506380000151694, 2.7673818999901414, 3.1840132996439934, 3.500649099703878, 3.867333199828863, 4.242279999889433, 4.600621699821204, 5.109102099668235, 5.959085499867797]"	20	"[0.3152769999578595, 0.5403582998551428, 0.7152726999484003, 0.9153660000301898, 1.081851199734956, 1.2403012001886964, 1.398663300089538, 1.557035299949348, 1.71531100012362, 1.8986661001108587, 2.081927699968219, 2.298685499932617, 2.5487799998372793, 2.765530100092292, 3.18216049997136, 3.498796199914068, 3.865477900020778, 4.240424300078303, 4.59876269986853, 5.107243299949914]"	"[0.4315863000229001, 0.6316257999278605, 0.8149820999242365, 0.981878699734807, 1.14831000007689, 1.3150289999321103, 1.4733715001493692, 1.6733717997558415, 1.8150256997905672, 1.9984691999852657, 2.1733694998547435, 2.3900485998019576, 2.6317527000792325, 2.8402430000714958, 3.2734946999698877, 3.590142599772662, 3.940173899754882, 4.306848300155252, 4.673761100042611, 5.19858739990741]"	132.167040599976	132.172759300098	133.66473750025	133.681236100383	NA	NA	NA	NA	NA	NA	NA	"05"	"01"	"2024-01-31_15h09.33.265"	"BART_exp"	"2023.2.3"	119.962187853916	"2024-01-31 15h09.45.763031 +0100"	NA
"balloon.png"	49	0	16	16	11	133.681236100383	NA	NA	NA	NA	NA	NA	NA	NA	NA	NA	NA	NA	133.664921200369	133.681236100383	133.681236100383	133.681236100383	133.681236100383	133.681236100383	-0.00087989959865808	-0.00087989959865808	-0.00087989959865808	133.681236100383	143.583441300318	26	1.3	FALSE	"[0.004629629629629629, 0.004629629629629629, 0.004629629629629629, 0.004629629629629629, 0.004629629629629629, 0.004629629629629629, 0.004629629629629629, 0.004629629629629629, 0.004629629629629629, 0.004629629629629629, 0.004629629629629629, 0.004629629629629629, 0.004629629629629629, 0.004629629629629629, 0.004629629629629629, 0.004629629629629629, 0.004629629629629629, 0.004629629629629629, 0.004629629629629629, 0.004629629629629629, 0.004629629629629629, 0.004629629629629629, 0.004629629629629629, 0.004629629629629629, 0.004629629629629629, 0.004629629629629629, 0.026851851851851852]"	"[-0.3925925925925926, -0.39166666666666666, -0.3907407407407407, -0.3907407407407407, -0.3907407407407407, -0.3907407407407407, -0.3907407407407407, -0.3907407407407407, -0.3907407407407407, -0.3907407407407407, -0.3888888888888889, -0.3888888888888889, -0.3888888888888889, -0.3888888888888889, -0.3888888888888889, -0.3888888888888889, -0.3888888888888889, -0.3888888888888889, -0.3888888888888889, -0.3888888888888889, -0.3888888888888889, -0.3888888888888889, -0.3888888888888889, -0.3888888888888889, -0.38796296296296295, -0.38796296296296295, -0.30277777777777776]"	"[1, 1, 1, 1, 1, 1, 1, 1, 1, 1, 1, 1, 1, 1, 1, 1, 1, 1, 1, 1, 1, 1, 1, 1, 1, 1, 0]"	"[0, 0, 0, 0, 0, 0, 0, 0, 0, 0, 0, 0, 0, 0, 0, 0, 0, 0, 0, 0, 0, 0, 0, 0, 0, 0, 0]"	"[0, 0, 0, 0, 0, 0, 0, 0, 0, 0, 0, 0, 0, 0, 0, 0, 0, 0, 0, 0, 0, 0, 0, 0, 0, 0, 1]"	"[0.283804299775511, 0.5586546999402344, 0.7503299000672996, 1.000323100015521, 1.2505155000835657, 1.5253882999531925, 1.8505429001525044, 2.1504374998621643, 2.4839300997555256, 2.833998799789697, 3.375517399981618, 3.7505188998766243, 4.084037699736655, 4.450739399995655, 4.825737299863249, 5.117434499785304, 5.350625799968839, 5.917483400087804, 6.334215700160712, 6.74239270016551, 7.117438800167292, 7.510166299995035, 7.909316699951887, 8.359158299863338, 8.834344599861652, 9.209349200129509, 9.91762199997902]"	26	"[0.2733512995764613, 0.5481926999054849, 0.7398685999214649, 0.9898621998727322, 1.240052199922502, 1.5149247995577753, 1.840077799744904, 2.139977399725467, 2.4734659995883703, 2.823535999748856, 3.365053499583155, 3.7400582996197045, 4.073573999572545, 4.4402729999274015, 4.815275899600238, 5.106976099777967, 5.340164999943227, 5.90702909976244, 6.323752099648118, 6.731938499957323, 7.1069764997810125, 7.499867299571633, 7.898854999803007, 8.348693099804223, 8.823878599796444, 9.198888899758458]"	"[0.3897314998321235, 0.6063935998827219, 0.8147024996578693, 1.0730691999197006, 1.3230642997659743, 1.6231366996653378, 1.9315621997229755, 2.2398353996686637, 2.5731467995792627, 2.923188299871981, 3.4649033998139203, 3.8065704996697605, 4.190051299985498, 4.5149545995518565, 4.898307599592954, 5.173320799600333, 5.41501499991864, 5.990051899570972, 6.4150727996602654, 6.806783699896187, 7.198468099813908, 7.573534399736673, 7.998511199839413, 8.423559399787337, 8.906920099630952, 9.306957599706948]"	143.584538400173	143.590232999995	145.082176300231	145.098643100355	NA	NA	NA	NA	NA	NA	NA	"05"	"01"	"2024-01-31_15h09.33.265"	"BART_exp"	"2023.2.3"	119.962187853916	"2024-01-31 15h09.45.763031 +0100"	NA
"balloon.png"	44	0	17	17	10	145.098643100355	NA	NA	NA	NA	NA	NA	NA	NA	NA	NA	NA	NA	145.082360200118	145.098643100355	145.098643100355	145.098643100355	145.098643100355	145.098643100355	-0.0009371000342071	-0.0009371000342071	-0.0009371000342071	145.098643100355	156.417652199976	43	2.15	FALSE	"[0.012037037037037037, 0.012037037037037037, 0.012037037037037037, 0.012037037037037037, 0.012037037037037037, 0.012037037037037037, 0.012037037037037037, 0.012037037037037037, 0.012037037037037037, 0.012037037037037037, 0.012037037037037037, 0.012037037037037037, 0.012037037037037037, 0.012037037037037037, 0.012037037037037037, 0.012037037037037037, 0.012037037037037037, 0.012037037037037037, 0.012037037037037037, 0.012037037037037037, 0.012037037037037037, 0.012037037037037037, 0.012037037037037037, 0.012037037037037037, 0.012037037037037037, 0.012037037037037037, 0.012037037037037037, 0.012037037037037037, 0.012037037037037037, 0.012037037037037037, 0.012037037037037037, 0.012037037037037037, 0.012037037037037037, 0.012037037037037037, 0.012037037037037037, 0.012037037037037037, 0.012037037037037037, 0.012037037037037037, 0.012037037037037037, 0.012037037037037037, 0.012037037037037037, 0.012037037037037037, 0.012037037037037037, 0.03425925925925926]"	"[-0.38425925925925924, -0.38425925925925924, -0.38425925925925924, -0.38425925925925924, -0.38425925925925924, -0.38425925925925924, -0.38425925925925924, -0.38425925925925924, -0.38425925925925924, -0.38425925925925924, -0.38425925925925924, -0.38425925925925924, -0.38425925925925924, -0.38425925925925924, -0.38425925925925924, -0.38425925925925924, -0.38425925925925924, -0.38425925925925924, -0.38425925925925924, -0.38425925925925924, -0.38425925925925924, -0.38425925925925924, -0.38425925925925924, -0.38425925925925924, -0.38425925925925924, -0.38425925925925924, -0.38425925925925924, -0.38425925925925924, -0.38425925925925924, -0.38425925925925924, -0.38425925925925924, -0.38425925925925924, -0.38425925925925924, -0.38425925925925924, -0.38425925925925924, -0.38425925925925924, -0.38425925925925924, -0.38425925925925924, -0.38425925925925924, -0.38425925925925924, -0.38425925925925924, -0.37962962962962965, -0.37962962962962965, -0.2564814814814815]"	"[1, 1, 1, 1, 1, 1, 1, 1, 1, 1, 1, 1, 1, 1, 1, 1, 1, 1, 1, 1, 1, 1, 1, 1, 1, 1, 1, 1, 1, 1, 1, 1, 1, 1, 1, 1, 1, 1, 1, 1, 1, 1, 1, 0]"	"[0, 0, 0, 0, 0, 0, 0, 0, 0, 0, 0, 0, 0, 0, 0, 0, 0, 0, 0, 0, 0, 0, 0, 0, 0, 0, 0, 0, 0, 0, 0, 0, 0, 0, 0, 0, 0, 0, 0, 0, 0, 0, 0, 0]"	"[0, 0, 0, 0, 0, 0, 0, 0, 0, 0, 0, 0, 0, 0, 0, 0, 0, 0, 0, 0, 0, 0, 0, 0, 0, 0, 0, 0, 0, 0, 0, 0, 0, 0, 0, 0, 0, 0, 0, 0, 0, 0, 0, 1]"	"[0.3086945000104606, 0.558793599717319, 0.7420401996932924, 0.9670718000270426, 1.1670014997944236, 1.3672555000521243, 1.5836902000010014, 1.767055899836123, 1.9755615997128189, 2.1588147999718785, 2.350534399971366, 2.5671097999438643, 2.7587878997437656, 2.9922580998390913, 3.2173301996663213, 3.4423345997929573, 3.6590607999823987, 3.8590329997241497, 4.108878300059587, 4.309000299777836, 4.575569799635559, 4.800894499756396, 5.067438099998981, 5.3925381996668875, 5.6175226997584105, 5.892326799686998, 6.2175672999583185, 6.492371900007129, 6.717377400025725, 6.950770099647343, 7.184224599972367, 7.4176078997552395, 7.684169999789447, 7.917449899949133, 8.150822299998254, 8.376003399956971, 8.6259980998002, 8.942575399763882, 9.217715499922633, 9.567766400054097, 9.867745399940759, 10.592880999669433, 10.776145599782467, 11.334374699741602]"	43	"[0.3052791003137827, 0.5553890001028776, 0.7386238998733461, 0.9636516002938151, 1.1635766001418233, 1.363839500118047, 1.5802716999314725, 1.7636341000907123, 1.9721451001241803, 2.155399600043893, 2.34712090017274, 2.563693200238049, 2.755370399914682, 2.98883520020172, 3.2139154002070427, 3.438914100173861, 3.6556406999006867, 3.855616500135511, 4.105458999983966, 4.305583500303328, 4.572148600127548, 4.797474300023168, 5.064015199895948, 5.3891199002973735, 5.614100300241262, 5.888909200206399, 6.214146799873561, 6.488954500295222, 6.713962700217962, 6.94735570019111, 7.180805400013924, 7.414192100055516, 7.680754200089723, 7.914029399864376, 8.147402300033718, 8.37259060004726, 8.622575600165874, 8.939152200240642, 9.214298800099641, 9.564351900015026, 9.864327600225806, 10.589459800161421, 10.772728000301868]"	"[0.4217460001818836, 0.6050983001478016, 0.8300816002301872, 1.0384277002885938, 1.2300933999940753, 1.4385505998507142, 1.6551439999602735, 1.8385009001940489, 2.03016550000757, 2.221847699955106, 2.4469131999649107, 2.6218878999352455, 2.8468900001607835, 3.0885720001533628, 3.313596600200981, 3.522059000097215, 3.7386026000604033, 3.963623400311917, 4.188633000012487, 4.388655500020832, 4.672012799885124, 4.8817386999726295, 5.155371900182217, 5.480407600291073, 5.75547800026834, 5.9971317001618445, 6.35545889986679, 6.58047980023548, 6.813832799904048, 7.047166500240564, 7.2889176001772285, 7.522217399906367, 7.763927800115198, 7.988912499975413, 8.20561690023169, 8.480607100296766, 8.730626599863172, 9.047312300186604, 9.305671300273389, 9.655764100141823, 9.955709199886769, 10.689084200188518, 10.872416200116277]"	156.418995200191	156.424402200151	157.916395900305	157.924523900263	NA	NA	NA	NA	NA	NA	NA	"05"	"01"	"2024-01-31_15h09.33.265"	"BART_exp"	"2023.2.3"	119.962187853916	"2024-01-31 15h09.45.763031 +0100"	NA
"balloon.png"	23	0	18	18	5	157.924523900263	NA	NA	NA	NA	NA	NA	NA	NA	NA	NA	NA	NA	157.91657719994	157.924523900263	157.924523900263	157.924523900263	157.924523900263	157.924523900263	0.00559259997680783	0.00559259997680783	0.00559259997680783	157.924523900263	164.235219100025	24	1.15	TRUE	"[-0.017592592592592594, -0.017592592592592594, -0.017592592592592594, -0.017592592592592594, -0.017592592592592594, -0.017592592592592594, -0.017592592592592594, -0.017592592592592594, -0.017592592592592594, -0.017592592592592594, -0.017592592592592594, -0.017592592592592594, -0.017592592592592594, -0.017592592592592594, -0.017592592592592594, -0.017592592592592594, -0.017592592592592594, -0.017592592592592594, -0.017592592592592594, -0.017592592592592594, -0.017592592592592594, -0.017592592592592594, -0.017592592592592594, -0.017592592592592594]"	"[-0.3851851851851852, -0.3851851851851852, -0.3851851851851852, -0.3851851851851852, -0.3851851851851852, -0.3851851851851852, -0.3851851851851852, -0.3851851851851852, -0.3851851851851852, -0.3851851851851852, -0.3851851851851852, -0.3851851851851852, -0.3851851851851852, -0.3851851851851852, -0.3851851851851852, -0.3851851851851852, -0.3851851851851852, -0.3851851851851852, -0.3851851851851852, -0.3851851851851852, -0.3851851851851852, -0.3851851851851852, -0.3851851851851852, -0.3851851851851852]"	"[1, 1, 1, 1, 1, 1, 1, 1, 1, 1, 1, 1, 1, 1, 1, 1, 1, 1, 1, 1, 1, 1, 1, 1]"	"[0, 0, 0, 0, 0, 0, 0, 0, 0, 0, 0, 0, 0, 0, 0, 0, 0, 0, 0, 0, 0, 0, 0, 0]"	"[0, 0, 0, 0, 0, 0, 0, 0, 0, 0, 0, 0, 0, 0, 0, 0, 0, 0, 0, 0, 0, 0, 0, 0]"	"[0.942155399825424, 1.1255056001245975, 1.3171266000717878, 1.525335299782455, 1.708705899771303, 1.8753510997630656, 2.067025499884039, 2.283711099997163, 2.542199300136417, 2.808919500093907, 3.1087580998428166, 3.3756185001693666, 3.650506400037557, 3.9590047001838684, 4.217341199982911, 4.44225599989295, 4.667244100011885, 4.883923599962145, 5.109044800046831, 5.327041999902576, 5.550750500056893, 5.750792199745774, 6.000625299755484, 6.225632099900395]"	24	"[0.9402747000567615, 1.1236275997944176, 1.3152469000779092, 1.523451100103557, 1.706826000008732, 1.873466500081122, 2.065146899782121, 2.281830199994147, 2.540315799880773, 2.8070384999737144, 3.106874499935657, 3.373739399947226, 3.648627999704331, 3.957123499829322, 4.215462999884039, 4.440378100145608, 4.665379600133747, 4.882041099946946, 5.107170999981463, 5.325160599779338, 5.548865600023419, 5.748912000097334, 5.998745699878782, 6.223752100020647]"	"[1.0233315001241863, 1.206644999794662, 1.3982921000570059, 1.5899876998737454, 1.7733068000525236, 1.9399998998269439, 2.1316987997852266, 2.365063500124961, 2.6317186998203397, 2.9067253000102937, 3.1901122997514904, 3.47361689992249, 3.765116599854082, 4.065137899946421, 4.298494900111109, 4.523536199703813, 4.765287999995053, 4.981852199882269, 5.20687669981271, 5.423558199778199, 5.631908199749887, 5.865259099751711, 6.098638399969786, 6.306955999694765]"	164.236264900304	164.241700100247	165.733602900058	165.741719400045	NA	NA	NA	NA	NA	NA	NA	"05"	"01"	"2024-01-31_15h09.33.265"	"BART_exp"	"2023.2.3"	119.962187853916	"2024-01-31 15h09.45.763031 +0100"	NA
"balloon.png"	97	0	19	19	22	165.741719400045	NA	NA	NA	NA	NA	NA	NA	NA	NA	NA	NA	NA	165.73379100021	165.741719400045	165.741719400045	165.741719400045	165.741719400045	165.741719400045	0.00551779987290501	NA	NA	165.741719400045	172.727090599947	21	1.05	FALSE	"[-0.02962962962962963, -0.02962962962962963, -0.02962962962962963, -0.02962962962962963, -0.030555555555555555, -0.030555555555555555, -0.030555555555555555, -0.030555555555555555, -0.030555555555555555, -0.030555555555555555, -0.030555555555555555, -0.030555555555555555, -0.030555555555555555, -0.030555555555555555, -0.030555555555555555, -0.030555555555555555, -0.030555555555555555, -0.030555555555555555, -0.030555555555555555, -0.030555555555555555, -0.030555555555555555, -0.007407407407407408]"	"[-0.4, -0.39166666666666666, -0.3907407407407407, -0.3814814814814815, -0.3888888888888889, -0.3888888888888889, -0.3888888888888889, -0.3888888888888889, -0.3888888888888889, -0.3888888888888889, -0.3888888888888889, -0.3888888888888889, -0.3888888888888889, -0.3888888888888889, -0.3888888888888889, -0.3888888888888889, -0.3888888888888889, -0.3888888888888889, -0.3888888888888889, -0.3888888888888889, -0.3888888888888889, -0.2564814814814815]"	"[1, 1, 1, 1, 1, 1, 1, 1, 1, 1, 1, 1, 1, 1, 1, 1, 1, 1, 1, 1, 1, 0]"	"[0, 0, 0, 0, 0, 0, 0, 0, 0, 0, 0, 0, 0, 0, 0, 0, 0, 0, 0, 0, 0, 0]"	"[0, 0, 0, 0, 0, 0, 0, 0, 0, 0, 0, 0, 0, 0, 0, 0, 0, 0, 0, 0, 0, 1]"	"[0.35038110008463264, 0.5420734002254903, 0.7170898001641035, 0.9088757000863552, 1.1087285000830889, 1.2837442997843027, 1.4669645000249147, 1.6586353997699916, 2.008647299837321, 2.317219499964267, 2.5588583000935614, 2.88389699999243, 3.1922267000190914, 3.483875600155443, 3.833791700191796, 4.159006800036877, 4.4504752000793815, 4.76733209984377, 5.117371299769729, 5.567497199866921, 6.217275700066239, 6.992343400139362]"	21	"[0.34824980003759265, 0.5399410999380052, 0.7149594998918474, 0.9067456000484526, 1.1066000000573695, 1.281613300088793, 1.4648364000022411, 1.6565090999938548, 2.0065186000429094, 2.315086599905044, 2.5567283001728356, 2.8817795999348164, 3.190095500089228, 3.4817490000277758, 3.8316619000397623, 4.156875700224191, 4.448346099816263, 4.7652043998241425, 5.115240599960089, 5.565366699825972, 6.215142299886793]"	"[0.4312813002616167, 0.622948800213635, 0.8064629998989403, 1.0146703999489546, 1.1981359999626875, 1.3730071000754833, 1.5396686000749469, 1.7230851999484003, 2.098043799865991, 2.4064680002629757, 2.6481233001686633, 2.9897754001431167, 3.306457499973476, 3.598181299865246, 3.939842500258237, 4.256590600125492, 4.548337299842387, 4.873250599950552, 5.231583999935538, 5.673296900000423, 6.306694600265473]"	172.728034700267	172.733836099971	174.225861500017	174.242318199947	NA	NA	NA	NA	NA	NA	NA	"05"	"01"	"2024-01-31_15h09.33.265"	"BART_exp"	"2023.2.3"	119.962187853916	"2024-01-31 15h09.45.763031 +0100"	NA
"balloon.png"	79	0	20	20	18	174.242318199947	NA	NA	NA	NA	NA	NA	NA	NA	NA	NA	NA	NA	174.226049300283	174.242318199947	174.242318199947	174.242318199947	174.242318199947	174.242318199947	-0.00062990002334117	-0.00062990002334117	-0.00062990002334117	174.242318199947	183.477968800347	30	1.5	FALSE	"[-0.023148148148148147, -0.022222222222222223, -0.022222222222222223, -0.022222222222222223, -0.022222222222222223, -0.022222222222222223, -0.022222222222222223, -0.022222222222222223, -0.022222222222222223, -0.022222222222222223, -0.022222222222222223, -0.022222222222222223, -0.022222222222222223, -0.022222222222222223, -0.022222222222222223, -0.022222222222222223, -0.022222222222222223, -0.022222222222222223, -0.022222222222222223, -0.022222222222222223, -0.022222222222222223, -0.022222222222222223, -0.022222222222222223, -0.022222222222222223, -0.022222222222222223, -0.022222222222222223, -0.022222222222222223, -0.022222222222222223, -0.022222222222222223, -0.022222222222222223, 0.020370370370370372]"	"[-0.38425925925925924, -0.38333333333333336, -0.38333333333333336, -0.38333333333333336, -0.38333333333333336, -0.38333333333333336, -0.38333333333333336, -0.38333333333333336, -0.38333333333333336, -0.38333333333333336, -0.38333333333333336, -0.38333333333333336, -0.38333333333333336, -0.38333333333333336, -0.38333333333333336, -0.38333333333333336, -0.38333333333333336, -0.38333333333333336, -0.38333333333333336, -0.38333333333333336, -0.38333333333333336, -0.38333333333333336, -0.38333333333333336, -0.38333333333333336, -0.38333333333333336, -0.38333333333333336, -0.38333333333333336, -0.38333333333333336, -0.38333333333333336, -0.38333333333333336, -0.23703703703703705]"	"[1, 1, 1, 1, 1, 1, 1, 1, 1, 1, 1, 1, 1, 1, 1, 1, 1, 1, 1, 1, 1, 1, 1, 1, 1, 1, 1, 1, 1, 1, 0]"	"[0, 0, 0, 0, 0, 0, 0, 0, 0, 0, 0, 0, 0, 0, 0, 0, 0, 0, 0, 0, 0, 0, 0, 0, 0, 0, 0, 0, 0, 0, 0]"	"[0, 0, 0, 0, 0, 0, 0, 0, 0, 0, 0, 0, 0, 0, 0, 0, 0, 0, 0, 0, 0, 0, 0, 0, 0, 0, 0, 0, 0, 0, 1]"	"[0.5419025998562574, 0.7252855999395251, 0.9252518997527659, 1.1169123998843133, 1.3419711999595165, 1.566968800034374, 1.7753540999256074, 1.983736100140959, 2.176655499730259, 2.4088612999767065, 2.6422008997760713, 2.8590258001349866, 3.108727399725467, 3.34211720013991, 3.5754426000639796, 3.8089393000118434, 4.0921577997505665, 4.317260600160807, 4.584041299764067, 4.950564099941403, 5.342331899795681, 5.67575759999454, 6.017394499853253, 6.309093600139022, 6.625782399903983, 6.925655500032008, 7.292377700097859, 7.6758638001047075, 8.225938300136477, 8.575943899806589, 9.250974399968982]"	30	"[0.5328273000195622, 0.7162130996584892, 0.9161821999587119, 1.1078365999273956, 1.3328916998580098, 1.5578935998491943, 1.7662771996110678, 1.9746612999588251, 2.1677297996357083, 2.39978009974584, 2.633125899825245, 2.849966499954462, 3.099650699645281, 3.3330420996062458, 3.5663637998513877, 3.7998654996044934, 4.0830840999260545, 4.308188799768686, 4.57496239989996, 4.941489299759269, 5.333265000022948, 5.666679899673909, 6.00831349985674, 6.300013199914247, 6.616707499604672, 6.916574199683964, 7.283301699906588, 7.666787699796259, 8.216861099936068, 8.566869899630547]"	"[0.5994241996668279, 0.7993409000337124, 0.9993815999478102, 1.1911112000234425, 1.432720399927348, 1.6328479000367224, 1.8496040999889374, 2.0327928997576237, 2.266146899666637, 2.482832399662584, 2.7078054999001324, 2.932969399727881, 3.174489500001073, 3.3995257997885346, 3.6245238999836147, 3.899565799627453, 4.149569499772042, 4.382968499790877, 4.65799369988963, 5.0246224999427795, 5.424650399945676, 5.749744100030512, 6.116365799680352, 6.416489499621093, 6.72474560001865, 7.008096199948341, 7.367323299869895, 7.741747600026429, 8.308197899721563, 8.659604799933732]"	183.479115700349	183.484565699939	184.976512100082	184.984699600376	NA	NA	NA	NA	NA	NA	NA	"05"	"01"	"2024-01-31_15h09.33.265"	"BART_exp"	"2023.2.3"	119.962187853916	"2024-01-31 15h09.45.763031 +0100"	NA
"balloon.png"	71	0	21	21	16	184.984699600376	NA	NA	NA	NA	NA	NA	NA	NA	NA	NA	NA	NA	184.976688200142	184.984699600376	184.984699600376	184.984699600376	184.984699600376	184.984699600376	0.00564670003950595	0.00564670003950595	0.00564670003950595	184.984699600376	192.311752400361	18	0.9	FALSE	"[0.003703703703703704, 0.003703703703703704, 0.003703703703703704, 0.003703703703703704, 0.003703703703703704, 0.003703703703703704, 0.003703703703703704, 0.003703703703703704, 0.003703703703703704, 0.003703703703703704, 0.003703703703703704, 0.003703703703703704, 0.003703703703703704, 0.003703703703703704, 0.003703703703703704, 0.003703703703703704, 0.003703703703703704, 0.003703703703703704, 0.019444444444444445]"	"[-0.38333333333333336, -0.38333333333333336, -0.38333333333333336, -0.38333333333333336, -0.38333333333333336, -0.38333333333333336, -0.38333333333333336, -0.38333333333333336, -0.3824074074074074, -0.3814814814814815, -0.3814814814814815, -0.3814814814814815, -0.3814814814814815, -0.3814814814814815, -0.3814814814814815, -0.3814814814814815, -0.3814814814814815, -0.3814814814814815, -0.275]"	"[1, 1, 1, 1, 1, 1, 1, 1, 1, 1, 1, 1, 1, 1, 1, 1, 1, 1, 0]"	"[0, 0, 0, 0, 0, 0, 0, 0, 0, 0, 0, 0, 0, 0, 0, 0, 0, 0, 0]"	"[0, 0, 0, 0, 0, 0, 0, 0, 0, 0, 0, 0, 0, 0, 0, 0, 0, 0, 1]"	"[0.8422503001056612, 1.0505376998335123, 1.2422205996699631, 1.433923500124365, 1.6172243999317288, 1.8589371996931732, 2.11731670005247, 2.5090173999778926, 2.7838841998018324, 3.175546099897474, 3.7255657999776304, 3.9839177997782826, 4.300767399836332, 4.667449499946088, 5.317366799805313, 5.617499699816108, 5.875878599938005, 6.209138500038534, 7.334160800091922]"	18	"[0.8403684999793768, 1.048652300145477, 1.2403323999606073, 1.4320388999767601, 1.6153359999880195, 1.8570495997555554, 2.1154289999976754, 2.507127500139177, 2.78200179990381, 3.173661000095308, 3.723677100148052, 3.982028800062835, 4.298889399971813, 4.665565500035882, 5.315477999858558, 5.615608700085431, 5.873990499880165, 6.207253700122237]"	"[0.9068291997537017, 1.1150329997763038, 1.3234013998880982, 1.506800899747759, 1.7317050998099148, 1.9331776998005807, 2.190089200157672, 2.590172399766743, 2.873478999827057, 3.265173699706793, 3.8152227997779846, 4.065299199894071, 4.390241799876094, 4.790312699973583, 5.423694999888539, 5.698652199935168, 5.9653334999457, 6.307118400000036]"	192.312629499938	192.318541800138	193.810440000147	193.826929199975	NA	NA	NA	NA	NA	NA	NA	"05"	"01"	"2024-01-31_15h09.33.265"	"BART_exp"	"2023.2.3"	119.962187853916	"2024-01-31 15h09.45.763031 +0100"	NA
"balloon.png"	92	0	22	22	21	193.826929199975	NA	NA	NA	NA	NA	NA	NA	NA	NA	NA	NA	NA	193.810618000105	193.826929199975	193.826929199975	193.826929199975	193.826929199975	193.826929199975	-0.00077390018850564	-0.00077390018850564	-0.00077390018850564	193.826929199975	207.372625099961	39	1.95	FALSE	"[0.001851851851851852, 0.001851851851851852, 0.001851851851851852, 0.001851851851851852, 0.001851851851851852, 0.001851851851851852, 0.001851851851851852, 0.001851851851851852, 0.001851851851851852, 0.001851851851851852, 0.001851851851851852, 0.001851851851851852, 0.001851851851851852, 0.001851851851851852, 0.001851851851851852, 0.001851851851851852, 0.001851851851851852, 0.001851851851851852, 0.001851851851851852, 0.001851851851851852, 0.001851851851851852, 0.001851851851851852, 0.001851851851851852, 0.001851851851851852, 0.001851851851851852, 0.001851851851851852, 0.001851851851851852, 0.001851851851851852, 0.001851851851851852, 0.001851851851851852, 0.001851851851851852, 0.001851851851851852, 0.001851851851851852, 0.001851851851851852, 0.001851851851851852, 0.001851851851851852, 0.001851851851851852, 0.001851851851851852, 0.001851851851851852, 0.025925925925925925]"	"[-0.3638888888888889, -0.3638888888888889, -0.3638888888888889, -0.3638888888888889, -0.3638888888888889, -0.3638888888888889, -0.3638888888888889, -0.3638888888888889, -0.3638888888888889, -0.3638888888888889, -0.3638888888888889, -0.3638888888888889, -0.3638888888888889, -0.3638888888888889, -0.3638888888888889, -0.3638888888888889, -0.3638888888888889, -0.3638888888888889, -0.3638888888888889, -0.3638888888888889, -0.3638888888888889, -0.3638888888888889, -0.3638888888888889, -0.3638888888888889, -0.3638888888888889, -0.3638888888888889, -0.3638888888888889, -0.3638888888888889, -0.3638888888888889, -0.3638888888888889, -0.3638888888888889, -0.3638888888888889, -0.3638888888888889, -0.3638888888888889, -0.3638888888888889, -0.3638888888888889, -0.3638888888888889, -0.3638888888888889, -0.3638888888888889, -0.2564814814814815]"	"[1, 1, 1, 1, 1, 1, 1, 1, 1, 1, 1, 1, 1, 1, 1, 1, 1, 1, 1, 1, 1, 1, 1, 1, 1, 1, 1, 1, 1, 1, 1, 1, 1, 1, 1, 1, 1, 1, 1, 0]"	"[0, 0, 0, 0, 0, 0, 0, 0, 0, 0, 0, 0, 0, 0, 0, 0, 0, 0, 0, 0, 0, 0, 0, 0, 0, 0, 0, 0, 0, 0, 0, 0, 0, 0, 0, 0, 0, 0, 0, 0]"	"[0, 0, 0, 0, 0, 0, 0, 0, 0, 0, 0, 0, 0, 0, 0, 0, 0, 0, 0, 0, 0, 0, 0, 0, 0, 0, 0, 0, 0, 0, 0, 0, 0, 0, 0, 0, 0, 0, 0, 1]"	"[0.7587461001239717, 0.9503667000681162, 1.1518831998109818, 1.3504106001928449, 1.5504161999560893, 1.7504348000511527, 1.9337615999393165, 2.167115299962461, 2.433942799922079, 2.667286999989301, 2.9005383998155594, 3.1338316001929343, 3.342175600118935, 3.5758139002136886, 3.8008237998001277, 4.034065400250256, 4.284032300114632, 4.51726880017668, 4.784161299932748, 5.234135800041258, 5.492327699903399, 5.784214300103486, 6.075711899902672, 6.400940900202841, 6.709071599878371, 6.984252599999309, 7.250929200090468, 7.767666200175881, 8.219091800041497, 8.7008710000664, 9.11756099993363, 9.626108299940825, 10.034538900014013, 10.434479599818587, 10.8178671002388, 11.201250600162894, 11.59290250018239, 12.034629200119525, 12.676151500083506, 13.561083800159395]"	39	"[0.7541593001224101, 0.9457664000801742, 1.147453899960965, 1.3458138001151383, 1.5458184001035988, 1.7458357997238636, 1.9291655998677015, 2.1625139000825584, 2.429348799865693, 2.662689299788326, 2.8959443997591734, 3.129232599865645, 3.337580000050366, 3.5712207998149097, 3.796230999752879, 4.029467700049281, 4.2794387000612915, 4.512673799879849, 4.779568600002676, 5.229536199942231, 5.487730499822646, 5.77961799968034, 6.071111499797553, 6.396347099915147, 6.704475599806756, 6.979657900054008, 7.246333600021899, 7.763064299710095, 8.214520399924368, 8.696272700093687, 9.112960699945688, 9.62150919996202, 10.029941499698907, 10.429882499855012, 10.813273099716753, 11.19665850000456, 11.588305999990553, 12.030038099735975, 12.671552199870348]"	"[0.8372613000683486, 1.0456129000522196, 1.2372814998961985, 1.4206431997008622, 1.6206383998505771, 1.8292270000092685, 2.0290068998001516, 2.270714399870485, 2.5291172000579536, 2.7457306999713182, 2.9790761996991932, 3.2041000998578966, 3.4375104000791907, 3.6707875998690724, 3.895794800017029, 4.120818799827248, 4.345930699724704, 4.58754749968648, 4.879212599713355, 5.320918799843639, 5.579282899852842, 5.8876016000285745, 6.1543439999222755, 6.504540599882603, 6.796064599882811, 7.07101109996438, 7.321037699934095, 7.871066499967128, 8.296157099772245, 8.79626279976219, 9.196157899685204, 9.721252100076526, 10.1130161001347, 10.496239599771798, 10.904745500069112, 11.288128399755806, 11.696376000065356, 12.129702599719167, 12.771436200011522]"	207.373862800188	207.386176800355	208.877986100037	NA	NA	NA	NA	NA	NA	NA	NA	"05"	"01"	"2024-01-31_15h09.33.265"	"BART_exp"	"2023.2.3"	119.962187853916	"2024-01-31 15h09.45.763031 +0100"	NA
"balloon.png"	57	0	23	23	13	208.894639899954	NA	NA	NA	NA	NA	NA	NA	NA	NA	NA	NA	NA	208.878163299989	208.894639899954	208.894639899954	208.894639899954	208.894639899954	208.894639899954	0.00553080020472407	0.00553080020472407	0.00553080020472407	208.894639899954	223.247124500107	46	2.3	FALSE	"[-0.002777777777777778, -0.002777777777777778, -0.002777777777777778, -0.002777777777777778, -0.002777777777777778, -0.002777777777777778, -0.002777777777777778, -0.002777777777777778, -0.002777777777777778, -0.002777777777777778, -0.002777777777777778, -0.002777777777777778, -0.002777777777777778, -0.002777777777777778, -0.002777777777777778, -0.002777777777777778, -0.002777777777777778, -0.002777777777777778, -0.002777777777777778, -0.002777777777777778, -0.002777777777777778, -0.002777777777777778, -0.002777777777777778, -0.002777777777777778, -0.002777777777777778, -0.002777777777777778, -0.002777777777777778, -0.002777777777777778, -0.002777777777777778, -0.002777777777777778, -0.002777777777777778, -0.002777777777777778, -0.002777777777777778, -0.002777777777777778, -0.002777777777777778, -0.002777777777777778, -0.002777777777777778, -0.002777777777777778, -0.002777777777777778, -0.002777777777777778, -0.002777777777777778, -0.002777777777777778, -0.002777777777777778, -0.002777777777777778, -0.002777777777777778, -0.002777777777777778, 0.016666666666666666]"	"[-0.3907407407407407, -0.3888888888888889, -0.3888888888888889, -0.3888888888888889, -0.3888888888888889, -0.3888888888888889, -0.3888888888888889, -0.3888888888888889, -0.387037037037037, -0.387037037037037, -0.387037037037037, -0.387037037037037, -0.387037037037037, -0.387037037037037, -0.387037037037037, -0.387037037037037, -0.387037037037037, -0.387037037037037, -0.387037037037037, -0.387037037037037, -0.387037037037037, -0.3861111111111111, -0.3861111111111111, -0.3861111111111111, -0.3861111111111111, -0.3861111111111111, -0.3861111111111111, -0.3861111111111111, -0.3861111111111111, -0.3861111111111111, -0.3861111111111111, -0.3861111111111111, -0.3861111111111111, -0.3861111111111111, -0.3861111111111111, -0.3861111111111111, -0.3861111111111111, -0.3861111111111111, -0.3861111111111111, -0.3861111111111111, -0.3861111111111111, -0.3861111111111111, -0.3861111111111111, -0.3861111111111111, -0.3861111111111111, -0.3861111111111111, -0.24814814814814815]"	"[1, 1, 1, 1, 1, 1, 1, 1, 1, 1, 1, 1, 1, 1, 1, 1, 1, 1, 1, 1, 1, 1, 1, 1, 1, 1, 1, 1, 1, 1, 1, 1, 1, 1, 1, 1, 1, 1, 1, 1, 1, 1, 1, 1, 1, 1, 0]"	"[0, 0, 0, 0, 0, 0, 0, 0, 0, 0, 0, 0, 0, 0, 0, 0, 0, 0, 0, 0, 0, 0, 0, 0, 0, 0, 0, 0, 0, 0, 0, 0, 0, 0, 0, 0, 0, 0, 0, 0, 0, 0, 0, 0, 0, 0, 0]"	"[0, 0, 0, 0, 0, 0, 0, 0, 0, 0, 0, 0, 0, 0, 0, 0, 0, 0, 0, 0, 0, 0, 0, 0, 0, 0, 0, 0, 0, 0, 0, 0, 0, 0, 0, 0, 0, 0, 0, 0, 0, 0, 0, 0, 0, 0, 1]"	"[1.0755519000813365, 1.2673432999290526, 1.467211900278926, 1.6924026003107429, 1.9173983000218868, 2.134115600027144, 2.3507840000092983, 2.5841264999471605, 2.8841752000153065, 3.167547100223601, 3.450682000257075, 3.6757037001661956, 3.9091902999207377, 4.134235200006515, 4.342598400078714, 4.584248600061983, 4.843906400259584, 5.067447000183165, 5.309311900287867, 5.559473100118339, 5.834188400302082, 6.151061200071126, 6.400908499956131, 6.617582300212234, 6.800925599876791, 6.992620199918747, 7.177273400127888, 7.3843042999506, 7.601002000272274, 7.792713399976492, 8.000989499967545, 8.201020500157028, 8.567862799856812, 8.89427400007844, 9.192737000063062, 9.484616599977016, 9.784472399856895, 10.05946800019592, 10.309648900292814, 10.693092599976808, 11.143140099942684, 11.46802690019831, 11.768087100237608, 12.226452399976552, 12.918157299980521, 13.343271300196648, 14.368081500288099]"	46	"[1.0685160998255014, 1.260306399781257, 1.4601763999089599, 1.6853742999956012, 1.910367100033909, 2.1270862999372184, 2.3437510998919606, 2.577090199571103, 2.877142499666661, 3.160517499782145, 3.443670599721372, 3.6686660000123084, 3.902155200019479, 4.127204199787229, 4.3355613998137414, 4.577212299685925, 4.837040399666876, 5.060413899831474, 5.302277099806815, 5.5524370996281505, 5.827153499703854, 6.144029799848795, 6.3938771998509765, 6.610548399854451, 6.793887399602681, 6.985586199909449, 7.170403799973428, 7.377271199598908, 7.593971799593419, 7.785680099856108, 7.993954999838024, 8.193986899685115, 8.560826299712062, 8.887403399683535, 9.18569999979809, 9.47758929990232, 9.777439599856734, 10.052431399933994, 10.302613399922848, 10.686055799946189, 11.13611610000953, 11.460997499991208, 11.76105450000614, 12.219418399967253, 12.911124999634922, 13.33623979985714]"	"[1.1267905998975039, 1.3683467996306717, 1.560032199602574, 1.7684402000159025, 1.9933924996294081, 2.1934234998188913, 2.451937399804592, 2.6767815998755395, 2.9685366000048816, 3.268514399882406, 3.5351596996188164, 3.760214699897915, 3.993670499883592, 4.210280099883676, 4.426960099954158, 4.660248399712145, 4.926978199742734, 5.1519469995982945, 5.385290700010955, 5.660343899857253, 5.9270258997567, 6.243710099719465, 6.477072899695486, 6.702047399710864, 6.893716199789196, 7.085416599642485, 7.277125699911267, 7.468792799860239, 7.685447099618614, 7.885523299686611, 8.102159299887717, 8.293828799854964, 8.652220499701798, 8.993931499775499, 9.29390459973365, 9.593912799842656, 9.868936399929225, 10.17734819976613, 10.410829999949783, 10.810687099583447, 11.227365599945188, 11.577429599594325, 11.844063099939376, 12.319081499706954, 13.027548799756914, 13.452562499791384]"	223.248633900192	223.253918100148	224.745863399934	224.754131600261	NA	NA	NA	NA	NA	NA	NA	"05"	"01"	"2024-01-31_15h09.33.265"	"BART_exp"	"2023.2.3"	119.962187853916	"2024-01-31 15h09.45.763031 +0100"	NA
"balloon.png"	40	0	24	24	9	224.754131600261	NA	NA	NA	NA	NA	NA	NA	NA	NA	NA	NA	NA	224.746040400118	224.754131600261	224.754131600261	224.754131600261	224.754131600261	224.754131600261	0.00556720001623034	0.00556720001623034	0.00556720001623034	224.754131600261	235.381483200006	35	1.75	FALSE	"[0.010185185185185186, 0.010185185185185186, 0.010185185185185186, 0.010185185185185186, 0.010185185185185186, 0.010185185185185186, 0.010185185185185186, 0.010185185185185186, 0.010185185185185186, 0.010185185185185186, 0.010185185185185186, 0.010185185185185186, 0.010185185185185186, 0.010185185185185186, 0.010185185185185186, 0.010185185185185186, 0.010185185185185186, 0.010185185185185186, 0.010185185185185186, 0.010185185185185186, 0.010185185185185186, 0.010185185185185186, 0.010185185185185186, 0.010185185185185186, 0.010185185185185186, 0.010185185185185186, 0.010185185185185186, 0.010185185185185186, 0.010185185185185186, 0.010185185185185186, 0.010185185185185186, 0.010185185185185186, 0.010185185185185186, 0.010185185185185186, 0.010185185185185186, 0.03425925925925926]"	"[-0.37962962962962965, -0.37962962962962965, -0.37962962962962965, -0.37962962962962965, -0.37962962962962965, -0.37962962962962965, -0.37962962962962965, -0.37962962962962965, -0.37962962962962965, -0.37962962962962965, -0.37962962962962965, -0.37962962962962965, -0.37962962962962965, -0.37962962962962965, -0.37962962962962965, -0.37962962962962965, -0.37962962962962965, -0.37962962962962965, -0.37962962962962965, -0.37962962962962965, -0.37962962962962965, -0.37962962962962965, -0.37962962962962965, -0.37962962962962965, -0.37962962962962965, -0.37962962962962965, -0.37962962962962965, -0.37962962962962965, -0.37962962962962965, -0.37962962962962965, -0.37962962962962965, -0.37962962962962965, -0.37962962962962965, -0.37962962962962965, -0.37962962962962965, -0.26666666666666666]"	"[1, 1, 1, 1, 1, 1, 1, 1, 1, 1, 1, 1, 1, 1, 1, 1, 1, 1, 1, 1, 1, 1, 1, 1, 1, 1, 1, 1, 1, 1, 1, 1, 1, 1, 1, 0]"	"[0, 0, 0, 0, 0, 0, 0, 0, 0, 0, 0, 0, 0, 0, 0, 0, 0, 0, 0, 0, 0, 0, 0, 0, 0, 0, 0, 0, 0, 0, 0, 0, 0, 0, 0, 0]"	"[0, 0, 0, 0, 0, 0, 0, 0, 0, 0, 0, 0, 0, 0, 0, 0, 0, 0, 0, 0, 0, 0, 0, 0, 0, 0, 0, 0, 0, 0, 0, 0, 0, 0, 0, 1]"	"[1.217234100215137, 1.4339057002216578, 1.6339451000094414, 1.8255863999947906, 2.0256505999714136, 2.2256041998043656, 2.408997400198132, 2.617272200062871, 2.8090253002010286, 3.000634300056845, 3.2091075000353158, 3.41736329998821, 3.6341085000894964, 3.8507019001990557, 4.083957800175995, 4.2922596000134945, 4.508949200157076, 4.742284200154245, 4.992455100174993, 5.308998200111091, 5.56744770007208, 5.77567210001871, 6.0091817998327315, 6.225917200092226, 6.475893300026655, 6.767425800208002, 7.117619500029832, 7.5008473000489175, 7.775972799863666, 8.092512600123882, 8.567657299805433, 8.959372099954635, 9.350959800183773, 9.651114100124687, 9.89263499993831, 10.634531899821013]"	35	"[1.2153563001193106, 1.432024700101465, 1.632062999997288, 1.8237013998441398, 2.0237678000703454, 2.223763400223106, 2.4071134999394417, 2.6153818001039326, 2.8071444001980126, 2.998749299906194, 3.207226099912077, 3.415482200216502, 3.6322229001671076, 3.848815199919045, 4.082071200013161, 4.29037050018087, 4.507064800243825, 4.740395199973136, 4.990570399910212, 5.307111700065434, 5.565557800233364, 5.773787099868059, 6.007295300252736, 6.22403630008921, 6.4740102998912334, 6.765541099943221, 7.11573369987309, 7.498962900135666, 7.7740877000615, 8.090627999976277, 8.56577180000022, 8.957488699816167, 9.349069599993527, 9.64922869997099, 9.890754899941385]"	"[1.3233749000355601, 1.5066745998337865, 1.6983682001009583, 1.906929399818182, 2.1150837000459433, 2.3067450001835823, 2.515117899980396, 2.6984427999705076, 2.89011920010671, 3.0901222000829875, 3.2901615002192557, 3.490195100195706, 3.723497999832034, 3.9401763998903334, 4.165258400142193, 4.365218100138009, 4.606891700066626, 4.848591899964958, 5.098598500248045, 5.398667700123042, 5.631993299815804, 5.8737662001512945, 6.098778800107539, 6.348819199949503, 6.598834999836981, 6.882088900078088, 7.23207199992612, 7.5905845002271235, 7.873780000023544, 8.198853800073266, 8.673861999996006, 9.04885940020904, 9.440551800187677, 9.73228929983452, 9.95726120006293]"	235.382652000058	235.388066300191	236.880053000059	236.888205700088	NA	NA	NA	NA	NA	NA	NA	"05"	"01"	"2024-01-31_15h09.33.265"	"BART_exp"	"2023.2.3"	119.962187853916	"2024-01-31 15h09.45.763031 +0100"	NA
"balloon.png"	114	0	25	25	26	236.888205700088	NA	NA	NA	NA	NA	NA	NA	NA	NA	NA	NA	NA	236.880237800069	236.888205700088	236.888205700088	236.888205700088	236.888205700088	236.888205700088	0.00562170008197426	0.00562170008197426	0.00562170008197426	236.888205700088	256.957985900342	69	3.45	FALSE	"[0.013888888888888888, 0.013888888888888888, 0.013888888888888888, 0.013888888888888888, 0.013888888888888888, 0.013888888888888888, 0.013888888888888888, 0.013888888888888888, 0.013888888888888888, 0.013888888888888888, 0.013888888888888888, 0.013888888888888888, 0.013888888888888888, 0.013888888888888888, 0.013888888888888888, 0.013888888888888888, 0.013888888888888888, 0.013888888888888888, 0.013888888888888888, 0.013888888888888888, 0.013888888888888888, 0.013888888888888888, 0.013888888888888888, 0.013888888888888888, 0.013888888888888888, 0.013888888888888888, 0.013888888888888888, 0.013888888888888888, 0.013888888888888888, 0.013888888888888888, 0.013888888888888888, 0.013888888888888888, 0.013888888888888888, 0.013888888888888888, 0.013888888888888888, 0.013888888888888888, 0.013888888888888888, 0.013888888888888888, 0.013888888888888888, 0.013888888888888888, 0.013888888888888888, 0.013888888888888888, 0.013888888888888888, 0.013888888888888888, 0.013888888888888888, 0.013888888888888888, 0.013888888888888888, 0.013888888888888888, 0.013888888888888888, 0.013888888888888888, 0.013888888888888888, 0.013888888888888888, 0.013888888888888888, 0.013888888888888888, 0.013888888888888888, 0.013888888888888888, 0.013888888888888888, 0.013888888888888888, 0.013888888888888888, 0.013888888888888888, 0.013888888888888888, 0.013888888888888888, 0.013888888888888888, 0.013888888888888888, 0.013888888888888888, 0.013888888888888888, 0.013888888888888888, 0.013888888888888888, 0.013888888888888888, 0.028703703703703703]"	"[-0.37037037037037035, -0.37037037037037035, -0.37037037037037035, -0.37037037037037035, -0.37037037037037035, -0.37037037037037035, -0.37037037037037035, -0.37037037037037035, -0.37037037037037035, -0.37037037037037035, -0.37037037037037035, -0.37037037037037035, -0.37037037037037035, -0.37037037037037035, -0.37037037037037035, -0.37037037037037035, -0.37037037037037035, -0.37037037037037035, -0.37037037037037035, -0.37037037037037035, -0.37037037037037035, -0.37037037037037035, -0.37037037037037035, -0.37037037037037035, -0.37037037037037035, -0.37037037037037035, -0.37037037037037035, -0.37037037037037035, -0.37037037037037035, -0.37037037037037035, -0.37037037037037035, -0.37037037037037035, -0.37037037037037035, -0.37037037037037035, -0.37037037037037035, -0.37037037037037035, -0.37037037037037035, -0.37037037037037035, -0.37037037037037035, -0.37037037037037035, -0.37037037037037035, -0.37037037037037035, -0.37037037037037035, -0.37037037037037035, -0.37037037037037035, -0.37037037037037035, -0.37037037037037035, -0.37037037037037035, -0.37037037037037035, -0.37037037037037035, -0.37037037037037035, -0.37037037037037035, -0.37037037037037035, -0.37037037037037035, -0.37037037037037035, -0.37037037037037035, -0.37037037037037035, -0.37037037037037035, -0.37037037037037035, -0.37037037037037035, -0.37037037037037035, -0.37037037037037035, -0.37037037037037035, -0.37037037037037035, -0.37037037037037035, -0.37037037037037035, -0.37037037037037035, -0.37037037037037035, -0.37037037037037035, -0.25925925925925924]"	"[1, 1, 1, 1, 1, 1, 1, 1, 1, 1, 1, 1, 1, 1, 1, 1, 1, 1, 1, 1, 1, 1, 1, 1, 1, 1, 1, 1, 1, 1, 1, 1, 1, 1, 1, 1, 1, 1, 1, 1, 1, 1, 1, 1, 1, 1, 1, 1, 1, 1, 1, 1, 1, 1, 1, 1, 1, 1, 1, 1, 1, 1, 1, 1, 1, 1, 1, 1, 1, 0]"	"[0, 0, 0, 0, 0, 0, 0, 0, 0, 0, 0, 0, 0, 0, 0, 0, 0, 0, 0, 0, 0, 0, 0, 0, 0, 0, 0, 0, 0, 0, 0, 0, 0, 0, 0, 0, 0, 0, 0, 0, 0, 0, 0, 0, 0, 0, 0, 0, 0, 0, 0, 0, 0, 0, 0, 0, 0, 0, 0, 0, 0, 0, 0, 0, 0, 0, 0, 0, 0, 0]"	"[0, 0, 0, 0, 0, 0, 0, 0, 0, 0, 0, 0, 0, 0, 0, 0, 0, 0, 0, 0, 0, 0, 0, 0, 0, 0, 0, 0, 0, 0, 0, 0, 0, 0, 0, 0, 0, 0, 0, 0, 0, 0, 0, 0, 0, 0, 0, 0, 0, 0, 0, 0, 0, 0, 0, 0, 0, 0, 0, 0, 0, 0, 0, 0, 0, 0, 0, 0, 0, 1]"	"[1.1836484000086784, 1.3669930002652109, 1.5255420003086329, 1.72555229999125, 1.917195700109005, 2.1005778000690043, 2.3005793001502752, 2.475560700055212, 2.692261300049722, 2.8756165001541376, 3.075603200122714, 3.3089526002295315, 3.5173193998634815, 3.767187800258398, 3.9921806999482214, 4.208861799910665, 4.417216999921948, 4.617210200056434, 4.817224999889731, 5.009064999874681, 5.225707599893212, 5.43434840021655, 5.6355726001784205, 5.825899800285697, 6.067485100124031, 6.284260000102222, 6.52572080027312, 6.767363000195473, 6.98404740029946, 7.2007256001234055, 7.417540700174868, 7.659382400102913, 7.909272100310773, 8.217578399926424, 8.500994100235403, 8.750849900301546, 8.992503700312227, 9.234434300102293, 9.492727099917829, 9.742589100264013, 9.98423960013315, 10.234421700239182, 10.476151800248772, 10.692807900253683, 10.917859999928623, 11.184313599951565, 11.459637599997222, 11.743980800267309, 12.026322999969125, 12.367791300173849, 12.667925500310957, 13.001249100081623, 13.292951200157404, 13.626310400199145, 14.02633950021118, 14.56790170026943, 14.984637999907136, 15.334611200261861, 15.60970350028947, 15.884798500221223, 16.20144660025835, 16.49319209996611, 16.768044200260192, 17.068212900310755, 17.343199800234288, 17.74309700028971, 18.2433752999641, 18.593191800173372, 19.226698100101203, 20.076827799901366]"	69	"[1.1816861000843346, 1.3650251002982259, 1.5235794000327587, 1.7235842999070883, 1.9152249000035226, 2.0986068001948297, 2.2986071999184787, 2.473587800282985, 2.690287100151181, 2.8736453000456095, 3.0736384000629187, 3.306983500253409, 3.515349800232798, 3.7652203999459743, 3.990211700089276, 4.206890100147575, 4.415243899915367, 4.606950200162828, 4.815257200039923, 5.007092600222677, 5.223733799997717, 5.432394000235945, 5.633760299999267, 5.823929899837822, 6.065517700277269, 6.282290100120008, 6.523748599924147, 6.765392399858683, 6.982075100298971, 7.198758200276643, 7.415575500112027, 7.657420999836177, 7.907298000063747, 8.21560369990766, 8.499025099910796, 8.748882099986076, 8.990531200077385, 9.232465100008994, 9.490756200160831, 9.74061550013721, 9.982273499947041, 10.23245170013979, 10.474189300090075, 10.690835299901664, 10.915899700019509, 11.182339400053024, 11.457666900008917, 11.742169300094247, 12.024354999884963, 12.365830200258642, 12.665958799887449, 12.999278999865055, 13.290979200042784, 13.624343200121075, 14.024369799997658, 14.565953299868852, 14.982666400261223, 15.332638500258327, 15.607731699943542, 15.882831300143152, 16.199478200171143, 16.49122460000217, 16.76608010008931, 17.0662457998842, 17.341233800165355, 17.741124300286174, 18.241405200213194, 18.591229500249028, 19.22472839988768]"	"[1.2482166001573205, 1.4399125999771059, 1.6232294999063015, 1.814944100100547, 2.0066072000190616, 2.190038800239563, 2.39836149988696, 2.5817911000922322, 2.765065100044012, 2.964988199993968, 3.1816659001633525, 3.3984297001734376, 3.615165099967271, 3.848386200144887, 4.073395899962634, 4.281738399993628, 4.4817599998787045, 4.6734358998946846, 4.890122599899769, 5.1068438002839684, 5.323474899865687, 5.5319846998900175, 5.731875600293279, 5.940218099858612, 6.156918100081384, 6.390416900161654, 6.631935299839824, 6.856917700264603, 7.073585200123489, 7.290281800087541, 7.531938800122589, 7.757175700273365, 8.023656700272113, 8.332017399836332, 8.590416800230742, 8.857072700280696, 9.10707679996267, 9.348729399964213, 9.598790700081736, 9.848778000101447, 10.090492700226605, 10.332305300049484, 10.582198000047356, 10.773875699844211, 11.023905499838293, 11.273869799915701, 11.573894999921322, 11.840679400134832, 12.107346199918538, 12.482283900026232, 12.773994400165975, 13.107353699859232, 13.390680700074881, 13.757438099943101, 14.149075400084257, 14.715779900085181, 15.090809899847955, 15.424177899956703, 15.699283999856561, 15.999245199840516, 16.307553899940103, 16.59937909990549, 16.88259829999879, 17.157603000290692, 17.449414500035346, 17.832684400025755, 18.357702699955553, 18.691152600105852, 19.341175300069153]"	256.959834400099	256.972897400148	258.464678199962	NA	NA	NA	NA	NA	NA	NA	NA	"05"	"01"	"2024-01-31_15h09.33.265"	"BART_exp"	"2023.2.3"	119.962187853916	"2024-01-31 15h09.45.763031 +0100"	NA
"balloon.png"	31	0	26	26	7	258.481301000342	NA	NA	NA	NA	NA	NA	NA	NA	NA	NA	NA	NA	258.464861200191	258.481301000342	258.481301000342	258.481301000342	258.481301000342	258.481301000342	0.00627799984067678	0.00627799984067678	0.00627799984067678	258.481301000342	266.283752300311	32	1.55	TRUE	"[-0.005555555555555556, -0.005555555555555556, -0.005555555555555556, -0.005555555555555556, -0.005555555555555556, -0.005555555555555556, -0.005555555555555556, -0.005555555555555556, -0.005555555555555556, -0.005555555555555556, -0.005555555555555556, -0.005555555555555556, -0.005555555555555556, -0.005555555555555556, -0.005555555555555556, -0.005555555555555556, -0.005555555555555556, -0.005555555555555556, -0.005555555555555556, -0.005555555555555556, -0.005555555555555556, -0.005555555555555556, -0.005555555555555556, -0.005555555555555556, -0.005555555555555556, -0.005555555555555556, -0.005555555555555556, -0.005555555555555556, -0.005555555555555556, -0.005555555555555556, -0.005555555555555556, -0.005555555555555556]"	"[-0.39444444444444443, -0.39444444444444443, -0.39444444444444443, -0.39444444444444443, -0.39444444444444443, -0.39444444444444443, -0.39444444444444443, -0.39444444444444443, -0.39444444444444443, -0.39444444444444443, -0.39444444444444443, -0.39444444444444443, -0.39444444444444443, -0.39444444444444443, -0.39444444444444443, -0.39351851851851855, -0.39351851851851855, -0.39351851851851855, -0.39351851851851855, -0.39351851851851855, -0.39351851851851855, -0.39351851851851855, -0.39351851851851855, -0.39351851851851855, -0.39351851851851855, -0.39351851851851855, -0.39351851851851855, -0.39351851851851855, -0.39351851851851855, -0.39351851851851855, -0.39351851851851855, -0.39351851851851855]"	"[1, 1, 1, 1, 1, 1, 1, 1, 1, 1, 1, 1, 1, 1, 1, 1, 1, 1, 1, 1, 1, 1, 1, 1, 1, 1, 1, 1, 1, 1, 1, 1]"	"[0, 0, 0, 0, 0, 0, 0, 0, 0, 0, 0, 0, 0, 0, 0, 0, 0, 0, 0, 0, 0, 0, 0, 0, 0, 0, 0, 0, 0, 0, 0, 0]"	"[0, 0, 0, 0, 0, 0, 0, 0, 0, 0, 0, 0, 0, 0, 0, 0, 0, 0, 0, 0, 0, 0, 0, 0, 0, 0, 0, 0, 0, 0, 0, 0]"	"[1.183853399939835, 1.3923168000765145, 1.5922139999456704, 1.7672784999012947, 1.9589180001057684, 2.183960000053048, 2.392258499749005, 2.6006080000661314, 2.80094589991495, 3.000635900069028, 3.200663900002837, 3.38398679997772, 3.5924558001570404, 3.8091731001622975, 4.009193200152367, 4.234302199911326, 4.45089459978044, 4.650967999827117, 4.884269199799746, 5.100940399803221, 5.325793799944222, 5.525808299891651, 5.74258239986375, 5.950976199936122, 6.167526199948043, 6.392587299924344, 6.601007499732077, 6.826047599781305, 7.059460499789566, 7.276081999763846, 7.5010999999940395, 7.726129499729723]"	32	"[1.1733494000509381, 1.3818084998056293, 1.5817157998681068, 1.7567775999195874, 1.9484076001681387, 2.1734525999054313, 2.3817493999376893, 2.590107799973339, 2.7904424997977912, 2.99013390019536, 3.190158899873495, 3.3734773001633584, 3.5819528000429273, 3.798669599927962, 3.9986874000169337, 4.223797400016338, 4.440387799870223, 4.64046509983018, 4.873760600108653, 5.09044020017609, 5.315285900142044, 5.5153069999068975, 5.732077999971807, 5.940470399800688, 6.157019400037825, 6.3820861000567675, 6.590501099824905, 6.815536899957806, 7.048955000005662, 7.265576899982989, 7.490595799870789, 7.715623400174081]"	"[1.256525400094688, 1.4732154998928308, 1.6565515999682248, 1.8482499001547694, 2.039938900154084, 2.248282100073993, 2.473281300161034, 2.6816338999196887, 2.873315100092441, 3.064984700176865, 3.264989099930972, 3.4733493998646736, 3.681695600040257, 3.881755900103599, 4.098406699951738, 4.331770500168204, 4.523547399789095, 4.74847779981792, 4.965135400183499, 5.190195200033486, 5.390155199915171, 5.606875000055879, 5.815198900178075, 6.023520399816334, 6.240264900028706, 6.47359579987824, 6.690308500081301, 6.915239800233394, 7.140253900084645, 7.365314099937677, 7.5903210998512805, 7.7987003000453115]"	266.284875900019	266.290194500238	267.782149000093	267.790340400301	NA	NA	NA	NA	NA	NA	NA	"05"	"01"	"2024-01-31_15h09.33.265"	"BART_exp"	"2023.2.3"	119.962187853916	"2024-01-31 15h09.45.763031 +0100"	NA
"balloon.png"	27	0	27	27	6	267.790340400301	NA	NA	NA	NA	NA	NA	NA	NA	NA	NA	NA	NA	267.782331699971	267.790340400301	267.790340400301	267.790340400301	267.790340400301	267.790340400301	0.00552649982273578	NA	NA	267.790340400301	275.276132000145	28	1.35	TRUE	"[-0.037037037037037035, -0.03981481481481482, -0.03981481481481482, -0.03981481481481482, -0.03981481481481482, -0.03981481481481482, -0.03981481481481482, -0.03981481481481482, -0.03981481481481482, -0.03981481481481482, -0.03981481481481482, -0.03981481481481482, -0.03981481481481482, -0.03981481481481482, -0.03981481481481482, -0.03981481481481482, -0.03981481481481482, -0.03981481481481482, -0.03981481481481482, -0.03981481481481482, -0.03981481481481482, -0.03981481481481482, -0.03981481481481482, -0.03981481481481482, -0.03981481481481482, -0.03981481481481482, -0.03981481481481482, -0.03981481481481482]"	"[-0.3888888888888889, -0.38796296296296295, -0.38796296296296295, -0.38796296296296295, -0.38796296296296295, -0.38796296296296295, -0.38796296296296295, -0.38796296296296295, -0.38796296296296295, -0.38796296296296295, -0.38796296296296295, -0.38796296296296295, -0.38796296296296295, -0.38796296296296295, -0.38796296296296295, -0.38796296296296295, -0.38796296296296295, -0.38796296296296295, -0.38796296296296295, -0.38796296296296295, -0.38796296296296295, -0.38796296296296295, -0.38796296296296295, -0.38796296296296295, -0.38796296296296295, -0.38796296296296295, -0.38796296296296295, -0.38796296296296295]"	"[1, 1, 1, 1, 1, 1, 1, 1, 1, 1, 1, 1, 1, 1, 1, 1, 1, 1, 1, 1, 1, 1, 1, 1, 1, 1, 1, 1]"	"[0, 0, 0, 0, 0, 0, 0, 0, 0, 0, 0, 0, 0, 0, 0, 0, 0, 0, 0, 0, 0, 0, 0, 0, 0, 0, 0, 0]"	"[0, 0, 0, 0, 0, 0, 0, 0, 0, 0, 0, 0, 0, 0, 0, 0, 0, 0, 0, 0, 0, 0, 0, 0, 0, 0, 0, 0]"	"[0.8669469999149442, 1.0589516996406019, 1.28380459966138, 1.5088525000028312, 1.733853300102055, 1.9255659999325871, 2.1338901999406517, 2.358940999954939, 2.575418599881232, 2.808779399842024, 3.0504300999455154, 3.2922787996940315, 3.5520681999623775, 3.7839688998647034, 4.075753099750727, 4.359417099971324, 4.6671957997605205, 4.95905390009284, 5.209069800097495, 5.450582500081509, 5.675733699928969, 5.925782499834895, 6.175678399857134, 6.442331399768591, 6.675807599909604, 6.917524700053036, 7.1592374998144805, 7.392386399675161]"	28	"[0.865019700024277, 1.0570314000360668, 1.2818694999441504, 1.5069257002323866, 1.731922300066799, 1.9236389002762735, 2.1319573000073433, 2.3570127999410033, 2.573484499938786, 2.8068515001796186, 3.048498200252652, 3.290350600145757, 3.550299800001085, 3.782059600111097, 4.073823400307447, 4.357657300308347, 4.665263500064611, 4.957125300075859, 5.207138400059193, 5.448651300277561, 5.673799100331962, 5.923854700289667, 6.173758200369775, 6.44039550004527, 6.673878300003707, 6.915604300331324, 7.157307400368154, 7.390456800349057]"	"[0.9565592999570072, 1.1732554002664983, 1.3648923002183437, 1.598327700048685, 1.8232543002814054, 2.0234525999985635, 2.2399511002004147, 2.456664700061083, 2.6733349999412894, 2.906677700113505, 3.1316722999326885, 3.3734075999818742, 3.631735300179571, 3.8650714000687003, 4.140077200252563, 4.431763200089335, 4.765153800137341, 5.074880999978632, 5.306934799998999, 5.5235161003656685, 5.773549700155854, 6.0235410002060235, 6.2652875003404915, 6.540265100076795, 6.781919700093567, 7.006949200294912, 7.248841700144112, 7.481992000248283]"	275.277227499988	275.282439799979	276.774476600345	276.782569400035	NA	NA	NA	NA	NA	NA	NA	"05"	"01"	"2024-01-31_15h09.33.265"	"BART_exp"	"2023.2.3"	119.962187853916	"2024-01-31 15h09.45.763031 +0100"	NA
"balloon.png"	105	0	28	28	24	276.782569400035	NA	NA	NA	NA	NA	NA	NA	NA	NA	NA	NA	NA	276.774667399935	276.782569400035	276.782569400035	276.782569400035	276.782569400035	276.782569400035	0.00540219992399215	NA	NA	276.782569400035	283.718041100074	20	1	FALSE	"[-0.03888888888888889, -0.03888888888888889, -0.03888888888888889, -0.03888888888888889, -0.03888888888888889, -0.03888888888888889, -0.03888888888888889, -0.03888888888888889, -0.03888888888888889, -0.03888888888888889, -0.03888888888888889, -0.03888888888888889, -0.03888888888888889, -0.03888888888888889, -0.03888888888888889, -0.03888888888888889, -0.03888888888888889, -0.03888888888888889, -0.03888888888888889, -0.03888888888888889, -0.001851851851851852]"	"[-0.39166666666666666, -0.39166666666666666, -0.39166666666666666, -0.39166666666666666, -0.39166666666666666, -0.39166666666666666, -0.39166666666666666, -0.39166666666666666, -0.39166666666666666, -0.39166666666666666, -0.39166666666666666, -0.39166666666666666, -0.39166666666666666, -0.39166666666666666, -0.39166666666666666, -0.39166666666666666, -0.39166666666666666, -0.39166666666666666, -0.39166666666666666, -0.39166666666666666, -0.23796296296296296]"	"[1, 1, 1, 1, 1, 1, 1, 1, 1, 1, 1, 1, 1, 1, 1, 1, 1, 1, 1, 1, 0]"	"[0, 0, 0, 0, 0, 0, 0, 0, 0, 0, 0, 0, 0, 0, 0, 0, 0, 0, 0, 0, 0]"	"[0, 0, 0, 0, 0, 0, 0, 0, 0, 0, 0, 0, 0, 0, 0, 0, 0, 0, 0, 0, 1]"	"[0.5087883002124727, 0.7504195002838969, 0.9671101002022624, 1.183733600191772, 1.4085822999477386, 1.7504917001351714, 2.0169798000715673, 2.2503043999895453, 2.6420941003598273, 2.8587107001803815, 3.0672504999674857, 3.4589880001731217, 3.7005738001316786, 3.9921339000575244, 4.3090459001250565, 4.617170300334692, 4.917405500076711, 5.217205400113016, 5.583932800218463, 5.925805500242859, 6.942461600061506]"	20	"[0.506909899879247, 0.7485515000298619, 0.9652338996529579, 1.1818503998219967, 1.4066991000436246, 1.748611900024116, 2.0150949000380933, 2.2484226999804378, 2.6402099998667836, 2.8568254997953773, 3.065367799717933, 3.4571038000285625, 3.698689399752766, 3.9902571998536587, 4.307166199665517, 4.615289899986237, 4.915526200085878, 5.215320999734104, 5.582054500002414, 5.923932800069451]"	"[0.6316346996463835, 0.8315039998851717, 1.0482433997094631, 1.2565795998089015, 1.5149195999838412, 1.848360300064087, 2.0899368999525905, 2.348285600077361, 2.7317935996688902, 2.931773900054395, 3.1816690997220576, 3.5400920999236405, 3.7817317000590265, 4.073412999976426, 4.406769099645317, 4.673501200042665, 4.998457599896938, 5.315167000051588, 5.656834699679166, 6.023571699857712]"	283.718981100246	283.724672400393	285.216638199985	285.233107900247	NA	NA	NA	NA	NA	NA	NA	"05"	"01"	"2024-01-31_15h09.33.265"	"BART_exp"	"2023.2.3"	119.962187853916	"2024-01-31 15h09.45.763031 +0100"	NA
"balloon.png"	36	0	29	29	8	285.233107900247	NA	NA	NA	NA	NA	NA	NA	NA	NA	NA	NA	NA	285.216813100036	285.233107900247	285.233107900247	285.233107900247	285.233107900247	285.233107900247	-0.00091559998691082	-0.00091559998691082	-0.00091559998691082	285.233107900247	294.210673000198	37	1.8	TRUE	"[-0.016666666666666666, -0.016666666666666666, -0.014814814814814815, -0.013888888888888888, -0.013888888888888888, -0.014814814814814815, -0.01574074074074074, -0.01574074074074074, -0.01574074074074074, -0.013888888888888888, -0.011111111111111112, -0.011111111111111112, -0.011111111111111112, -0.011111111111111112, -0.011111111111111112, -0.011111111111111112, -0.011111111111111112, -0.011111111111111112, -0.011111111111111112, -0.011111111111111112, -0.011111111111111112, -0.011111111111111112, -0.011111111111111112, -0.011111111111111112, -0.011111111111111112, -0.011111111111111112, -0.011111111111111112, -0.011111111111111112, -0.011111111111111112, -0.011111111111111112, -0.011111111111111112, -0.011111111111111112, -0.011111111111111112, -0.011111111111111112, -0.011111111111111112, -0.011111111111111112, -0.011111111111111112]"	"[-0.40185185185185185, -0.40185185185185185, -0.39351851851851855, -0.39351851851851855, -0.39351851851851855, -0.39351851851851855, -0.39351851851851855, -0.39351851851851855, -0.39351851851851855, -0.3925925925925926, -0.3888888888888889, -0.3888888888888889, -0.3888888888888889, -0.3888888888888889, -0.3888888888888889, -0.3888888888888889, -0.3888888888888889, -0.3888888888888889, -0.3888888888888889, -0.3888888888888889, -0.3888888888888889, -0.3888888888888889, -0.3888888888888889, -0.3888888888888889, -0.3888888888888889, -0.3888888888888889, -0.3888888888888889, -0.3888888888888889, -0.3888888888888889, -0.3888888888888889, -0.3888888888888889, -0.3888888888888889, -0.3888888888888889, -0.3888888888888889, -0.3888888888888889, -0.3888888888888889, -0.3888888888888889]"	"[1, 1, 1, 1, 1, 1, 1, 1, 1, 1, 1, 1, 1, 1, 1, 1, 1, 1, 1, 1, 1, 1, 1, 1, 1, 1, 1, 1, 1, 1, 1, 1, 1, 1, 1, 1, 1]"	"[0, 0, 0, 0, 0, 0, 0, 0, 0, 0, 0, 0, 0, 0, 0, 0, 0, 0, 0, 0, 0, 0, 0, 0, 0, 0, 0, 0, 0, 0, 0, 0, 0, 0, 0, 0, 0]"	"[0, 0, 0, 0, 0, 0, 0, 0, 0, 0, 0, 0, 0, 0, 0, 0, 0, 0, 0, 0, 0, 0, 0, 0, 0, 0, 0, 0, 0, 0, 0, 0, 0, 0, 0, 0, 0]"	"[0.36713110003620386, 0.5836972002871335, 0.8003585003316402, 0.9920076001435518, 1.1837178999558091, 1.3837190000340343, 1.5921156001277268, 1.825553100090474, 2.067236500326544, 2.275655800011009, 2.4923799000680447, 2.7089678002521396, 2.9173695002682507, 3.1172641003504395, 3.3421626002527773, 3.56731850001961, 3.7838564002886415, 3.9755710000172257, 4.183886900078505, 4.4007529001683, 4.642424900084734, 4.867419900372624, 5.117598500102758, 5.367298800032586, 5.609131500124931, 5.859193600248545, 6.117391700390726, 6.375860400032252, 6.617515700403601, 6.892568100243807, 7.175754300318658, 7.409239700064063, 7.667614900041372, 7.959201700054109, 8.317515800241381, 8.601022399961948, 8.876058300025761]"	37	"[0.35896370001137257, 0.5755233000963926, 0.7921842001378536, 0.9838350000791252, 1.175547500140965, 1.3755450998432934, 1.583943400066346, 1.8173841000534594, 2.0590622001327574, 2.267487599980086, 2.4842183999717236, 2.700797500088811, 2.9091985002160072, 3.10909069981426, 3.3339931000955403, 3.5591493998654187, 3.775685300119221, 3.9674022998660803, 4.175718800164759, 4.392578899860382, 4.634251399897039, 4.859244800172746, 5.109427600167692, 5.359128300100565, 5.600964900106192, 5.851024200208485, 6.109219499863684, 6.367686599958688, 6.609345700126141, 6.884396600071341, 7.167600099928677, 7.401071100030094, 7.6594430999830365, 7.951029099989682, 8.309342700056732, 8.592855699826032, 8.867887699976563]"	"[0.4670044998638332, 0.6503539998084307, 0.8588005001656711, 1.0753544000908732, 1.2670303997583687, 1.4253671998158097, 1.668023199774325, 1.9170786999166012, 2.1420964999124408, 2.367106100078672, 2.558810300193727, 2.7838066001422703, 2.9838308999314904, 3.200520200189203, 3.4255392998456955, 3.64220040012151, 3.8588751000352204, 4.050548600032926, 4.258911000099033, 4.500570400152355, 4.7339355000294745, 4.967475099954754, 5.2173023000359535, 5.442375400103629, 5.692421599756926, 5.967418299987912, 6.192350700031966, 6.475719400215894, 6.700731600169092, 6.992419799789786, 7.267481599934399, 7.517453200183809, 7.784155199769884, 8.100958299823105, 8.417504000011832, 8.717557999771088, 8.975914599839598]"	294.211926300079	294.217052600347	295.709031300154	295.717154100072	NA	NA	NA	NA	NA	NA	NA	"05"	"01"	"2024-01-31_15h09.33.265"	"BART_exp"	"2023.2.3"	119.962187853916	"2024-01-31 15h09.45.763031 +0100"	NA
NA	NA	NA	NA	NA	NA	NA	NA	NA	NA	NA	NA	NA	NA	NA	NA	NA	NA	NA	NA	NA	NA	NA	NA	NA	NA	NA	NA	NA	NA	NA	NA	NA	NA	NA	NA	NA	NA	NA	NA	NA	NA	NA	NA	NA	NA	295.709067900199	295.717154100072	295.717154100072	303.418062100187	"space"	7.69264320004731	"None"	"05"	"01"	"2024-01-31_15h09.33.265"	"BART_exp"	"2023.2.3"	119.962187853916	"2024-01-31 15h09.45.763031 +0100"	NA
