"image"	"max_pumps"	"pump_loop.thisRepN"	"pump_loop.thisTrialN"	"pump_loop.thisN"	"pump_loop.thisIndex"	"thisRow.t"	"notes"	"Start.started"	"text_start.started"	"continue_start.started"	"mouse_start.started"	"Start.stopped"	"mouse_start.x"	"mouse_start.y"	"mouse_start.leftButton"	"mouse_start.midButton"	"mouse_start.rightButton"	"mouse_start.time"	"trials.started"	"stim_balloon.started"	"stim_balloon_burst.started"	"stim_balloon_burst.stopped"	"text_ballon_value.started"	"text_bank.started"	"mouse.started"	"sound_bang.started"	"sound_bang.stopped"	"button_balloon.started"	"trials.stopped"	"n_pumps"	"earnings"	"popped"	"mouse.x"	"mouse.y"	"mouse.leftButton"	"mouse.midButton"	"mouse.rightButton"	"mouse.time"	"button_balloon.numClicks"	"button_balloon.timesOn"	"button_balloon.timesOff"	"Feedback.started"	"text_feedback.started"	"Feedback.stopped"	"text_feedback.stopped"	"End.started"	"text_end.started"	"key_end.started"	"End.stopped"	"key_end.keys"	"key_end.rt"	"key_end.duration"	"participant"	"session"	"date"	"expName"	"psychopyVersion"	"frameRate"	"expStart"	"...61"
NA	NA	NA	NA	NA	NA	NA	NA	0.0354912000038894	0.0440757000033045	0.0440757000033045	0.0358236000029137	134.045528500006	"[0.7583333333333333]"	"[-0.3861111111111111]"	"[1]"	"[0]"	"[0]"	"[134.00911639998958]"	NA	NA	NA	NA	NA	NA	NA	NA	NA	NA	NA	NA	NA	NA	NA	NA	NA	NA	NA	NA	NA	NA	NA	NA	NA	NA	NA	NA	NA	NA	NA	NA	NA	NA	11	"03"	"2024-02-07_09h34.39.688"	"BART_exp"	"2023.2.3"	119.951395694418	"2024-02-07 09h34.50.150011 +0100"	NA
"balloon.png"	57	0	0	0	13	134.119906000007	NA	NA	NA	NA	NA	NA	NA	NA	NA	NA	NA	NA	134.053129699998	134.119906000007	134.119906000007	134.119906000007	134.119906000007	134.119906000007	0.00924529999610968	0.00924529999610968	0.00924529999610968	134.119906000007	142.380509299997	28	1.4	FALSE	"[-0.020370370370370372, -0.020370370370370372, -0.020370370370370372, -0.020370370370370372, -0.020370370370370372, -0.020370370370370372, -0.020370370370370372, -0.020370370370370372, -0.020370370370370372, -0.020370370370370372, -0.020370370370370372, -0.020370370370370372, -0.020370370370370372, -0.020370370370370372, -0.020370370370370372, -0.020370370370370372, -0.020370370370370372, -0.020370370370370372, -0.020370370370370372, -0.020370370370370372, -0.020370370370370372, -0.020370370370370372, -0.020370370370370372, -0.020370370370370372, -0.020370370370370372, -0.020370370370370372, -0.020370370370370372, -0.020370370370370372, -0.020370370370370372]"	"[-0.4, -0.4, -0.4, -0.4, -0.4, -0.4, -0.4, -0.4, -0.4, -0.4, -0.4, -0.4, -0.4, -0.4, -0.4, -0.4, -0.4, -0.4, -0.4, -0.4, -0.4, -0.4, -0.4, -0.4, -0.4, -0.4, -0.4, -0.4, -0.4]"	"[1, 1, 1, 1, 1, 1, 1, 1, 1, 1, 1, 1, 1, 1, 1, 1, 1, 1, 1, 1, 1, 1, 1, 1, 1, 1, 1, 1, 0]"	"[0, 0, 0, 0, 0, 0, 0, 0, 0, 0, 0, 0, 0, 0, 0, 0, 0, 0, 0, 0, 0, 0, 0, 0, 0, 0, 0, 0, 0]"	"[0, 0, 0, 0, 0, 0, 0, 0, 0, 0, 0, 0, 0, 0, 0, 0, 0, 0, 0, 0, 0, 0, 0, 0, 0, 0, 0, 0, 1]"	"[1.7260708999965573, 1.9842567000014242, 2.2593754999979865, 2.492754499995499, 2.7260900999972364, 3.001000100004603, 3.2426484000025084, 3.467812800008687, 3.7345291999954497, 4.001048100006301, 4.251047600002494, 4.451169000007212, 4.66791980000562, 4.901268000001437, 5.11793839999882, 5.409462399999029, 5.626260500008357, 5.867973400003393, 6.092998799998895, 6.318003200009116, 6.634560400008922, 6.842875800008187, 7.017902100007632, 7.1846359000046505, 7.334745200001635, 7.5097572000086075, 7.6848120000067865, 7.843096099997638, 8.326453900008346]"	29	"[1.6728577000030782, 1.9310365999990609, 2.206154300001799, 2.43953319999855, 2.6728736000077333, 2.9477784000046086, 3.1894333000091137, 3.414595599999302, 3.6813124000036623, 3.9478245000063907, 4.197827199997846, 4.38952430000063, 4.61469990000478, 4.848047699997551, 5.06471550000424, 5.356243900008849, 5.57305050001014, 5.81475330000103, 6.039785400003893, 6.264783699996769, 6.581347900006222, 6.789654699998209, 6.9646778000023915, 7.131415600000764, 7.281524000005447, 7.456533700009459, 7.631600799999433, 7.789875300004496, 8.273170500004198]"	"[1.7559580000088317, 2.0475462000031257, 2.3059228000056464, 2.5476024000090547, 2.789300300006289, 3.089280600004713, 3.314330900000641, 3.556156699996791, 3.8309851000085473, 4.064438800007338, 4.3060200000036275, 4.506174299996928, 4.722707900000387, 4.964391200002865, 5.181110300007276, 5.439414400010719, 5.68960280000465, 5.931138400002965, 6.139462600011029, 6.347848400007933, 6.672833500007982, 6.881237499997951, 7.056196800011094, 7.206218599996646, 7.381240500006243, 7.5478991999989375, 7.723071800006437, 7.897973700004513, 8.273175100010121]"	142.382043799997	142.395390300007	143.887298100002	NA	NA	NA	NA	NA	NA	NA	NA	11	"03"	"2024-02-07_09h34.39.688"	"BART_exp"	"2023.2.3"	119.951395694418	"2024-02-07 09h34.50.150011 +0100"	NA
"balloon.png"	23	0	1	1	5	143.903907500004	NA	NA	NA	NA	NA	NA	NA	NA	NA	NA	NA	NA	143.88747490001	143.903907500004	143.903907500004	143.903907500004	143.903907500004	143.903907500004	0.00685089999751653	0.00685089999751653	0.00685089999751653	143.903907500004	149.564717500005	24	1.15	TRUE	"[-0.020370370370370372, -0.020370370370370372, -0.020370370370370372, -0.020370370370370372, -0.020370370370370372, -0.020370370370370372, -0.020370370370370372, -0.020370370370370372, -0.020370370370370372, -0.020370370370370372, -0.020370370370370372, -0.020370370370370372, -0.020370370370370372, -0.020370370370370372, -0.020370370370370372, -0.020370370370370372, -0.020370370370370372, -0.020370370370370372, -0.020370370370370372, -0.020370370370370372, -0.020370370370370372, -0.020370370370370372, -0.020370370370370372, -0.020370370370370372]"	"[-0.4, -0.4, -0.4, -0.4, -0.4, -0.4, -0.4, -0.4, -0.4, -0.4, -0.4, -0.4, -0.4, -0.4, -0.4, -0.4, -0.4, -0.4, -0.4, -0.4, -0.4, -0.4, -0.4, -0.4]"	"[1, 1, 1, 1, 1, 1, 1, 1, 1, 1, 1, 1, 1, 1, 1, 1, 1, 1, 1, 1, 1, 1, 1, 1]"	"[0, 0, 0, 0, 0, 0, 0, 0, 0, 0, 0, 0, 0, 0, 0, 0, 0, 0, 0, 0, 0, 0, 0, 0]"	"[0, 0, 0, 0, 0, 0, 0, 0, 0, 0, 0, 0, 0, 0, 0, 0, 0, 0, 0, 0, 0, 0, 0, 0]"	"[0.31713959999615327, 0.5006697999924654, 0.7174037999939173, 0.917396099990583, 1.1090180999890435, 1.3256527999910759, 1.5338964999973541, 1.734077699991758, 1.942235399998026, 2.142280899992329, 2.350621699995827, 2.783963900001254, 3.009166899995762, 3.2758488999970723, 3.5840319999988424, 3.8007439999928465, 4.00078059999214, 4.225880199999665, 4.475905400002375, 4.6925781999889296, 4.917599299995345, 5.125789099998656, 5.375809799996205, 5.559154799993848]"	24	"[0.3085698999930173, 0.49210419999144506, 0.708830499992473, 0.9088264999882085, 1.100447599994368, 1.31708379999327, 1.5253250999958254, 1.7255107999953907, 1.9336616999935359, 2.133704099993338, 2.3420485999959055, 2.7754012999939732, 3.0005925000004936, 3.267277799997828, 3.575463299988769, 3.7921696999983396, 3.992210399999749, 4.217308699997375, 4.467333299995516, 4.684009099990362, 4.909028199996101, 5.117213099991204, 5.367234399993322, 5.550584500000696]"	"[0.4167680999962613, 0.6001453999924706, 0.8084480999968946, 1.0085230999975465, 1.1668271999951685, 1.3835192999977153, 1.6085085999948205, 1.8001765999943018, 2.000205199990887, 2.2085425999975996, 2.400219899995136, 2.8753843999875244, 3.133665099987411, 3.3919583999959286, 3.6754969999892637, 3.8836911999969743, 4.075444399990374, 4.3420551999879535, 4.542032899989863, 4.775407799999812, 5.050385599999572, 5.242074900001171, 5.442260399999213, 5.658779699995648]"	149.565772800008	149.5793156	151.071104900009	NA	NA	NA	NA	NA	NA	NA	NA	11	"03"	"2024-02-07_09h34.39.688"	"BART_exp"	"2023.2.3"	119.951395694418	"2024-02-07 09h34.50.150011 +0100"	NA
"balloon.png"	1	0	2	2	0	151.087733699998	NA	NA	NA	NA	NA	NA	NA	NA	NA	NA	NA	NA	151.071285600003	151.087733699998	151.087733699998	151.087733699998	151.087733699998	151.087733699998	0.00682519999099895	0.00682519999099895	0.00682519999099895	151.087733699998	153.681618300005	2	0.05	TRUE	"[-0.020370370370370372, -0.020370370370370372]"	"[-0.4, -0.4]"	"[1, 1]"	"[0, 0]"	"[0, 0]"	"[2.292581699992297, 2.4939359999989392]"	2	"[2.287915900000371, 2.489423600010923]"	"[2.404137500008801, 2.595845600008033]"	153.682165899998	153.687919100004	155.179872200009	155.196356	NA	NA	NA	NA	NA	NA	NA	11	"03"	"2024-02-07_09h34.39.688"	"BART_exp"	"2023.2.3"	119.951395694418	"2024-02-07 09h34.50.150011 +0100"	NA
"balloon.png"	114	0	3	3	26	155.196356	NA	NA	NA	NA	NA	NA	NA	NA	NA	NA	NA	NA	155.180059100006	155.196356	155.196356	155.196356	155.196356	155.196356	-0.00075799999467562	-0.00075799999467562	-0.00075799999467562	155.196356	160.614989199996	18	0.9	FALSE	"[-0.020370370370370372, -0.020370370370370372, -0.020370370370370372, -0.020370370370370372, -0.020370370370370372, -0.020370370370370372, -0.020370370370370372, -0.020370370370370372, -0.020370370370370372, -0.020370370370370372, -0.020370370370370372, -0.020370370370370372, -0.020370370370370372, -0.020370370370370372, -0.020370370370370372, -0.020370370370370372, -0.020370370370370372, -0.020370370370370372, -0.020370370370370372]"	"[-0.4, -0.4, -0.4, -0.4, -0.4, -0.4, -0.4, -0.4, -0.4, -0.4, -0.4, -0.4, -0.4, -0.4, -0.4, -0.4, -0.4, -0.4, -0.4]"	"[1, 1, 1, 1, 1, 1, 1, 1, 1, 1, 1, 1, 1, 1, 1, 1, 1, 1, 0]"	"[0, 0, 0, 0, 0, 0, 0, 0, 0, 0, 0, 0, 0, 0, 0, 0, 0, 0, 0]"	"[0, 0, 0, 0, 0, 0, 0, 0, 0, 0, 0, 0, 0, 0, 0, 0, 0, 0, 1]"	"[0.0338052000006428, 0.25864719999663066, 0.450305100006517, 0.6503824999963399, 0.8253192999982275, 0.9754856000072323, 1.1505581000092207, 1.6170378000097116, 2.3256313000019873, 2.5172592000017175, 2.7256309000076726, 2.925678400002653, 3.083856500001275, 3.242428600002313, 3.5090897000045516, 4.317381600005319, 4.584083499998087, 4.792404200008605, 5.43397910000931]"	19	"[0.027704099993570708, 0.2525305000017397, 0.4441894999908982, 0.6442686999944272, 0.8191993999935221, 0.9693688999977894, 1.144442099990556, 1.6109227999986615, 2.319521400000667, 2.511143199997605, 2.7195132999913767, 2.9195578999933787, 3.077738699998008, 3.236312499997439, 3.502971499998239, 4.311272199993255, 4.577965499993297, 4.786287900002208, 5.427797899988946]"	"[0.09404389999690466, 0.3523471999942558, 0.5023737000010442, 0.6857052999985171, 0.877489999998943, 1.044166799998493, 1.210753499995917, 1.685803999993368, 2.4193711999978404, 2.627496000000974, 2.810891899993294, 2.9775282999908086, 3.1525828000012552, 3.3359084999974584, 3.619301799990353, 4.460976899994421, 4.6693246999930125, 4.869347999992897, 5.427802499994868]"	160.615958299997	160.621773100007	162.113709199999	162.130156700005	NA	NA	NA	NA	NA	NA	NA	11	"03"	"2024-02-07_09h34.39.688"	"BART_exp"	"2023.2.3"	119.951395694418	"2024-02-07 09h34.50.150011 +0100"	NA
"balloon.png"	27	0	4	4	6	162.130156700005	NA	NA	NA	NA	NA	NA	NA	NA	NA	NA	NA	NA	162.113888499996	162.130156700005	162.130156700005	162.130156700005	162.130156700005	162.130156700005	-0.00076730000728275	-0.00076730000728275	-0.00076730000728275	162.130156700005	168.757691799998	28	1.35	TRUE	"[-0.019444444444444445, -0.019444444444444445, -0.019444444444444445, -0.018518518518518517, -0.018518518518518517, -0.018518518518518517, -0.018518518518518517, -0.018518518518518517, -0.018518518518518517, -0.018518518518518517, -0.018518518518518517, -0.018518518518518517, -0.018518518518518517, -0.018518518518518517, -0.018518518518518517, -0.018518518518518517, -0.018518518518518517, -0.018518518518518517, -0.018518518518518517, -0.018518518518518517, -0.018518518518518517, -0.018518518518518517, -0.018518518518518517, -0.018518518518518517, -0.018518518518518517, -0.018518518518518517, -0.018518518518518517, -0.018518518518518517]"	"[-0.40185185185185185, -0.40185185185185185, -0.40185185185185185, -0.4027777777777778, -0.4027777777777778, -0.4027777777777778, -0.4027777777777778, -0.4027777777777778, -0.4027777777777778, -0.4027777777777778, -0.4027777777777778, -0.4027777777777778, -0.4027777777777778, -0.4027777777777778, -0.4027777777777778, -0.4027777777777778, -0.4027777777777778, -0.4027777777777778, -0.4027777777777778, -0.4027777777777778, -0.4027777777777778, -0.4027777777777778, -0.4027777777777778, -0.4027777777777778, -0.4027777777777778, -0.4027777777777778, -0.4027777777777778, -0.4027777777777778]"	"[1, 1, 1, 1, 1, 1, 1, 1, 1, 1, 1, 1, 1, 1, 1, 1, 1, 1, 1, 1, 1, 1, 1, 1, 1, 1, 1, 1]"	"[0, 0, 0, 0, 0, 0, 0, 0, 0, 0, 0, 0, 0, 0, 0, 0, 0, 0, 0, 0, 0, 0, 0, 0, 0, 0, 0, 0]"	"[0, 0, 0, 0, 0, 0, 0, 0, 0, 0, 0, 0, 0, 0, 0, 0, 0, 0, 0, 0, 0, 0, 0, 0, 0, 0, 0, 0]"	"[0.49195910000707954, 0.9003311999986181, 1.1671165000007022, 1.4255430000048364, 1.6588442000065697, 1.8838092000078177, 2.0920671000058064, 2.2753962999995565, 2.458954800007632, 2.642238400003407, 2.8339214000006905, 3.067274000000907, 3.3004608000046574, 3.6921953999990365, 3.908846899998025, 4.10052480000013, 4.308867300002021, 4.517202800008818, 4.733894200006034, 4.9339686000021175, 5.192513100002543, 5.417475900001591, 5.625799300003564, 5.817479200006346, 6.017562499997439, 6.175842500000726, 6.359238999997615, 6.542487700004131]"	28	"[0.4895207999943523, 0.8978936999919824, 1.1646828999946592, 1.4231067999935476, 1.6564129000034882, 1.8813783999939915, 2.089630300004501, 2.2729690999985905, 2.456521400003112, 2.639802099991357, 2.8314872000046307, 3.0648437999916496, 3.2980280999909155, 3.6897609000006923, 3.906414800003404, 4.098093799999333, 4.306429299991578, 4.514763400002266, 4.7314612999907695, 4.931532000002335, 5.1900850999954855, 5.415042299995548, 5.623365999999805, 5.815043800001149, 6.015131599997403, 6.1734075999993365, 6.356805399991572, 6.54005579999648]"	"[0.5977740999951493, 1.0060565000021597, 1.2810994000028586, 1.5477840999956243, 1.7727810999931535, 1.9895668999961345, 2.1644636999990325, 2.3478174000047147, 2.5395392999926116, 2.739568299992243, 2.9395674999977928, 3.1395925999968313, 3.397887899991474, 3.7895739999949, 4.01459690000047, 4.206283899999107, 4.4229619999969145, 4.622976899991045, 4.856544800000847, 5.073042399992119, 5.306420599998091, 5.523039799998514, 5.723053599998821, 5.8980904999916675, 6.089777699991828, 6.256421999991289, 6.473168700002134, 6.6314854999945965]"	168.758791400003	168.763951900008	170.256019599998	170.263965100006	NA	NA	NA	NA	NA	NA	NA	11	"03"	"2024-02-07_09h34.39.688"	"BART_exp"	"2023.2.3"	119.951395694418	"2024-02-07 09h34.50.150011 +0100"	NA
"balloon.png"	127	0	5	5	29	170.263965100006	NA	NA	NA	NA	NA	NA	NA	NA	NA	NA	NA	NA	170.256212499997	170.263965100006	170.263965100006	170.263965100006	170.263965100006	170.263965100006	0.00523490000341553	NA	NA	170.263965100006	175.316107999999	21	1.05	FALSE	"[-0.037037037037037035, -0.037037037037037035, -0.037037037037037035, -0.037037037037037035, -0.037037037037037035, -0.037037037037037035, -0.037037037037037035, -0.037037037037037035, -0.037037037037037035, -0.037037037037037035, -0.037037037037037035, -0.037037037037037035, -0.037037037037037035, -0.037037037037037035, -0.037037037037037035, -0.037037037037037035, -0.037037037037037035, -0.037037037037037035, -0.037037037037037035, -0.037037037037037035, -0.037037037037037035, -0.037037037037037035]"	"[-0.4064814814814815, -0.4064814814814815, -0.4064814814814815, -0.4064814814814815, -0.4064814814814815, -0.4064814814814815, -0.4064814814814815, -0.4064814814814815, -0.4064814814814815, -0.4064814814814815, -0.4064814814814815, -0.4083333333333333, -0.4083333333333333, -0.4083333333333333, -0.4083333333333333, -0.4083333333333333, -0.4083333333333333, -0.4083333333333333, -0.4083333333333333, -0.4083333333333333, -0.4083333333333333, -0.4083333333333333]"	"[1, 1, 1, 1, 1, 1, 1, 1, 1, 1, 1, 1, 1, 1, 1, 1, 1, 1, 1, 1, 1, 0]"	"[0, 0, 0, 0, 0, 0, 0, 0, 0, 0, 0, 0, 0, 0, 0, 0, 0, 0, 0, 0, 0, 0]"	"[0, 0, 0, 0, 0, 0, 0, 0, 0, 0, 0, 0, 0, 0, 0, 0, 0, 0, 0, 0, 0, 1]"	"[0.5002735000016401, 0.6587013999960618, 0.8255136999941897, 1.0087056999909692, 1.1920544999884441, 1.4002545999974245, 1.566918500000611, 1.77531659998931, 1.9503688999975566, 2.166972099992563, 2.3504776999907335, 2.6505028999963542, 2.875513499995577, 3.0838536999945063, 3.2422394999885, 3.4672147999954177, 3.7839978999982122, 4.050847499995143, 4.300608499994269, 4.542158899988863, 4.7089884000015445, 5.0589707999897655]"	22	"[0.4982501000049524, 0.6566800000000512, 0.8234854000038467, 1.0066779000044335, 1.1900254000065615, 1.398223500000313, 1.5648905000125524, 1.7732864000136033, 1.9483436000009533, 2.1649404000054346, 2.348446900010458, 2.6484749000082957, 2.8734833000053186, 3.0818250000011176, 3.2402144000079716, 3.4651891000103205, 3.7819684999994934, 4.0488192000048, 4.298582900009933, 4.540136600000551, 4.706960100011202, 5.056880500007537]"	"[0.5646822000126122, 0.716065400003572, 0.8980328000034206, 1.0897036000096705, 1.298073400001158, 1.489792700012913, 1.6564149000041652, 1.8231338000041433, 2.006465800004662, 2.2149064000113867, 2.514855700006592, 2.7565166000131285, 2.9565321000118274, 3.1398816000000807, 3.3484232000046177, 3.5732634000014514, 3.8649698000081116, 4.148307900002692, 4.423272400003043, 4.6316323000064585, 4.815021700007492, 5.056885000012699]"	175.317095699997	175.322730900007	176.814706600009	176.839533300008	NA	NA	NA	NA	NA	NA	NA	11	"03"	"2024-02-07_09h34.39.688"	"BART_exp"	"2023.2.3"	119.951395694418	"2024-02-07 09h34.50.150011 +0100"	NA
"balloon.png"	66	0	6	6	15	176.839533300008	NA	NA	NA	NA	NA	NA	NA	NA	NA	NA	NA	NA	176.814883700004	176.839533300008	176.839533300008	176.839533300008	176.839533300008	176.839533300008	-0.00085590001253876	-0.00085590001253876	-0.00085590001253876	176.839533300008	183.158192700008	28	1.4	FALSE	"[-0.03518518518518519, -0.03518518518518519, -0.03518518518518519, -0.03518518518518519, -0.03518518518518519, -0.03518518518518519, -0.03518518518518519, -0.03518518518518519, -0.03518518518518519, -0.03518518518518519, -0.03518518518518519, -0.03518518518518519, -0.03518518518518519, -0.03518518518518519, -0.03518518518518519, -0.03518518518518519, -0.03518518518518519, -0.03518518518518519, -0.03518518518518519, -0.03518518518518519, -0.03518518518518519, -0.03518518518518519, -0.03518518518518519, -0.03518518518518519, -0.03518518518518519, -0.03518518518518519, -0.03518518518518519, -0.03518518518518519]"	"[-0.38333333333333336, -0.38333333333333336, -0.38333333333333336, -0.38333333333333336, -0.38333333333333336, -0.38333333333333336, -0.38333333333333336, -0.38333333333333336, -0.38333333333333336, -0.38333333333333336, -0.38333333333333336, -0.38333333333333336, -0.38333333333333336, -0.38333333333333336, -0.38333333333333336, -0.38333333333333336, -0.38333333333333336, -0.38333333333333336, -0.38333333333333336, -0.38333333333333336, -0.38333333333333336, -0.38333333333333336, -0.38333333333333336, -0.38333333333333336, -0.38333333333333336, -0.38333333333333336, -0.38333333333333336, -0.38333333333333336]"	"[1, 1, 1, 1, 1, 1, 1, 1, 1, 1, 1, 1, 1, 1, 1, 1, 1, 1, 1, 1, 1, 1, 1, 1, 1, 1, 1, 0]"	"[0, 0, 0, 0, 0, 0, 0, 0, 0, 0, 0, 0, 0, 0, 0, 0, 0, 0, 0, 0, 0, 0, 0, 0, 0, 0, 0, 0]"	"[0, 0, 0, 0, 0, 0, 0, 0, 0, 0, 0, 0, 0, 0, 0, 0, 0, 0, 0, 0, 0, 0, 0, 0, 0, 0, 0, 1]"	"[0.20885929999349173, 0.3836431999952765, 0.5753412999911234, 0.8005439999978989, 1.0170440999936545, 1.2255293999915011, 1.4420608999935212, 1.6589187999925343, 1.8922794999962207, 2.1089377000025706, 2.317509799991967, 2.500622099993052, 2.692317199995159, 2.942442999992636, 3.1588429999974323, 3.417601299996022, 3.6102380999946035, 3.8340224999992643, 4.034165799996117, 4.225772199992207, 4.450778500002343, 4.909126800004742, 5.150702500002808, 5.359014100002241, 5.550682999994024, 5.742361399999936, 5.9673824999918, 6.342402900001616]"	28	"[0.1974740000005113, 0.3722479999996722, 0.5639508000022033, 0.7891550000058487, 1.005656799999997, 1.2141459999984363, 1.4224262000061572, 1.6475295999989612, 1.8808898999996018, 2.097547099998337, 2.3061233000044012, 2.489233800006332, 2.680930200003786, 2.931059800001094, 3.147476700003608, 3.4062102000025334, 3.5990155000035884, 3.8226379999978235, 4.022772199998144, 4.214380199991865, 4.439392600004794, 4.897741399996448, 5.1393108000047505, 5.347622200002661, 5.539291699999012, 5.730972899997141, 5.955995900003472, 6.33095200000389]"	"[0.28043650000472553, 0.4471583999984432, 0.6721464000002015, 0.8888294999924256, 1.1138923999969848, 1.3139123000000836, 1.513887099994463, 1.7555915999982972, 1.9472322999936296, 2.2139876000001095, 2.4139239999931306, 2.6058130000019446, 2.797324300001492, 3.014006099998369, 3.222308800002793, 3.5223236000019824, 3.714024700006121, 3.947423199992045, 4.147359900001902, 4.355787599997711, 4.555739300005371, 5.014273900000262, 5.255823700004839, 5.447539999993751, 5.647530300004291, 5.830827300000237, 6.064167399992584, 6.330956799996784]"	183.159282599998	183.164932700005	184.656935999999	184.673393300007	NA	NA	NA	NA	NA	NA	NA	11	"03"	"2024-02-07_09h34.39.688"	"BART_exp"	"2023.2.3"	119.951395694418	"2024-02-07 09h34.50.150011 +0100"	NA
"balloon.png"	5	0	7	7	1	184.673393300007	NA	NA	NA	NA	NA	NA	NA	NA	NA	NA	NA	NA	184.657120899996	184.673393300007	184.673393300007	184.673393300007	184.673393300007	184.673393300007	-0.00081899999349843	-0.00081899999349843	-0.00081899999349843	184.673393300007	189.700773999997	6	0.25	TRUE	"[-0.03518518518518519, -0.03518518518518519, -0.03518518518518519, -0.03518518518518519, -0.03518518518518519, -0.03518518518518519]"	"[-0.38333333333333336, -0.38333333333333336, -0.38333333333333336, -0.38333333333333336, -0.38333333333333336, -0.38333333333333336]"	"[1, 1, 1, 1, 1, 1]"	"[0, 0, 0, 0, 0, 0]"	"[0, 0, 0, 0, 0, 0]"	"[3.817343799993978, 3.992352799992659, 4.200719999993453, 4.367428999990807, 4.56742769999255, 4.9340432999888435]"	6	"[3.8081214999983786, 3.98312900000019, 4.191498100000899, 4.358229999998002, 4.5581994999956805, 4.924823099994683]"	"[3.916145499999402, 4.09949520000373, 4.282856599995284, 4.499514099996304, 4.841209999998682, 5.02461829999811]"	189.701448300009	189.707050500001	191.199036799997	191.215562700003	NA	NA	NA	NA	NA	NA	NA	11	"03"	"2024-02-07_09h34.39.688"	"BART_exp"	"2023.2.3"	119.951395694418	"2024-02-07 09h34.50.150011 +0100"	NA
"balloon.png"	31	0	8	8	7	191.215562700003	NA	NA	NA	NA	NA	NA	NA	NA	NA	NA	NA	NA	191.199216499997	191.215562700003	191.215562700003	191.215562700003	191.215562700003	191.215562700003	-0.00081449998833704	-0.00081449998833704	-0.00081449998833704	191.215562700003	196.075883400001	20	1	FALSE	"[-0.03518518518518519, -0.03518518518518519, -0.03518518518518519, -0.03518518518518519, -0.03518518518518519, -0.03518518518518519, -0.03518518518518519, -0.03518518518518519, -0.03518518518518519, -0.03518518518518519, -0.03518518518518519, -0.03518518518518519, -0.03518518518518519, -0.03518518518518519, -0.03518518518518519, -0.03518518518518519, -0.03518518518518519, -0.03518518518518519, -0.03518518518518519, -0.03518518518518519]"	"[-0.38333333333333336, -0.38333333333333336, -0.38333333333333336, -0.38333333333333336, -0.38333333333333336, -0.38333333333333336, -0.38333333333333336, -0.38333333333333336, -0.38333333333333336, -0.38333333333333336, -0.38333333333333336, -0.38333333333333336, -0.38333333333333336, -0.38333333333333336, -0.38333333333333336, -0.38333333333333336, -0.38333333333333336, -0.38333333333333336, -0.38333333333333336, -0.38333333333333336]"	"[1, 1, 1, 1, 1, 1, 1, 1, 1, 1, 1, 1, 1, 1, 1, 1, 1, 1, 1, 0]"	"[0, 0, 0, 0, 0, 0, 0, 0, 0, 0, 0, 0, 0, 0, 0, 0, 0, 0, 0, 0]"	"[0, 0, 0, 0, 0, 0, 0, 0, 0, 0, 0, 0, 0, 0, 0, 0, 0, 0, 0, 1]"	"[0.2587963999976637, 0.42544799999450333, 0.6086901999951806, 0.7836729999980889, 0.950340999988839, 1.3753722999972524, 1.5920963999960804, 1.8172099999937927, 2.0089529999968363, 2.192126999987522, 2.383770899992669, 2.5837882999912836, 2.7838740999868605, 3.309008399999584, 3.7173638999956893, 3.900705999985803, 4.084058399996138, 4.27580209998996, 4.459071599994786, 4.875762899988331]"	20	"[0.25182989999302663, 0.4184824999974808, 0.6017257999919821, 0.7767047999950591, 0.9433704999973997, 1.3684014999889769, 1.5851354999904288, 1.810242899999139, 2.0019851999968523, 2.1851585999975214, 2.3768069999932777, 2.576820999995107, 2.7769115999981295, 3.302041499991901, 3.7103941999957897, 3.8937411999941105, 4.07708809999167, 4.268831900000805, 4.452101399991079, 4.868729199995869]"	"[0.3348922000004677, 0.5015356999938376, 0.6598958999966271, 0.8432240999973146, 1.0015948999935063, 1.4682584999973187, 1.668357599992305, 1.8932919999933802, 2.0934185999940382, 2.276676299996325, 2.4599925999937113, 2.6516797999938717, 2.843359699996654, 3.4101141999999527, 3.8018932999984827, 4.001786199994967, 4.185132099999464, 4.385176700001466, 4.576930399998673, 4.86873370000103]"	196.076801400006	196.082497800002	197.574482299999	197.599257299997	NA	NA	NA	NA	NA	NA	NA	11	"03"	"2024-02-07_09h34.39.688"	"BART_exp"	"2023.2.3"	119.951395694418	"2024-02-07 09h34.50.150011 +0100"	NA
"balloon.png"	105	0	9	9	24	197.599257299997	NA	NA	NA	NA	NA	NA	NA	NA	NA	NA	NA	NA	197.574664800006	197.599257299997	197.599257299997	197.599257299997	197.599257299997	197.599257299997	-0.00075069999729748	-0.00075069999729748	-0.00075069999729748	197.599257299997	204.384796700004	30	1.5	FALSE	"[-0.03518518518518519, -0.03518518518518519, -0.03518518518518519, -0.03518518518518519, -0.03518518518518519, -0.03518518518518519, -0.03518518518518519, -0.03518518518518519, -0.03518518518518519, -0.03518518518518519, -0.03518518518518519, -0.03518518518518519, -0.03518518518518519, -0.03518518518518519, -0.03518518518518519, -0.03518518518518519, -0.03518518518518519, -0.03518518518518519, -0.03518518518518519, -0.03518518518518519, -0.03518518518518519, -0.03518518518518519, -0.03518518518518519, -0.03518518518518519, -0.03518518518518519, -0.03518518518518519, -0.03518518518518519, -0.03518518518518519, -0.03518518518518519, -0.03518518518518519]"	"[-0.38333333333333336, -0.38333333333333336, -0.38333333333333336, -0.38333333333333336, -0.38333333333333336, -0.38333333333333336, -0.38333333333333336, -0.38333333333333336, -0.38333333333333336, -0.38333333333333336, -0.38333333333333336, -0.38333333333333336, -0.38333333333333336, -0.38333333333333336, -0.38333333333333336, -0.38333333333333336, -0.38333333333333336, -0.38333333333333336, -0.38333333333333336, -0.38333333333333336, -0.38333333333333336, -0.38333333333333336, -0.38333333333333336, -0.38333333333333336, -0.38333333333333336, -0.38333333333333336, -0.38333333333333336, -0.38333333333333336, -0.38333333333333336, -0.38333333333333336]"	"[1, 1, 1, 1, 1, 1, 1, 1, 1, 1, 1, 1, 1, 1, 1, 1, 1, 1, 1, 1, 1, 1, 1, 1, 1, 1, 1, 1, 1, 0]"	"[0, 0, 0, 0, 0, 0, 0, 0, 0, 0, 0, 0, 0, 0, 0, 0, 0, 0, 0, 0, 0, 0, 0, 0, 0, 0, 0, 0, 0, 0]"	"[0, 0, 0, 0, 0, 0, 0, 0, 0, 0, 0, 0, 0, 0, 0, 0, 0, 0, 0, 0, 0, 0, 0, 0, 0, 0, 0, 0, 0, 1]"	"[0.15864340000553057, 0.38362350000534207, 0.5836229999986244, 0.7586527000094065, 0.9505772999982582, 1.1586550000065472, 1.3505740000109654, 1.5503679000103148, 1.7506285999988904, 1.950526100001298, 2.167070000010426, 2.367066500009969, 2.5587701000040397, 2.8004369999980554, 3.0089749000035226, 3.2006490000057966, 3.4339369000081206, 3.658971600001678, 3.8673791000037454, 4.425552100001369, 4.692430900002364, 4.967265500003123, 5.183949600002961, 5.408948399999645, 5.634151600010227, 5.859145900001749, 6.075832500006072, 6.2925053000071784, 6.500888499998837, 6.809208100006799]"	30	"[0.14724390000628773, 0.3722230999992462, 0.5722241000039503, 0.747254800007795, 0.9391807000065455, 1.14725229999749, 1.3391809000022477, 1.538968599998043, 1.7392311000003247, 1.9391280999989249, 2.1556826000014553, 2.3556677000015043, 2.547375699999975, 2.7890424000070198, 2.9975769000011496, 3.1892494000057923, 3.4225352000066778, 3.647571900000912, 3.855982599998242, 4.414156099999673, 4.6810394000058295, 4.955864300005487, 5.172555299999658, 5.397547900007339, 5.622752900002524, 5.847749099993962, 6.064438900008099, 6.2811038000072585, 6.489488200008054, 6.7977447000012035]"	"[0.2554667999938829, 0.497068800003035, 0.6554689000040526, 0.8554646999982651, 1.0471052000066265, 1.238781399995787, 1.4388307000044733, 1.6304688999953214, 1.8388271000003442, 2.04721079999581, 2.263888000001316, 2.4638941000011982, 2.655742700007977, 2.897292399997241, 3.0972522999945795, 3.3139817000046605, 3.5305994999944232, 3.764102700006333, 3.9570108000043547, 4.539177300001029, 4.847395899996627, 5.05580750000081, 5.2557422999962, 5.497584299999289, 5.7474214999965625, 5.964118000003509, 6.164125299997977, 6.397476500002085, 6.580867399999988, 6.797749200006365]"	204.386115800007	204.391409100004	205.883358999999	205.891491700007	NA	NA	NA	NA	NA	NA	NA	11	"03"	"2024-02-07_09h34.39.688"	"BART_exp"	"2023.2.3"	119.951395694418	"2024-02-07 09h34.50.150011 +0100"	NA
"balloon.png"	62	0	10	10	14	205.891491700007	NA	NA	NA	NA	NA	NA	NA	NA	NA	NA	NA	NA	205.883537500005	205.891491700007	205.891491700007	205.891491700007	205.891491700007	205.891491700007	0.00543940000352449	0.00543940000352449	0.00543940000352449	205.891491700007	216.618963300003	36	1.8	FALSE	"[-0.03518518518518519, -0.03518518518518519, -0.03518518518518519, -0.03518518518518519, -0.03518518518518519, -0.03518518518518519, -0.03518518518518519, -0.03518518518518519, -0.03518518518518519, -0.03518518518518519, -0.03518518518518519, -0.03518518518518519, -0.03518518518518519, -0.03518518518518519, -0.03518518518518519, -0.03518518518518519, -0.03518518518518519, -0.03518518518518519, -0.03518518518518519, -0.03518518518518519, -0.03518518518518519, -0.03518518518518519, -0.03518518518518519, -0.03518518518518519, -0.03518518518518519, -0.03518518518518519, -0.03518518518518519, -0.03518518518518519, -0.03518518518518519, -0.03518518518518519, -0.03518518518518519, -0.03518518518518519, -0.03518518518518519, -0.03518518518518519, -0.03518518518518519, -0.03518518518518519, -0.03518518518518519]"	"[-0.38333333333333336, -0.38333333333333336, -0.38333333333333336, -0.38333333333333336, -0.38333333333333336, -0.38333333333333336, -0.38333333333333336, -0.38333333333333336, -0.38333333333333336, -0.38333333333333336, -0.38333333333333336, -0.38333333333333336, -0.38333333333333336, -0.38333333333333336, -0.38333333333333336, -0.38333333333333336, -0.38333333333333336, -0.38333333333333336, -0.38333333333333336, -0.38333333333333336, -0.38333333333333336, -0.38333333333333336, -0.38333333333333336, -0.38333333333333336, -0.38333333333333336, -0.38333333333333336, -0.38333333333333336, -0.38333333333333336, -0.38333333333333336, -0.38333333333333336, -0.38333333333333336, -0.38333333333333336, -0.38333333333333336, -0.38333333333333336, -0.38333333333333336, -0.38333333333333336, -0.38333333333333336]"	"[1, 1, 1, 1, 1, 1, 1, 1, 1, 1, 1, 1, 1, 1, 1, 1, 1, 1, 1, 1, 1, 1, 1, 1, 1, 1, 1, 1, 1, 1, 1, 1, 1, 1, 1, 1, 0]"	"[0, 0, 0, 0, 0, 0, 0, 0, 0, 0, 0, 0, 0, 0, 0, 0, 0, 0, 0, 0, 0, 0, 0, 0, 0, 0, 0, 0, 0, 0, 0, 0, 0, 0, 0, 0, 0]"	"[0, 0, 0, 0, 0, 0, 0, 0, 0, 0, 0, 0, 0, 0, 0, 0, 0, 0, 0, 0, 0, 0, 0, 0, 0, 0, 0, 0, 0, 0, 0, 0, 0, 0, 0, 0, 1]"	"[0.05032999999821186, 0.29220599999825936, 0.5003346000012243, 0.6919739000004483, 0.9170270000031451, 1.1171568999998271, 1.3338614999956917, 1.5588625999953365, 1.7671917999978177, 2.008905599999707, 2.2170924999954877, 2.4172570999944583, 2.6254477000038605, 2.833875700001954, 3.067142400002922, 3.3019286999915494, 3.5089632000017446, 3.708990899991477, 3.917332900004112, 4.175787700005458, 4.409060499994666, 4.642260399996303, 4.850602999998955, 5.084107999995467, 6.0506730999914, 6.4177042999945115, 6.717638200003421, 6.950916000001598, 7.16762700000254, 7.700797500001499, 9.100902599995607, 9.50108739999996, 9.701064499997301, 9.884288600005675, 10.05095390000497, 10.201120800003991, 10.73448460000509]"	37	"[0.04833669999788981, 0.2902172000030987, 0.4983460999937961, 0.6899833000061335, 0.9067996999947354, 1.1151647999940906, 1.3318721999967238, 1.5568748000077903, 1.765197700005956, 2.006913599994732, 2.2151001000020187, 2.415269699995406, 2.6234579000010854, 2.831886100000702, 3.065149999994901, 3.300102599998354, 3.506971099996008, 3.7070033000054536, 3.915344199995161, 4.17379470000742, 4.407075800001621, 4.6402701000042725, 4.848610000000917, 5.082123000000138, 6.048687600006815, 6.415739799995208, 6.715649699995993, 6.948926900004153, 7.16564429999562, 7.698801899998216, 9.098909099993762, 9.499099099994055, 9.699071099996218, 9.882297899996047, 10.048966200003633, 10.199129300002824, 10.732426400005352]"	"[0.18145639999420382, 0.36488189999363385, 0.5815132999996422, 0.7731767000077525, 1.03152129999944, 1.2233299999934388, 1.448323899996467, 1.6650285000068834, 1.864970299997367, 2.098266400003922, 2.306621299998369, 2.523293799997191, 2.7399875999981305, 2.9484211999952095, 3.1733452000044053, 3.3900203999946825, 3.5983702999947127, 3.8247926000040025, 4.056726399998297, 4.290116799995303, 4.515201100002741, 4.76513139999588, 4.981821599998511, 5.190152700000908, 6.173548000006122, 6.548586799995974, 6.815294300002279, 7.081953600005363, 7.2819714000070235, 7.856995800000732, 9.207150400005048, 9.582151800001157, 9.782234500002232, 9.9419554000051, 10.098825399996713, 10.282246000002488, 10.732430699994438]"	216.620300199997	216.625576400009	218.117519499996	218.125662899998	NA	NA	NA	NA	NA	NA	NA	11	"03"	"2024-02-07_09h34.39.688"	"BART_exp"	"2023.2.3"	119.951395694418	"2024-02-07 09h34.50.150011 +0100"	NA
"balloon.png"	36	0	11	11	8	218.125662899998	NA	NA	NA	NA	NA	NA	NA	NA	NA	NA	NA	NA	218.117694100001	218.125662899998	218.125662899998	218.125662899998	218.125662899998	218.125662899998	0.00542469999345485	0.00542469999345485	0.00542469999345485	218.125662899998	226.961451099996	31	1.55	FALSE	"[-0.03518518518518519, -0.03518518518518519, -0.03518518518518519, -0.03518518518518519, -0.03518518518518519, -0.03518518518518519, -0.03518518518518519, -0.03518518518518519, -0.03518518518518519, -0.03518518518518519, -0.03518518518518519, -0.03518518518518519, -0.03518518518518519, -0.03518518518518519, -0.03518518518518519, -0.03518518518518519, -0.03518518518518519, -0.03518518518518519, -0.03518518518518519, -0.03518518518518519, -0.03518518518518519, -0.03518518518518519, -0.03518518518518519, -0.03518518518518519, -0.03518518518518519, -0.03518518518518519, -0.03518518518518519, -0.03518518518518519, -0.03518518518518519, -0.03518518518518519, -0.03518518518518519, -0.03518518518518519]"	"[-0.38333333333333336, -0.38333333333333336, -0.38333333333333336, -0.38333333333333336, -0.38333333333333336, -0.38333333333333336, -0.38333333333333336, -0.38333333333333336, -0.38333333333333336, -0.38333333333333336, -0.38333333333333336, -0.38333333333333336, -0.38333333333333336, -0.38333333333333336, -0.38333333333333336, -0.38333333333333336, -0.38333333333333336, -0.38333333333333336, -0.38333333333333336, -0.38333333333333336, -0.38333333333333336, -0.38333333333333336, -0.38333333333333336, -0.38333333333333336, -0.38333333333333336, -0.38333333333333336, -0.38333333333333336, -0.38333333333333336, -0.38333333333333336, -0.38333333333333336, -0.38333333333333336, -0.38333333333333336]"	"[1, 1, 1, 1, 1, 1, 1, 1, 1, 1, 1, 1, 1, 1, 1, 1, 1, 1, 1, 1, 1, 1, 1, 1, 1, 1, 1, 1, 1, 1, 1, 0]"	"[0, 0, 0, 0, 0, 0, 0, 0, 0, 0, 0, 0, 0, 0, 0, 0, 0, 0, 0, 0, 0, 0, 0, 0, 0, 0, 0, 0, 0, 0, 0, 0]"	"[0, 0, 0, 0, 0, 0, 0, 0, 0, 0, 0, 0, 0, 0, 0, 0, 0, 0, 0, 0, 0, 0, 0, 0, 0, 0, 0, 0, 0, 0, 0, 1]"	"[0.08391180000035092, 0.5756512999942061, 0.7256342000036966, 0.8922083999932511, 1.0587412000022596, 1.2170688999904087, 1.517303599990555, 1.7089343999978155, 1.908982399996603, 2.10910000000149, 2.3423442999919644, 2.5506406999920728, 2.767454499989981, 2.9507260999962455, 3.1340103999973508, 3.3838813999900594, 3.8507626999926288, 4.050577799993334, 4.259030899993377, 5.93427569999767, 6.159259499996551, 6.350936499991803, 6.550770999994711, 7.159231400000863, 7.359354999993229, 7.5260344999987865, 7.7009995999978855, 7.85938460000034, 8.084357699990505, 8.33437050000066, 8.526050799991935, 8.842837099989993]"	32	"[0.08198570000240579, 0.5737468000006629, 0.7237030999967828, 0.890283200002159, 1.0568093999900157, 1.2151359999988927, 1.515377100004116, 1.7070072999922559, 1.9070508000004338, 2.107167099995422, 2.3404138999903807, 2.548708100002841, 2.7655260000028647, 2.948798400000669, 3.1320822999987286, 3.38195860000269, 3.8488332999986596, 4.048643499991158, 4.257097699999576, 5.932347599999048, 6.157328100001905, 6.349007900003926, 6.548839800001588, 7.1573003999947105, 7.357429600000614, 7.524104199997964, 7.699070399990887, 7.857457599995541, 8.082433499992476, 8.332441799997468, 8.524122299990267, 8.840844599995762]"	"[0.19043789998977445, 0.6066719999944326, 0.798282100004144, 0.9649652999942191, 1.1233001999935368, 1.281662099994719, 1.6234726999973645, 1.8066859999962617, 2.0150533999985782, 2.2233863000001293, 2.423395799996797, 2.6484141999972053, 2.8567997999925865, 3.0318150999955833, 3.256812699997681, 3.4901385999983177, 3.9568230000004405, 4.16527589999896, 4.381864399998449, 6.040442199999234, 6.256989200002863, 6.457027999989805, 6.640412199994898, 7.2404050000041025, 7.448744699999224, 7.632170199998654, 7.79044719999365, 7.940432699993835, 8.215465899993433, 8.398860100001912, 8.632145900002797, 8.840849100000923]"	226.9625925	226.967963100004	228.459921700007	228.468042399996	NA	NA	NA	NA	NA	NA	NA	11	"03"	"2024-02-07_09h34.39.688"	"BART_exp"	"2023.2.3"	119.951395694418	"2024-02-07 09h34.50.150011 +0100"	NA
"balloon.png"	18	0	12	12	4	228.468042399996	NA	NA	NA	NA	NA	NA	NA	NA	NA	NA	NA	NA	228.460101300006	228.468042399996	228.468042399996	228.468042399996	228.468042399996	228.468042399996	0.00552809999499004	0.00552809999499004	0.00552809999499004	228.468042399996	232.745489100009	19	0.9	TRUE	"[-0.03518518518518519, -0.03518518518518519, -0.03518518518518519, -0.03518518518518519, -0.03518518518518519, -0.03518518518518519, -0.03518518518518519, -0.03518518518518519, -0.03518518518518519, -0.03518518518518519, -0.03518518518518519, -0.03518518518518519, -0.03518518518518519, -0.03518518518518519, -0.03518518518518519, -0.03518518518518519, -0.03518518518518519, -0.03518518518518519, -0.03518518518518519]"	"[-0.38333333333333336, -0.38333333333333336, -0.38333333333333336, -0.38333333333333336, -0.38333333333333336, -0.38333333333333336, -0.38333333333333336, -0.38333333333333336, -0.38333333333333336, -0.38333333333333336, -0.38333333333333336, -0.38333333333333336, -0.38333333333333336, -0.38333333333333336, -0.38333333333333336, -0.38333333333333336, -0.38333333333333336, -0.38333333333333336, -0.38333333333333336]"	"[1, 1, 1, 1, 1, 1, 1, 1, 1, 1, 1, 1, 1, 1, 1, 1, 1, 1, 1]"	"[0, 0, 0, 0, 0, 0, 0, 0, 0, 0, 0, 0, 0, 0, 0, 0, 0, 0, 0]"	"[0, 0, 0, 0, 0, 0, 0, 0, 0, 0, 0, 0, 0, 0, 0, 0, 0, 0, 0]"	"[0.20038339999155141, 0.3923406999965664, 0.5754936000012094, 0.7839055999938864, 1.0003349999897182, 1.2086897999979556, 1.4005192999902647, 1.5922024000028614, 1.792217399997753, 2.100535799996578, 2.3255703000031644, 2.567253699991852, 2.800449000002118, 3.0504691999958595, 3.283832999994047, 3.4838122999935877, 3.693713699991349, 3.9007662999938475, 4.134056099996087]"	19	"[0.19834020000416785, 0.3902949000039371, 0.5734476000070572, 0.7818574999982957, 0.9982821000012336, 1.2066782000038074, 1.3984663000010187, 1.5901553000003332, 1.7901675000030082, 2.098485200011055, 2.323525300002075, 2.565202199999476, 2.798410800009151, 3.0484215000033146, 3.2817806000093697, 3.481764000011026, 3.6918347000028007, 3.898715200004517, 4.1320087000058265]"	"[0.31474870000965893, 0.47309600000153296, 0.7064523000008194, 0.8481484000076307, 1.1231358000077307, 1.3314796000049682, 1.5064954999979818, 1.714839899999788, 1.9481916000077035, 2.239887700008694, 2.439933600006043, 2.6815829999977723, 2.9149419000023045, 3.1734416000108467, 3.389959899999667, 3.5983312000025762, 3.8317207000072813, 4.0484378000110155, 4.273343200009549]"	232.746413400004	232.751667799996	234.243616699998	234.260097899998	NA	NA	NA	NA	NA	NA	NA	11	"03"	"2024-02-07_09h34.39.688"	"BART_exp"	"2023.2.3"	119.951395694418	"2024-02-07 09h34.50.150011 +0100"	NA
"balloon.png"	97	0	13	13	22	234.260097899998	NA	NA	NA	NA	NA	NA	NA	NA	NA	NA	NA	NA	234.243794599999	234.260097899998	234.260097899998	234.260097899998	234.260097899998	234.260097899998	0.0137508999905549	NA	NA	234.260097899998	240.537133200007	29	1.45	FALSE	"[-0.03518518518518519, -0.03518518518518519, -0.03518518518518519, -0.03518518518518519, -0.03518518518518519, -0.03518518518518519, -0.03518518518518519, -0.03518518518518519, -0.03518518518518519, -0.03518518518518519, -0.03518518518518519, -0.03518518518518519, -0.03518518518518519, -0.03518518518518519, -0.03518518518518519, -0.03518518518518519, -0.03518518518518519, -0.03518518518518519, -0.03518518518518519, -0.03518518518518519, -0.03518518518518519, -0.03518518518518519, -0.03518518518518519, -0.03518518518518519, -0.03518518518518519, -0.03518518518518519, -0.03518518518518519, -0.03518518518518519, -0.03518518518518519]"	"[-0.38333333333333336, -0.38333333333333336, -0.38333333333333336, -0.38333333333333336, -0.38333333333333336, -0.38333333333333336, -0.38333333333333336, -0.38333333333333336, -0.38333333333333336, -0.38333333333333336, -0.38333333333333336, -0.38333333333333336, -0.38333333333333336, -0.38333333333333336, -0.38333333333333336, -0.38333333333333336, -0.38333333333333336, -0.38333333333333336, -0.38333333333333336, -0.38333333333333336, -0.38333333333333336, -0.38333333333333336, -0.38333333333333336, -0.38333333333333336, -0.38333333333333336, -0.38333333333333336, -0.38333333333333336, -0.38333333333333336, -0.38333333333333336]"	"[1, 1, 1, 1, 1, 1, 1, 1, 1, 1, 1, 1, 1, 1, 1, 1, 1, 1, 1, 1, 1, 1, 1, 1, 1, 1, 1, 1, 0]"	"[0, 0, 0, 0, 0, 0, 0, 0, 0, 0, 0, 0, 0, 0, 0, 0, 0, 0, 0, 0, 0, 0, 0, 0, 0, 0, 0, 0, 0]"	"[0, 0, 0, 0, 0, 0, 0, 0, 0, 0, 0, 0, 0, 0, 0, 0, 0, 0, 0, 0, 0, 0, 0, 0, 0, 0, 0, 0, 1]"	"[0.20865190000040457, 0.42534519999753684, 0.6672417999943718, 0.9003927000012482, 1.1003755999990972, 1.3087186999910045, 1.525638599996455, 1.7672463999915635, 1.9422747999924468, 2.200622899996233, 2.458844399996451, 2.6588334999978542, 2.867300600002636, 3.083858900004998, 3.3423680999985663, 3.5507787999958964, 3.7507241999992402, 3.950838199991267, 4.14253519999329, 4.342429800002719, 4.534180599992396, 4.775823799995123, 5.025660600003903, 5.25066560000414, 5.459009400001378, 5.659029799993732, 5.8340943999937735, 6.009064800004126, 6.292412700000568]"	29	"[0.2065093999990495, 0.42320309999922756, 0.665098899989971, 0.8982517999975244, 1.098232399992412, 1.3065743999904953, 1.5234981999965385, 1.7651043999940157, 1.9401313999987906, 2.1984812999871792, 2.4567030999896815, 2.6566858000005595, 2.8651550999929896, 3.081716899992898, 3.340226599990274, 3.5486418999935267, 3.748587599999155, 3.9487025999987964, 4.1403934999980265, 4.34028849999595, 4.532036899996456, 4.773681199993007, 5.0235131999943405, 5.2485235999920405, 5.456865799991647, 5.6568874999939, 5.83195789999445, 6.006917999999132, 6.290202999996836]"	"[0.3064497999876039, 0.531464399988181, 0.7897335999878123, 0.9814202999987174, 1.1980959999928018, 1.4147941999981413, 1.623155899986159, 1.8564659999974538, 2.0565602999995463, 2.331504399990081, 2.5648732999979984, 2.7648702999867965, 2.964890799994464, 3.1898965000000317, 3.4482964999915566, 3.6649303999874974, 3.8567100999935064, 4.064992999992683, 4.239971099988907, 4.414986499992665, 4.640019299986307, 4.890055399999255, 5.090039599992451, 5.348408099991502, 5.5650689999893075, 5.765081899997313, 5.931749399998807, 6.115158199987491, 6.290207499987446]"	240.538201100004	240.5438689	242.035875100002	242.060637999995	NA	NA	NA	NA	NA	NA	NA	11	"03"	"2024-02-07_09h34.39.688"	"BART_exp"	"2023.2.3"	119.951395694418	"2024-02-07 09h34.50.150011 +0100"	NA
"balloon.png"	14	0	14	14	3	242.060637999995	NA	NA	NA	NA	NA	NA	NA	NA	NA	NA	NA	NA	242.036051500007	242.060637999995	242.060637999995	242.060637999995	242.060637999995	242.060637999995	-0.00069600000279024	-0.00069600000279024	-0.00069600000279024	242.060637999995	245.096069799998	15	0.7	TRUE	"[-0.03518518518518519, -0.03518518518518519, -0.03518518518518519, -0.03518518518518519, -0.03518518518518519, -0.03518518518518519, -0.03518518518518519, -0.03518518518518519, -0.03518518518518519, -0.03518518518518519, -0.03518518518518519, -0.03518518518518519, -0.03518518518518519, -0.03518518518518519]"	"[-0.38333333333333336, -0.38333333333333336, -0.38333333333333336, -0.38333333333333336, -0.38333333333333336, -0.38333333333333336, -0.38333333333333336, -0.38333333333333336, -0.38333333333333336, -0.38333333333333336, -0.38333333333333336, -0.38333333333333336, -0.38333333333333336, -0.38333333333333336]"	"[1, 1, 1, 1, 1, 1, 1, 1, 1, 1, 1, 1, 1, 1]"	"[0, 0, 0, 0, 0, 0, 0, 0, 0, 0, 0, 0, 0, 0]"	"[0, 0, 0, 0, 0, 0, 0, 0, 0, 0, 0, 0, 0, 0]"	"[0.2087630000023637, 0.40042090001225006, 0.5921101000130875, 0.8336236000031931, 1.0004905000096187, 1.2169787000020733, 1.458679100003792, 1.6754720000026282, 1.8670217000035336, 2.0920352000102866, 2.283974100006162, 2.483760600007372, 2.708975700006704, 2.908926000003703]"	14	"[0.19836670000222512, 0.390030199996545, 0.5817207999934908, 0.8232278999930713, 0.9901021999976365, 1.206583999999566, 1.4482927999924868, 1.6650824999960605, 1.8566273000033107, 2.081644199992297, 2.2735801999951946, 2.47336639999412, 2.6985849000047892, 2.898541499991552]"	"[0.30640099999436643, 0.5147617000038736, 0.6897673999919789, 0.9147565000021132, 1.1148083000007318, 1.3064697999943746, 1.5564673000044422, 1.7814841999934288, 1.9648333999939496, 2.189843899992411, 2.3898593000049004, 2.5982479999947827, 2.831556000004639, 3.039885599995614]"	245.096850000002	245.102515699997	246.594489399999	246.6192973	NA	NA	NA	NA	NA	NA	NA	11	"03"	"2024-02-07_09h34.39.688"	"BART_exp"	"2023.2.3"	119.951395694418	"2024-02-07 09h34.50.150011 +0100"	NA
"balloon.png"	118	0	15	15	27	246.6192973	NA	NA	NA	NA	NA	NA	NA	NA	NA	NA	NA	NA	246.594667099998	246.6192973	246.6192973	246.6192973	246.6192973	246.6192973	-0.000866300004418	-0.000866300004418	-0.000866300004418	246.6192973	250.204636900002	18	0.9	FALSE	"[-0.03518518518518519, -0.03518518518518519, -0.03518518518518519, -0.03518518518518519, -0.03518518518518519, -0.03518518518518519, -0.03518518518518519, -0.03518518518518519, -0.03518518518518519, -0.03518518518518519, -0.03518518518518519, -0.03518518518518519, -0.03518518518518519, -0.03518518518518519, -0.03611111111111111, -0.03611111111111111, -0.03611111111111111, -0.03611111111111111, -0.03611111111111111]"	"[-0.38333333333333336, -0.38333333333333336, -0.38333333333333336, -0.38333333333333336, -0.38333333333333336, -0.38333333333333336, -0.38333333333333336, -0.38333333333333336, -0.38333333333333336, -0.38333333333333336, -0.38333333333333336, -0.38333333333333336, -0.38333333333333336, -0.38333333333333336, -0.38333333333333336, -0.38333333333333336, -0.38333333333333336, -0.38333333333333336, -0.38333333333333336]"	"[1, 1, 1, 1, 1, 1, 1, 1, 1, 1, 1, 1, 1, 1, 1, 1, 1, 1, 0]"	"[0, 0, 0, 0, 0, 0, 0, 0, 0, 0, 0, 0, 0, 0, 0, 0, 0, 0, 0]"	"[0, 0, 0, 0, 0, 0, 0, 0, 0, 0, 0, 0, 0, 0, 0, 0, 0, 0, 1]"	"[0.025401299993973225, 0.21735799999441952, 0.4005676999950083, 0.6338290999992751, 0.8088346000004094, 1.0338524999970105, 1.2172376999951666, 1.4005505999957677, 1.6506155999959446, 1.7923054999992019, 1.9422514000034425, 2.1256123000057414, 2.350724200005061, 2.550613400002476, 2.7673236999980872, 2.959038300003158, 3.142316400000709, 3.3088608999969438, 3.6090475999953924]"	19	"[0.013765399999101646, 0.20572579999861773, 0.38892690000648145, 0.6221884999977192, 0.7971970999933546, 1.022217699995963, 1.2056002000026638, 1.3889146000001347, 1.6389786999934586, 1.78066819999367, 1.9306112000049325, 2.113975100000971, 2.3390886999986833, 2.538972599999397, 2.7557082999992417, 2.9474006999953417, 3.1306777999998303, 3.297220799999195, 3.5973495000071125]"	"[0.10519529999874067, 0.31351880000147503, 0.5052197000040906, 0.7052720000065165, 0.913565099996049, 1.130260999998427, 1.305310700001428, 1.5053425999940373, 1.696966200004681, 1.8386336999974446, 2.0052989999967394, 2.222047699993709, 2.4637228999927174, 2.6637957000057213, 2.872043700001086, 3.063704100000905, 3.188714499992784, 3.3804150000069058, 3.597354199999245]"	250.205587700009	250.211194999996	251.703172699999	251.719628999999	NA	NA	NA	NA	NA	NA	NA	11	"03"	"2024-02-07_09h34.39.688"	"BART_exp"	"2023.2.3"	119.951395694418	"2024-02-07 09h34.50.150011 +0100"	NA
"balloon.png"	53	0	16	16	12	251.719628999999	NA	NA	NA	NA	NA	NA	NA	NA	NA	NA	NA	NA	251.703356600003	251.719628999999	251.719628999999	251.719628999999	251.719628999999	251.719628999999	-0.00095310001051984	-0.00095310001051984	-0.00095310001051984	251.719628999999	256.305015599995	21	1.05	FALSE	"[-0.03611111111111111, -0.03611111111111111, -0.03611111111111111, -0.03611111111111111, -0.03796296296296296, -0.03796296296296296, -0.03796296296296296, -0.03796296296296296, -0.03796296296296296, -0.03796296296296296, -0.03796296296296296, -0.03796296296296296, -0.03796296296296296, -0.03796296296296296, -0.03796296296296296, -0.03796296296296296, -0.03796296296296296, -0.03796296296296296, -0.03796296296296296, -0.03796296296296296, -0.03796296296296296, -0.03796296296296296]"	"[-0.38333333333333336, -0.38333333333333336, -0.38333333333333336, -0.38333333333333336, -0.38425925925925924, -0.38425925925925924, -0.38425925925925924, -0.38425925925925924, -0.38425925925925924, -0.38425925925925924, -0.38425925925925924, -0.38425925925925924, -0.38425925925925924, -0.38425925925925924, -0.38425925925925924, -0.38425925925925924, -0.38425925925925924, -0.38425925925925924, -0.38425925925925924, -0.38425925925925924, -0.38425925925925924, -0.38425925925925924]"	"[1, 1, 1, 1, 1, 1, 1, 1, 1, 1, 1, 1, 1, 1, 1, 1, 1, 1, 1, 1, 1, 0]"	"[0, 0, 0, 0, 0, 0, 0, 0, 0, 0, 0, 0, 0, 0, 0, 0, 0, 0, 0, 0, 0, 0]"	"[0, 0, 0, 0, 0, 0, 0, 0, 0, 0, 0, 0, 0, 0, 0, 0, 0, 0, 0, 0, 0, 1]"	"[0.07550050001009367, 0.27551440001116134, 0.46714340000471566, 0.6588616000080947, 0.8254808000056073, 1.0255492000142112, 1.2174093000066932, 1.4170570000133011, 1.608990000007907, 1.7921344000060344, 2.0087415000016335, 2.217097600005218, 2.4422684000019217, 2.6173317000066163, 2.808995600003982, 2.9671608000062406, 3.1755223000072874, 3.3755321000062395, 3.567382600012934, 3.7672189000004437, 4.092401100002462, 4.600737000000663]"	22	"[0.07279900000139605, 0.27281150000635535, 0.46445670000684913, 0.6561638999992283, 0.8227776000130689, 1.022847100000945, 1.2147098000132246, 1.414354500011541, 1.6062938000104623, 1.7894496000080835, 1.9977482000103919, 2.214397800009465, 2.4395707000076072, 2.614630300013232, 2.8063092000084, 2.964456400004565, 3.172817300001043, 3.3728301000082865, 3.5646809000027133, 3.7645138000079896, 4.089703700010432, 4.597971499999403]"	"[0.18911340000340715, 0.3724961000116309, 0.5391299000038998, 0.730828300002031, 0.9308874000125797, 1.0975315000105184, 1.31426630000351, 1.5143340000067838, 1.6975626000057673, 1.8892876000027172, 2.1059238000016194, 2.322607300011441, 2.5476149000023725, 2.731071800008067, 2.8976392000040505, 3.064348700005212, 3.2643384000111837, 3.480992700002389, 3.6726916000043275, 3.8977225000126055, 4.239410400012275, 4.597976100005326]"	256.305944000007	256.311634500002	257.803616300007	257.820052700001	NA	NA	NA	NA	NA	NA	NA	11	"03"	"2024-02-07_09h34.39.688"	"BART_exp"	"2023.2.3"	119.951395694418	"2024-02-07 09h34.50.150011 +0100"	NA
"balloon.png"	84	0	17	17	19	257.820052700001	NA	NA	NA	NA	NA	NA	NA	NA	NA	NA	NA	NA	257.803795900007	257.820052700001	257.820052700001	257.820052700001	257.820052700001	257.820052700001	-0.00058639999770093	-0.00058639999770093	-0.00058639999770093	257.820052700001	264.038778500006	28	1.4	FALSE	"[-0.03796296296296296, -0.03796296296296296, -0.03796296296296296, -0.03796296296296296, -0.03796296296296296, -0.03796296296296296, -0.03796296296296296, -0.03796296296296296, -0.03796296296296296, -0.03796296296296296, -0.03796296296296296, -0.03796296296296296, -0.03796296296296296, -0.03796296296296296, -0.03796296296296296, -0.03796296296296296, -0.03796296296296296, -0.03796296296296296, -0.03796296296296296, -0.03796296296296296, -0.03796296296296296, -0.03796296296296296, -0.03796296296296296, -0.03796296296296296, -0.03796296296296296, -0.03796296296296296, -0.03796296296296296, -0.03796296296296296, -0.03796296296296296]"	"[-0.38425925925925924, -0.38425925925925924, -0.38425925925925924, -0.38425925925925924, -0.38425925925925924, -0.38425925925925924, -0.38425925925925924, -0.38425925925925924, -0.38425925925925924, -0.38425925925925924, -0.38425925925925924, -0.38425925925925924, -0.38425925925925924, -0.38425925925925924, -0.38425925925925924, -0.38425925925925924, -0.38425925925925924, -0.38425925925925924, -0.38425925925925924, -0.38425925925925924, -0.38425925925925924, -0.38425925925925924, -0.38425925925925924, -0.38425925925925924, -0.38425925925925924, -0.38425925925925924, -0.38425925925925924, -0.38425925925925924, -0.38425925925925924]"	"[1, 1, 1, 1, 1, 1, 1, 1, 1, 1, 1, 1, 1, 1, 1, 1, 1, 1, 1, 1, 1, 1, 1, 1, 1, 1, 1, 1, 0]"	"[0, 0, 0, 0, 0, 0, 0, 0, 0, 0, 0, 0, 0, 0, 0, 0, 0, 0, 0, 0, 0, 0, 0, 0, 0, 0, 0, 0, 0]"	"[0, 0, 0, 0, 0, 0, 0, 0, 0, 0, 0, 0, 0, 0, 0, 0, 0, 0, 0, 0, 0, 0, 0, 0, 0, 0, 0, 0, 1]"	"[0.19206649999250658, 0.40041950000158977, 0.6006020000058925, 0.7839510000048904, 0.9935561000020243, 1.2004712000052677, 1.4170234000048367, 1.6587001000007149, 1.867015600000741, 2.0503958000044804, 2.2587170000042534, 2.492064999998547, 2.700537800003076, 2.9088933000020916, 3.100437699991744, 3.3006980999925872, 3.5088458999962313, 3.7090342000010423, 4.008888800002751, 4.200671099999454, 4.4090352000057464, 4.59240399999544, 4.77571899999748, 4.95915039999818, 5.175749000001815, 5.467268099993817, 5.642291099997237, 5.867304500003229, 6.234021700001904]"	29	"[0.18951609999930952, 0.3978629000048386, 0.5980502000020351, 0.7813993000017945, 0.9911572999990312, 1.1979201000067405, 1.4144688999949722, 1.6561407999979565, 1.8644612000061898, 2.0478394999954617, 2.2561610999982804, 2.4895147000061115, 2.697982300000149, 2.9063434999989113, 3.0978834999987157, 3.298143499996513, 3.5062888999964343, 3.7064779000065755, 4.006346800000756, 4.1981117999966955, 4.406475499999942, 4.589856699996744, 4.773161600009189, 4.956590100002359, 5.173197099997196, 5.4647122000023955, 5.639736600001925, 5.864748599997256, 6.231405400001677]"	"[0.28938380000181496, 0.4976870999962557, 0.6975743000075454, 0.897594800000661, 1.0976316000014776, 1.2976092000026256, 1.5309599000029266, 1.7643137999984901, 1.9643098000087775, 2.17266369999561, 2.381021499997587, 2.6060205999965547, 2.8227181999973254, 3.0227351000066847, 3.2061113999952795, 3.406090000004042, 3.622770000001765, 3.797772400008398, 4.114477199997054, 4.3061455999995815, 4.497816700008116, 4.689513000004808, 4.881197199996677, 5.039544500003103, 5.347892999998294, 5.564578699995764, 5.756242999996175, 6.014632499995059, 6.231410100008361]"	264.040150800007	264.045506299997	265.537433500009	265.545619600001	NA	NA	NA	NA	NA	NA	NA	11	"03"	"2024-02-07_09h34.39.688"	"BART_exp"	"2023.2.3"	119.951395694418	"2024-02-07 09h34.50.150011 +0100"	NA
"balloon.png"	44	0	18	18	10	265.545619600001	NA	NA	NA	NA	NA	NA	NA	NA	NA	NA	NA	NA	265.537606700003	265.545619600001	265.545619600001	265.545619600001	265.545619600001	265.545619600001	0.00552809999499004	0.00552809999499004	0.00552809999499004	265.545619600001	271.990922500001	28	1.4	FALSE	"[-0.03796296296296296, -0.03796296296296296, -0.03796296296296296, -0.03796296296296296, -0.03796296296296296, -0.03796296296296296, -0.03796296296296296, -0.03796296296296296, -0.03796296296296296, -0.03796296296296296, -0.03796296296296296, -0.03796296296296296, -0.03796296296296296, -0.03796296296296296, -0.03796296296296296, -0.03796296296296296, -0.03796296296296296, -0.03796296296296296, -0.03796296296296296, -0.03796296296296296, -0.03796296296296296, -0.03796296296296296, -0.03796296296296296, -0.03796296296296296, -0.03796296296296296, -0.03796296296296296, -0.03796296296296296, -0.03796296296296296, -0.03796296296296296]"	"[-0.38425925925925924, -0.38425925925925924, -0.38425925925925924, -0.38425925925925924, -0.38425925925925924, -0.38425925925925924, -0.38425925925925924, -0.38425925925925924, -0.38425925925925924, -0.38425925925925924, -0.38425925925925924, -0.38425925925925924, -0.38425925925925924, -0.38425925925925924, -0.38425925925925924, -0.38425925925925924, -0.38425925925925924, -0.38425925925925924, -0.38425925925925924, -0.38425925925925924, -0.38425925925925924, -0.38425925925925924, -0.38425925925925924, -0.38425925925925924, -0.38425925925925924, -0.38425925925925924, -0.38425925925925924, -0.38425925925925924, -0.38425925925925924]"	"[1, 1, 1, 1, 1, 1, 1, 1, 1, 1, 1, 1, 1, 1, 1, 1, 1, 1, 1, 1, 1, 1, 1, 1, 1, 1, 1, 1, 0]"	"[0, 0, 0, 0, 0, 0, 0, 0, 0, 0, 0, 0, 0, 0, 0, 0, 0, 0, 0, 0, 0, 0, 0, 0, 0, 0, 0, 0, 0]"	"[0, 0, 0, 0, 0, 0, 0, 0, 0, 0, 0, 0, 0, 0, 0, 0, 0, 0, 0, 0, 0, 0, 0, 0, 0, 0, 0, 0, 1]"	"[0.16714299999875948, 0.3420369999948889, 0.533696600003168, 0.7253809999965597, 0.9588593000080436, 1.158747499997844, 1.3756156000017654, 1.6173540000017965, 1.8673014999949373, 2.0755083999974886, 2.2921856000029948, 2.5255070999992313, 2.7591173999971943, 2.9924073000001954, 3.1924770000041462, 3.4257518999947933, 3.6257852999988245, 3.8507525000022724, 4.075625299999956, 4.317364899994573, 4.550762800005032, 4.758993099996587, 4.950856499999645, 5.1507046000042465, 5.3340337999979965, 5.576031899996451, 5.767564699999639, 5.975884200001019, 6.452361100004055]"	29	"[0.16520449999370612, 0.3400965999899199, 0.5317554999928689, 0.7234432999975979, 0.9569189000030747, 1.156813499997952, 1.3736834000010276, 1.6154175999981817, 1.8653635999944527, 2.0735748000006424, 2.290248999997857, 2.5235737999901175, 2.7571859000017866, 2.990467299998272, 3.190542500000447, 3.4238156999927014, 3.6238525999942794, 3.8488157999963732, 4.073687099997187, 4.3154257999995025, 4.548823099990841, 4.757054599991534, 4.9489208000013605, 5.1487621999986, 5.332111399999121, 5.574095299991313, 5.765635399991879, 5.973951699997997, 6.450366499993834]"	"[0.2732946999894921, 0.4399364999990212, 0.6399691999977222, 0.8483960000012303, 1.0649959000002127, 1.2983457999944221, 1.5400960999977542, 1.7400657999969553, 1.9733806000003824, 2.2067305999953533, 2.4400972000003094, 2.640080899989698, 2.8985354000033112, 3.1151338999916334, 3.32347019998997, 3.5318582999898354, 3.74014919999172, 3.9568683999968925, 4.206942999997409, 4.456873599992832, 4.681946199998492, 4.873587900001439, 5.073631399995065, 5.257078499998897, 5.46527669999341, 5.690302999995765, 5.8903005000029225, 6.098662299991702, 6.450371200000518]"	271.992152400009	271.996041899998	273.487987900007	273.496197300003	NA	NA	NA	NA	NA	NA	NA	11	"03"	"2024-02-07_09h34.39.688"	"BART_exp"	"2023.2.3"	119.951395694418	"2024-02-07 09h34.50.150011 +0100"	NA
"balloon.png"	10	0	19	19	2	273.496197300003	NA	NA	NA	NA	NA	NA	NA	NA	NA	NA	NA	NA	273.488168800002	273.496197300003	273.496197300003	273.496197300003	273.496197300003	273.496197300003	0.00410809999448247	0.00410809999448247	0.00410809999448247	273.496197300003	275.9399939	11	0.5	TRUE	"[-0.03796296296296296, -0.03796296296296296, -0.03796296296296296, -0.03796296296296296, -0.03796296296296296, -0.03796296296296296, -0.03796296296296296, -0.03796296296296296, -0.03796296296296296, -0.03796296296296296, -0.03796296296296296]"	"[-0.38425925925925924, -0.38425925925925924, -0.38425925925925924, -0.38425925925925924, -0.38425925925925924, -0.38425925925925924, -0.38425925925925924, -0.38425925925925924, -0.38425925925925924, -0.38425925925925924, -0.38425925925925924]"	"[1, 1, 1, 1, 1, 1, 1, 1, 1, 1, 1]"	"[0, 0, 0, 0, 0, 0, 0, 0, 0, 0, 0]"	"[0, 0, 0, 0, 0, 0, 0, 0, 0, 0, 0]"	"[0.09212929999921471, 0.4004620000050636, 0.6254782000032719, 0.7838214000075823, 1.0003628999984358, 1.1838340999966022, 1.383962000007159, 1.5837350000074366, 1.7922009000030812, 2.0422624000057112, 2.317128099995898]"	10	"[0.09022990000084974, 0.39856019998842385, 0.6235765999881551, 0.7819237999938196, 1.1819298999907915, 1.382058599992888, 1.5818293999909656, 1.7902941999927862, 2.0403574999945704, 2.315226699996856]"	"[0.28992949999519624, 0.5066392999870004, 0.6732926999975462, 1.0816709999926388, 1.2983413999900222, 1.481679799995618, 1.6900601999950595, 1.8983868999930564, 2.1651379999966593, 2.4400927999959094]"	275.940770300003	275.946353300009	277.43826380001	277.454733200007	NA	NA	NA	NA	NA	NA	NA	11	"03"	"2024-02-07_09h34.39.688"	"BART_exp"	"2023.2.3"	119.951395694418	"2024-02-07 09h34.50.150011 +0100"	NA
"balloon.png"	123	0	20	20	28	277.454733200007	NA	NA	NA	NA	NA	NA	NA	NA	NA	NA	NA	NA	277.438438700003	277.454733200007	277.454733200007	277.454733200007	277.454733200007	277.454733200007	-0.0009037999989232	-0.0009037999989232	-0.0009037999989232	277.454733200007	281.740098800001	22	1.1	FALSE	"[-0.03796296296296296, -0.03796296296296296, -0.03796296296296296, -0.03796296296296296, -0.03796296296296296, -0.03796296296296296, -0.03796296296296296, -0.03796296296296296, -0.03796296296296296, -0.03796296296296296, -0.03796296296296296, -0.03796296296296296, -0.03796296296296296, -0.03796296296296296, -0.03796296296296296, -0.03796296296296296, -0.03796296296296296, -0.03796296296296296, -0.03796296296296296, -0.03796296296296296, -0.03796296296296296, -0.03796296296296296]"	"[-0.38425925925925924, -0.38425925925925924, -0.38425925925925924, -0.38425925925925924, -0.38425925925925924, -0.38425925925925924, -0.38425925925925924, -0.38425925925925924, -0.38425925925925924, -0.38425925925925924, -0.38425925925925924, -0.38425925925925924, -0.38425925925925924, -0.38425925925925924, -0.38425925925925924, -0.38425925925925924, -0.38425925925925924, -0.38425925925925924, -0.38425925925925924, -0.38425925925925924, -0.38425925925925924, -0.38425925925925924]"	"[1, 1, 1, 1, 1, 1, 1, 1, 1, 1, 1, 1, 1, 1, 1, 1, 1, 1, 1, 1, 1, 0]"	"[0, 0, 0, 0, 0, 0, 0, 0, 0, 0, 0, 0, 0, 0, 0, 0, 0, 0, 0, 0, 0, 0]"	"[0, 0, 0, 0, 0, 0, 0, 0, 0, 0, 0, 0, 0, 0, 0, 0, 0, 0, 0, 0, 0, 1]"	"[0.15035009999701288, 0.3504887999879429, 0.5503402999893297, 0.7171739999903366, 0.9171728999936022, 1.1171983999956865, 1.3256106999906478, 1.533878399990499, 1.7420835999946576, 1.950625499986927, 2.1504837999964366, 2.3588126999966335, 2.592265299987048, 2.750529299999471, 2.925663399990299, 3.092329499995685, 3.2839897999947425, 3.4589993999979924, 3.6424378999945475, 3.8338726999936625, 4.017237699998077, 4.3007375999877695]"	22	"[0.14267329999711365, 0.3428112000110559, 0.5426684999983991, 0.7094939000089653, 0.9094993000035174, 1.1095162999990862, 1.3179288000101224, 1.526195700003882, 1.7344064000062644, 1.9429449000017485, 2.1428077000018675, 2.351131200004602, 2.5845858000102453, 2.742847500005155, 2.9179888000071514, 3.0846526000095764, 3.276306800005841, 3.451321700005792, 3.6347610000084387, 3.8261900000070455, 4.0095570999983465, 4.292993299997761]"	"[0.2508127000037348, 0.42585280000639614, 0.6341717000032077, 0.8342238000041107, 1.0342311999993399, 1.242667500002426, 1.434218399997917, 1.6259037999989232, 1.8342693000013242, 2.0510904000111623, 2.2509605000086594, 2.4593413999973563, 2.6426307000074303, 2.8593252999999095, 3.0176590000046417, 3.1760569000034593, 3.392817100000684, 3.5677426000038395, 3.742762499998207, 3.9344546000065748, 4.101158300007228, 4.292997600001399]"	281.741154000003	281.746692400004	283.238722099995	283.255134000006	NA	NA	NA	NA	NA	NA	NA	11	"03"	"2024-02-07_09h34.39.688"	"BART_exp"	"2023.2.3"	119.951395694418	"2024-02-07 09h34.50.150011 +0100"	NA
"balloon.png"	92	0	21	21	21	283.255134000006	NA	NA	NA	NA	NA	NA	NA	NA	NA	NA	NA	NA	283.238905000006	283.255134000006	283.255134000006	283.255134000006	283.255134000006	283.255134000006	-0.00090569999883882	-0.00090569999883882	-0.00090569999883882	283.255134000006	289.3989802	28	1.4	FALSE	"[-0.032407407407407406, -0.032407407407407406, -0.032407407407407406, -0.032407407407407406, -0.032407407407407406, -0.032407407407407406, -0.032407407407407406, -0.032407407407407406, -0.032407407407407406, -0.032407407407407406, -0.032407407407407406, -0.032407407407407406, -0.032407407407407406, -0.032407407407407406, -0.032407407407407406, -0.032407407407407406, -0.032407407407407406, -0.032407407407407406, -0.032407407407407406, -0.032407407407407406, -0.032407407407407406, -0.032407407407407406, -0.032407407407407406, -0.032407407407407406, -0.032407407407407406, -0.032407407407407406, -0.032407407407407406, -0.032407407407407406, -0.032407407407407406]"	"[-0.38425925925925924, -0.38425925925925924, -0.3861111111111111, -0.3861111111111111, -0.3861111111111111, -0.3861111111111111, -0.3861111111111111, -0.3861111111111111, -0.3861111111111111, -0.3861111111111111, -0.3861111111111111, -0.3861111111111111, -0.3861111111111111, -0.3861111111111111, -0.3861111111111111, -0.3861111111111111, -0.3861111111111111, -0.3861111111111111, -0.3861111111111111, -0.3861111111111111, -0.3861111111111111, -0.3861111111111111, -0.3861111111111111, -0.3861111111111111, -0.3861111111111111, -0.3861111111111111, -0.3861111111111111, -0.3861111111111111, -0.3861111111111111]"	"[1, 1, 1, 1, 1, 1, 1, 1, 1, 1, 1, 1, 1, 1, 1, 1, 1, 1, 1, 1, 1, 1, 1, 1, 1, 1, 1, 1, 0]"	"[0, 0, 0, 0, 0, 0, 0, 0, 0, 0, 0, 0, 0, 0, 0, 0, 0, 0, 0, 0, 0, 0, 0, 0, 0, 0, 0, 0, 0]"	"[0, 0, 0, 0, 0, 0, 0, 0, 0, 0, 0, 0, 0, 0, 0, 0, 0, 0, 0, 0, 0, 0, 0, 0, 0, 0, 0, 0, 1]"	"[0.09203210000123363, 0.33378760000050534, 0.5752875000034692, 0.7669536000030348, 0.9669763999991119, 1.1753317000111565, 1.3920188000047347, 1.5836994999990566, 1.7673120999970706, 1.9836867999983951, 2.167060300009325, 2.3754579000087688, 2.6004002999980003, 2.808736200007843, 3.033900000009453, 3.2422693999978947, 3.4756209000042873, 3.7339964999991935, 4.025753399997484, 4.259024600003613, 4.492372100008652, 4.717364900003304, 4.950559000004432, 5.150593200000003, 5.333932900000946, 5.509159399996861, 5.709117999998853, 5.867481900000712, 6.159135000008973]"	29	"[0.08466269999917131, 0.3264237000112189, 0.5679184000036912, 0.7595849000063026, 0.9596109000121942, 1.1679615000030026, 1.3846521000086796, 1.5763308000023244, 1.759967100006179, 1.9763143000018317, 2.159689600011916, 2.368093000011868, 2.5930321000050753, 2.801361200006795, 3.026526300003752, 3.2348969000013312, 3.4682488000107696, 3.7266290000115987, 4.018385400006082, 4.2516548999992665, 4.485002100002021, 4.709991399999126, 4.943189400000847, 5.143223999999464, 5.326556800006074, 5.501789800007828, 5.701744800011511, 5.860120700002881, 6.151701700000558]"	"[0.22606150001229253, 0.4343877000064822, 0.6511132000014186, 0.8678698000003351, 1.0844368000107352, 1.2761131000006571, 1.4677884000120685, 1.6678621000028215, 1.867865400010487, 2.0345238000008976, 2.2761864000058267, 2.492872700007865, 2.717892100001336, 2.909605900000315, 3.1345991999987746, 3.3931446000060532, 3.5929554000031203, 3.859901700008777, 4.1346870999987, 4.368001300012111, 4.6096951000072295, 4.826363900006982, 5.05977370000619, 5.251438300008886, 5.426397100003669, 5.609756100006052, 5.809832200000528, 6.009864999999991, 6.151706300006481]"	289.400091600008	289.405549500007	290.897553999996	290.905647899999	NA	NA	NA	NA	NA	NA	NA	11	"03"	"2024-02-07_09h34.39.688"	"BART_exp"	"2023.2.3"	119.951395694418	"2024-02-07 09h34.50.150011 +0100"	NA
"balloon.png"	49	0	22	22	11	290.905647899999	NA	NA	NA	NA	NA	NA	NA	NA	NA	NA	NA	NA	290.897741799999	290.905647899999	290.905647899999	290.905647899999	290.905647899999	290.905647899999	0.00561520000337623	0.00561520000337623	0.00561520000337623	290.905647899999	297.849520100004	34	1.7	FALSE	"[-0.030555555555555555, -0.030555555555555555, -0.030555555555555555, -0.030555555555555555, -0.030555555555555555, -0.030555555555555555, -0.030555555555555555, -0.030555555555555555, -0.030555555555555555, -0.030555555555555555, -0.030555555555555555, -0.030555555555555555, -0.030555555555555555, -0.030555555555555555, -0.030555555555555555, -0.030555555555555555, -0.030555555555555555, -0.030555555555555555, -0.030555555555555555, -0.030555555555555555, -0.030555555555555555, -0.030555555555555555, -0.030555555555555555, -0.030555555555555555, -0.030555555555555555, -0.030555555555555555, -0.030555555555555555, -0.030555555555555555, -0.030555555555555555, -0.030555555555555555, -0.030555555555555555, -0.030555555555555555, -0.030555555555555555, -0.030555555555555555]"	"[-0.3824074074074074, -0.3824074074074074, -0.3824074074074074, -0.3824074074074074, -0.3824074074074074, -0.3824074074074074, -0.3824074074074074, -0.3824074074074074, -0.3824074074074074, -0.3824074074074074, -0.3824074074074074, -0.3824074074074074, -0.3824074074074074, -0.3824074074074074, -0.3824074074074074, -0.3824074074074074, -0.3824074074074074, -0.3824074074074074, -0.3824074074074074, -0.3824074074074074, -0.3824074074074074, -0.3824074074074074, -0.3824074074074074, -0.3824074074074074, -0.3824074074074074, -0.3824074074074074, -0.3824074074074074, -0.3824074074074074, -0.3824074074074074, -0.3824074074074074, -0.3824074074074074, -0.3824074074074074, -0.3824074074074074, -0.3824074074074074]"	"[1, 1, 1, 1, 1, 1, 1, 1, 1, 1, 1, 1, 1, 1, 1, 1, 1, 1, 1, 1, 1, 1, 1, 1, 1, 1, 1, 1, 1, 1, 1, 1, 1, 0]"	"[0, 0, 0, 0, 0, 0, 0, 0, 0, 0, 0, 0, 0, 0, 0, 0, 0, 0, 0, 0, 0, 0, 0, 0, 0, 0, 0, 0, 0, 0, 0, 0, 0, 0]"	"[0, 0, 0, 0, 0, 0, 0, 0, 0, 0, 0, 0, 0, 0, 0, 0, 0, 0, 0, 0, 0, 0, 0, 0, 0, 0, 0, 0, 0, 0, 0, 0, 0, 1]"	"[0.15874140000960324, 0.3671061000059126, 0.5837699999974575, 0.7838954000035301, 0.9838039000023855, 1.1920100999996066, 1.4172184000053676, 1.6587946000072407, 1.8753911000094377, 2.0754298999963794, 2.258926700000302, 2.4422285000036936, 2.667273800005205, 2.8587915999960387, 3.033937900007004, 3.209000000002561, 3.4006323000066914, 3.5840624999982538, 3.792392800009111, 3.9756873000005726, 4.18403849999595, 4.375775699998485, 4.584114700002829, 4.800758700002916, 4.975736100008362, 5.192652500001714, 5.400772599998163, 5.592493000003742, 5.792477499999222, 5.984151600001496, 6.2258681999956025, 6.459054899998591, 6.68405850000272, 6.950863100006245]"	34	"[0.15669239999260753, 0.36505819999729283, 0.5817264999932377, 0.7818493999948259, 0.9817569000006188, 1.1899677999899723, 1.415170099993702, 1.6567548999883002, 1.873340999998618, 2.07337609998649, 2.2568750999926124, 2.4401795999874594, 2.6652245999866864, 2.856738199989195, 3.0318900999991456, 3.206946299993433, 3.3985847999865655, 3.5820109999913257, 3.790341999992961, 3.9736383999988902, 4.181995299994014, 4.373726399993757, 4.582065199996578, 4.79871409999032, 4.973686400000588, 5.190600799993263, 5.398729299995466, 5.5904455999989295, 5.790424099992379, 5.982098299995414, 6.223817199992482, 6.4570124999881955, 6.682012599994778, 6.948753599994234]"	"[0.28140069999790285, 0.4897554999915883, 0.6814311999914935, 0.8814652999863029, 1.0828629999887198, 1.3148151999921538, 1.5315012999926694, 1.773158699987107, 1.9816097000002628, 2.1648680999933276, 2.356594999990193, 2.548248799997964, 2.7649167999916244, 2.9567099999985658, 3.1232804999890504, 3.3149526999914087, 3.514946699986467, 3.690021099988371, 3.898443899990525, 4.090067599987378, 4.2900290999969, 4.456703899995773, 4.681707499999902, 4.873390699998708, 5.081735699990531, 5.265135299996473, 5.506909699994139, 5.7067874999920605, 5.8984635999950115, 6.123649099987233, 6.331822599997395, 6.548501999990549, 6.773531399987405, 6.948758099999395]"	297.8507044	297.856200900002	299.348125500008	299.356241800007	NA	NA	NA	NA	NA	NA	NA	11	"03"	"2024-02-07_09h34.39.688"	"BART_exp"	"2023.2.3"	119.951395694418	"2024-02-07 09h34.50.150011 +0100"	NA
"balloon.png"	101	0	23	23	23	299.356241800007	NA	NA	NA	NA	NA	NA	NA	NA	NA	NA	NA	NA	299.348313800001	299.356241800007	299.356241800007	299.356241800007	299.356241800007	299.356241800007	0.00559749999956693	0.00559749999956693	0.00559749999956693	299.356241800007	307.024986899996	34	1.7	FALSE	"[-0.030555555555555555, -0.030555555555555555, -0.030555555555555555, -0.030555555555555555, -0.030555555555555555, -0.030555555555555555, -0.030555555555555555, -0.030555555555555555, -0.030555555555555555, -0.030555555555555555, -0.030555555555555555, -0.030555555555555555, -0.030555555555555555, -0.030555555555555555, -0.030555555555555555, -0.030555555555555555, -0.030555555555555555, -0.030555555555555555, -0.030555555555555555, -0.030555555555555555, -0.030555555555555555, -0.030555555555555555, -0.030555555555555555, -0.030555555555555555, -0.030555555555555555, -0.030555555555555555, -0.030555555555555555, -0.030555555555555555, -0.030555555555555555, -0.030555555555555555, -0.030555555555555555, -0.030555555555555555, -0.030555555555555555, -0.030555555555555555, -0.030555555555555555]"	"[-0.3824074074074074, -0.3824074074074074, -0.3824074074074074, -0.3824074074074074, -0.3824074074074074, -0.3824074074074074, -0.3824074074074074, -0.3824074074074074, -0.3824074074074074, -0.3824074074074074, -0.3824074074074074, -0.3824074074074074, -0.3824074074074074, -0.3824074074074074, -0.3824074074074074, -0.3824074074074074, -0.3824074074074074, -0.3824074074074074, -0.3824074074074074, -0.3824074074074074, -0.3824074074074074, -0.3824074074074074, -0.3824074074074074, -0.3824074074074074, -0.3824074074074074, -0.3824074074074074, -0.3824074074074074, -0.3824074074074074, -0.3824074074074074, -0.3824074074074074, -0.3824074074074074, -0.3824074074074074, -0.3824074074074074, -0.3824074074074074, -0.3824074074074074]"	"[1, 1, 1, 1, 1, 1, 1, 1, 1, 1, 1, 1, 1, 1, 1, 1, 1, 1, 1, 1, 1, 1, 1, 1, 1, 1, 1, 1, 1, 1, 1, 1, 1, 1, 0]"	"[0, 0, 0, 0, 0, 0, 0, 0, 0, 0, 0, 0, 0, 0, 0, 0, 0, 0, 0, 0, 0, 0, 0, 0, 0, 0, 0, 0, 0, 0, 0, 0, 0, 0, 0]"	"[0, 0, 0, 0, 0, 0, 0, 0, 0, 0, 0, 0, 0, 0, 0, 0, 0, 0, 0, 0, 0, 0, 0, 0, 0, 0, 0, 0, 0, 0, 0, 0, 0, 0, 1]"	"[0.20040510001126677, 0.3921379000094021, 0.6170713000028627, 0.8503268000058597, 1.05031130000134, 1.2421382000029553, 1.4753472000011243, 1.6838807000021916, 1.8838242000056198, 2.1088619000074686, 2.308965600008378, 2.533911700011231, 2.7589383000013186, 2.9755959000031, 3.217134700011229, 3.408800200006226, 3.625528200005647, 3.892387300002156, 4.125680000011926, 4.342369200006942, 4.567481600010069, 4.808956900000339, 5.0589391000103205, 5.267284700006712, 5.500792500009993, 5.683976600004826, 5.875843000001623, 6.100809499999741, 6.292515500012087, 6.492502700013574, 6.734202400009963, 6.942540900010499, 7.150984700012486, 7.459091400000034, 7.675760800004355]"	35	"[0.19848890000139363, 0.39022270000714343, 0.6151531000068644, 0.8484032999986084, 1.0483951000060188, 1.2402226999984123, 1.4734267000021646, 1.6819586000056006, 1.8819020999944769, 2.1069381999986945, 2.307054799995967, 2.531989800001611, 2.7570157000009203, 2.9736778999940725, 3.2152149000030477, 3.406879999994999, 3.62360720000288, 3.8904654999932973, 4.123761499999091, 4.340448999995715, 4.565585000003921, 4.807039000006625, 5.057021800006623, 5.265361900004791, 5.498872099997243, 5.68205869999656, 5.873919699995895, 6.0988910000014585, 6.290597100000014, 6.490583699996932, 6.732287199993152, 6.940628800002742, 7.149072900007013, 7.45717130000412, 7.673773999995319]"	"[0.3065351999975974, 0.5232411000033608, 0.7232249999942724, 0.9399688999983482, 1.15658429999894, 1.3733440000069095, 1.60660729999654, 1.8066427000012482, 2.0401077999995323, 2.2316699999937555, 2.431710499993642, 2.648354200005997, 2.8983985999948345, 3.1150958000071114, 3.3317926000017906, 3.540110400004778, 3.773451600005501, 4.006786300000385, 4.248506100004306, 4.4901572999951895, 4.740169500000775, 4.923534400004428, 5.1653203000023495, 5.373740199996973, 5.590256199997384, 5.798790000000736, 5.998625699998229, 6.2235975000076, 6.4070773999992525, 6.607008899998618, 6.840316200003144, 7.048716799996328, 7.2736894999979995, 7.532029900001362, 7.673778500000481]"	307.026304800005	307.031759100006	308.5237299	308.531782799997	NA	NA	NA	NA	NA	NA	NA	11	"03"	"2024-02-07_09h34.39.688"	"BART_exp"	"2023.2.3"	119.951395694418	"2024-02-07 09h34.50.150011 +0100"	NA
"balloon.png"	88	0	24	24	20	308.531782799997	NA	NA	NA	NA	NA	NA	NA	NA	NA	NA	NA	NA	308.523902000001	308.531782799997	308.531782799997	308.531782799997	308.531782799997	308.531782799997	0.00556050000886898	0.00556050000886898	0.00556050000886898	308.531782799997	315.242349699998	30	1.5	FALSE	"[-0.03425925925925926, -0.03425925925925926, -0.03425925925925926, -0.03425925925925926, -0.03425925925925926, -0.03425925925925926, -0.03425925925925926, -0.03425925925925926, -0.03425925925925926, -0.03425925925925926, -0.03425925925925926, -0.03425925925925926, -0.03425925925925926, -0.03425925925925926, -0.03425925925925926, -0.03425925925925926, -0.03425925925925926, -0.03425925925925926, -0.014814814814814815, -0.014814814814814815, -0.014814814814814815, -0.014814814814814815, -0.014814814814814815, -0.013888888888888888, -0.011111111111111112, -0.011111111111111112, -0.011111111111111112, -0.011111111111111112, -0.011111111111111112, -0.011111111111111112]"	"[-0.3814814814814815, -0.3814814814814815, -0.3814814814814815, -0.3814814814814815, -0.3814814814814815, -0.3814814814814815, -0.3814814814814815, -0.3814814814814815, -0.3814814814814815, -0.3814814814814815, -0.3814814814814815, -0.3814814814814815, -0.3814814814814815, -0.3814814814814815, -0.3814814814814815, -0.3814814814814815, -0.3814814814814815, -0.3814814814814815, -0.37407407407407406, -0.37407407407407406, -0.37407407407407406, -0.37407407407407406, -0.37407407407407406, -0.3768518518518518, -0.37777777777777777, -0.37777777777777777, -0.37777777777777777, -0.37777777777777777, -0.37777777777777777, -0.37777777777777777]"	"[1, 1, 1, 1, 1, 1, 1, 1, 1, 1, 1, 1, 1, 1, 1, 1, 1, 1, 1, 1, 1, 1, 1, 1, 1, 1, 1, 1, 1, 0]"	"[0, 0, 0, 0, 0, 0, 0, 0, 0, 0, 0, 0, 0, 0, 0, 0, 0, 0, 0, 0, 0, 0, 0, 0, 0, 0, 0, 0, 0, 0]"	"[0, 0, 0, 0, 0, 0, 0, 0, 0, 0, 0, 0, 0, 0, 0, 0, 0, 0, 0, 0, 0, 0, 0, 0, 0, 0, 0, 0, 0, 1]"	"[0.1504521000024397, 0.34213429999363143, 0.5504820000060135, 0.7505066000012448, 0.9671800999931293, 1.2089771000028122, 1.4089687999949092, 1.6087719000061043, 1.8088945000054082, 2.0087860000057844, 2.242107300000498, 2.450480100000277, 2.642169400001876, 2.8588358999986667, 3.0772343999997247, 3.283885500000906, 3.4842119999957504, 3.709020900001633, 4.08401039999444, 4.283919599998626, 4.483925399996224, 4.725833399992553, 5.008981899998616, 5.250661500002025, 5.61749730000156, 5.859052400002838, 6.000884199995198, 6.142536999992444, 6.342545899999095, 6.71754250000231]"	30	"[0.14827649999642745, 0.33995819999836385, 0.5483053000061773, 0.7483341000042856, 0.965002299999469, 1.2069715999969048, 1.4067947000003187, 1.606595200006268, 1.8067140000057407, 2.006606599999941, 2.2399272000038764, 2.448309200000949, 2.639994500001194, 2.856656000003568, 3.0750582000036957, 3.281709300004877, 3.4820337999990443, 3.7068505000061123, 4.08184220000112, 4.281740599995828, 4.481755700006033, 4.7236539000005, 5.006802699994296, 5.248482900002273, 5.615318900003331, 5.85687340000004, 5.998712500004331, 6.14035960000183, 6.340367700002389, 6.715301799995359]"	"[0.27300850000756327, 0.4813388000038685, 0.6980505999963498, 0.8646761999989394, 1.0814711999992142, 1.3065327999938745, 1.531412199998158, 1.7313893999962602, 1.9397711000056006, 2.1314620000048308, 2.356555299993488, 2.5898011999961454, 2.782862699998077, 2.989857499997015, 3.1898369999980787, 3.3731934999959776, 3.5900572999962606, 3.8066876999946544, 4.198241300007794, 4.39826180000091, 4.598412599996664, 4.823287399995024, 5.13165619999927, 5.381676200006041, 5.715083699993556, 5.906696200006991, 6.073418100000708, 6.231716700000106, 6.4067346999945585, 6.715306800004328]"	315.243423100008	315.248984899998	316.740964800003	316.757451800004	NA	NA	NA	NA	NA	NA	NA	11	"03"	"2024-02-07_09h34.39.688"	"BART_exp"	"2023.2.3"	119.951395694418	"2024-02-07 09h34.50.150011 +0100"	NA
"balloon.png"	75	0	25	25	17	316.757451800004	NA	NA	NA	NA	NA	NA	NA	NA	NA	NA	NA	NA	316.741146400003	316.757451800004	316.757451800004	316.757451800004	316.757451800004	316.757451800004	-0.00087540000095032	-0.00087540000095032	-0.00087540000095032	316.757451800004	325.034734200002	40	2	FALSE	"[-0.01574074074074074, -0.01574074074074074, -0.01574074074074074, -0.01574074074074074, -0.01574074074074074, -0.01574074074074074, -0.01574074074074074, -0.01574074074074074, -0.01574074074074074, -0.01574074074074074, -0.01574074074074074, -0.01574074074074074, -0.01574074074074074, -0.01574074074074074, -0.01574074074074074, -0.01574074074074074, -0.01574074074074074, -0.01574074074074074, -0.01574074074074074, -0.01574074074074074, -0.01574074074074074, -0.01574074074074074, -0.01574074074074074, -0.01574074074074074, -0.01574074074074074, -0.01574074074074074, -0.01574074074074074, -0.01574074074074074, -0.01574074074074074, -0.01574074074074074, -0.01574074074074074, -0.01574074074074074, -0.01574074074074074, -0.01574074074074074, -0.01574074074074074, -0.01574074074074074, -0.01574074074074074, -0.01574074074074074, -0.01574074074074074, -0.01574074074074074]"	"[-0.3925925925925926, -0.3925925925925926, -0.3925925925925926, -0.3925925925925926, -0.3925925925925926, -0.3925925925925926, -0.3925925925925926, -0.3925925925925926, -0.3925925925925926, -0.3925925925925926, -0.3925925925925926, -0.3925925925925926, -0.3925925925925926, -0.3925925925925926, -0.3925925925925926, -0.3925925925925926, -0.3925925925925926, -0.3925925925925926, -0.3925925925925926, -0.3925925925925926, -0.3925925925925926, -0.3925925925925926, -0.3925925925925926, -0.3925925925925926, -0.3925925925925926, -0.3925925925925926, -0.3925925925925926, -0.3925925925925926, -0.3925925925925926, -0.3925925925925926, -0.3925925925925926, -0.3925925925925926, -0.3925925925925926, -0.3925925925925926, -0.3925925925925926, -0.3925925925925926, -0.3925925925925926, -0.3925925925925926, -0.3925925925925926, -0.3925925925925926]"	"[1, 1, 1, 1, 1, 1, 1, 1, 1, 1, 1, 1, 1, 1, 1, 1, 1, 1, 1, 1, 1, 1, 1, 1, 1, 1, 1, 1, 1, 1, 1, 1, 1, 1, 1, 1, 1, 1, 1, 0]"	"[0, 0, 0, 0, 0, 0, 0, 0, 0, 0, 0, 0, 0, 0, 0, 0, 0, 0, 0, 0, 0, 0, 0, 0, 0, 0, 0, 0, 0, 0, 0, 0, 0, 0, 0, 0, 0, 0, 0, 0]"	"[0, 0, 0, 0, 0, 0, 0, 0, 0, 0, 0, 0, 0, 0, 0, 0, 0, 0, 0, 0, 0, 0, 0, 0, 0, 0, 0, 0, 0, 0, 0, 0, 0, 0, 0, 0, 0, 0, 0, 1]"	"[0.21696049999445677, 0.41699979999975767, 0.6253317999944557, 0.8169828999962192, 1.0336912000057055, 1.242105500001344, 1.4670418000023346, 1.6755225000088103, 1.8922568999987561, 2.1172458000073675, 2.34231799999543, 2.5590198999998393, 2.7755504999950062, 3.0005813000025228, 3.2423123000044143, 3.47570860000269, 3.7007210000010673, 3.9340356000029715, 4.125698300005752, 4.392270800002734, 4.567395400008536, 4.7674400999967474, 4.967465299996547, 5.1591097000055015, 5.375644400002784, 5.584187000000384, 5.7923494999995455, 5.984009000007063, 6.150839299996733, 6.3258752999972785, 6.509206800008542, 6.709213199996157, 6.8925697000086075, 7.06755360000534, 7.250881900006789, 7.450779899998452, 7.642461099996581, 7.834141300001647, 7.992482400004519, 8.292669500006014]"	40	"[0.212259299994912, 0.4122995999932755, 0.6206290999980411, 0.8122780999983661, 1.0289877999894088, 1.237405599997146, 1.4623387999890838, 1.670821599996998, 1.8875532999954885, 2.1125382999889553, 2.3376143999921624, 2.5543149000004632, 2.770844400001806, 2.9958800000022165, 3.2376124000002164, 3.471004599996377, 3.6960171999962768, 3.929332899992005, 4.121004599990556, 4.387568299993291, 4.562686899997061, 4.762734499992803, 4.962766700002248, 5.154403499996988, 5.3709374999889405, 5.579480499989586, 5.787642700001015, 5.979305499990005, 6.146130599998287, 6.321171799994772, 6.504505999997491, 6.704510800002026, 6.8878690999990795, 7.062845899999957, 7.246178100001998, 7.4460783999966225, 7.637755299991113, 7.82943329999398, 7.987774900000659, 8.287905099990894]"	"[0.32047539998893626, 0.5121335000003455, 0.7288258999906247, 0.9371475999942049, 1.1454968999896664, 1.3538432999921497, 1.59550969999691, 1.8205707000015536, 2.0205416999961017, 2.2373675999988336, 2.4622399999934714, 2.670609799999511, 2.912444299989147, 3.1456335999973817, 3.3790567999967607, 3.620664100002614, 3.829026799998246, 4.054196500001126, 4.254118299999391, 4.487395299991476, 4.679063599993242, 4.887420599989127, 5.087436899993918, 5.262556100002257, 5.479131999993115, 5.687643700002809, 5.904150000002119, 6.070861599990167, 6.254182399992715, 6.44587669998873, 6.654291899991222, 6.820927299995674, 6.987551400001394, 7.179241699996055, 7.337601299994276, 7.546010599995498, 7.78766750000068, 7.912639399990439, 8.112654299999122, 8.287909499995294]"	325.036145400009	325.049675100003	326.541468800002	NA	NA	NA	NA	NA	NA	NA	NA	11	"03"	"2024-02-07_09h34.39.688"	"BART_exp"	"2023.2.3"	119.951395694418	"2024-02-07 09h34.50.150011 +0100"	NA
"balloon.png"	40	0	26	26	9	326.558097800007	NA	NA	NA	NA	NA	NA	NA	NA	NA	NA	NA	NA	326.541665099998	326.558097800007	326.558097800007	326.558097800007	326.558097800007	326.558097800007	0.00682860000233631	0.00682860000233631	0.00682860000233631	326.558097800007	332.360317900006	25	1.25	FALSE	"[-0.019444444444444445, -0.019444444444444445, -0.019444444444444445, -0.019444444444444445, -0.019444444444444445, -0.019444444444444445, -0.019444444444444445, -0.019444444444444445, -0.019444444444444445, -0.019444444444444445, -0.019444444444444445, -0.019444444444444445, -0.019444444444444445, -0.019444444444444445, -0.019444444444444445, -0.019444444444444445, -0.018518518518518517, -0.018518518518518517, -0.018518518518518517, -0.018518518518518517, -0.018518518518518517, -0.018518518518518517, -0.018518518518518517, -0.018518518518518517, -0.018518518518518517, -0.018518518518518517]"	"[-0.37222222222222223, -0.37222222222222223, -0.37222222222222223, -0.37222222222222223, -0.37222222222222223, -0.37222222222222223, -0.37222222222222223, -0.37222222222222223, -0.37222222222222223, -0.37222222222222223, -0.37222222222222223, -0.37222222222222223, -0.37222222222222223, -0.37222222222222223, -0.37222222222222223, -0.37222222222222223, -0.37222222222222223, -0.37222222222222223, -0.37222222222222223, -0.37222222222222223, -0.37222222222222223, -0.37222222222222223, -0.37222222222222223, -0.37222222222222223, -0.37222222222222223, -0.37222222222222223]"	"[1, 1, 1, 1, 1, 1, 1, 1, 1, 1, 1, 1, 1, 1, 1, 1, 1, 1, 1, 1, 1, 1, 1, 1, 1, 0]"	"[0, 0, 0, 0, 0, 0, 0, 0, 0, 0, 0, 0, 0, 0, 0, 0, 0, 0, 0, 0, 0, 0, 0, 0, 0, 0]"	"[0, 0, 0, 0, 0, 0, 0, 0, 0, 0, 0, 0, 0, 0, 0, 0, 0, 0, 0, 0, 0, 0, 0, 0, 0, 1]"	"[0.3920977999950992, 0.5754716999945231, 0.775485199992545, 0.9590019000024768, 1.1838642999937292, 1.3921756999916397, 1.6255060999974376, 1.900689499991131, 2.1272005999926478, 2.358905200002482, 2.575584499994875, 2.8090431000018725, 3.035247399995569, 3.2339661000005435, 3.459151599992765, 3.700924799995846, 3.9092233999981545, 4.134193599995342, 4.359186599991517, 4.567405399997369, 4.809071399999084, 5.034333699994022, 5.2592576000024565, 5.459432100004051, 5.642637700002524, 5.817647699994268]"	26	"[0.3879383000021335, 0.5713134000106947, 0.7713225000043167, 0.9548439000063809, 1.1797070000029635, 1.3880168000032427, 1.6213499000004958, 1.8965285000012955, 2.1232158000057098, 2.354746299999533, 2.5714224000112154, 2.8048923000023933, 3.031088300005649, 3.2298041000030935, 3.4549972000095295, 3.696766100008972, 3.905066800012719, 4.1300359000015305, 4.355026300007012, 4.563245299999835, 4.80491200000688, 5.030178600005456, 5.255098800000269, 5.455279300003895, 5.6384910000051605, 5.813433700008318]"	"[0.46281770001223776, 0.6711544999998296, 0.8794871999998577, 1.0630388999998104, 1.3045149000099627, 1.512905600000522, 1.746217300009448, 2.021228000012343, 2.2713414000027115, 2.4962714000139385, 2.7046040000132052, 2.929732700009481, 3.138000600010855, 3.329671400002553, 3.5880124000104843, 3.8047145000018645, 4.03803880000487, 4.296470300003421, 4.463151900010416, 4.663090300004114, 4.9216715000075055, 5.188111800001934, 5.371504500013543, 5.563167000000249, 5.738343200006057, 5.8134389000042574]"	332.361525400003	332.366878900008	333.858793100007	333.87526310001	NA	NA	NA	NA	NA	NA	NA	11	"03"	"2024-02-07_09h34.39.688"	"BART_exp"	"2023.2.3"	119.951395694418	"2024-02-07 09h34.50.150011 +0100"	NA
"balloon.png"	79	0	27	27	18	333.87526310001	NA	NA	NA	NA	NA	NA	NA	NA	NA	NA	NA	NA	333.858970300003	333.87526310001	333.87526310001	333.87526310001	333.87526310001	333.87526310001	0.0138020000013057	0.0138020000013057	0.0138020000013057	333.87526310001	344.261026799999	49	2.45	FALSE	"[-0.018518518518518517, -0.018518518518518517, -0.018518518518518517, -0.018518518518518517, -0.018518518518518517, -0.018518518518518517, -0.018518518518518517, -0.018518518518518517, -0.018518518518518517, -0.018518518518518517, -0.018518518518518517, -0.018518518518518517, -0.018518518518518517, -0.018518518518518517, -0.018518518518518517, -0.018518518518518517, -0.018518518518518517, -0.018518518518518517, -0.018518518518518517, -0.018518518518518517, -0.018518518518518517, -0.018518518518518517, -0.018518518518518517, -0.018518518518518517, -0.018518518518518517, -0.018518518518518517, -0.018518518518518517, -0.018518518518518517, -0.018518518518518517, -0.018518518518518517, -0.018518518518518517, -0.018518518518518517, -0.018518518518518517, -0.018518518518518517, -0.018518518518518517, -0.018518518518518517, -0.018518518518518517, -0.018518518518518517, -0.018518518518518517, -0.018518518518518517, -0.018518518518518517, -0.018518518518518517, -0.018518518518518517, -0.018518518518518517, -0.018518518518518517, -0.018518518518518517, -0.018518518518518517, -0.018518518518518517, -0.018518518518518517]"	"[-0.37222222222222223, -0.37222222222222223, -0.37222222222222223, -0.37222222222222223, -0.37222222222222223, -0.37222222222222223, -0.37222222222222223, -0.37222222222222223, -0.37222222222222223, -0.37222222222222223, -0.37222222222222223, -0.37222222222222223, -0.37222222222222223, -0.37222222222222223, -0.37222222222222223, -0.37222222222222223, -0.37222222222222223, -0.37222222222222223, -0.37222222222222223, -0.37222222222222223, -0.37222222222222223, -0.37222222222222223, -0.37222222222222223, -0.37222222222222223, -0.37222222222222223, -0.37222222222222223, -0.37222222222222223, -0.37222222222222223, -0.37222222222222223, -0.37222222222222223, -0.37222222222222223, -0.37222222222222223, -0.37222222222222223, -0.37222222222222223, -0.37222222222222223, -0.37222222222222223, -0.37222222222222223, -0.37222222222222223, -0.37222222222222223, -0.37222222222222223, -0.37222222222222223, -0.37222222222222223, -0.37222222222222223, -0.37222222222222223, -0.37222222222222223, -0.37222222222222223, -0.37222222222222223, -0.37222222222222223, -0.37222222222222223]"	"[1, 1, 1, 1, 1, 1, 1, 1, 1, 1, 1, 1, 1, 1, 1, 1, 1, 1, 1, 1, 1, 1, 1, 1, 1, 1, 1, 1, 1, 1, 1, 1, 1, 1, 1, 1, 1, 1, 1, 1, 1, 1, 1, 1, 1, 1, 1, 1, 0]"	"[0, 0, 0, 0, 0, 0, 0, 0, 0, 0, 0, 0, 0, 0, 0, 0, 0, 0, 0, 0, 0, 0, 0, 0, 0, 0, 0, 0, 0, 0, 0, 0, 0, 0, 0, 0, 0, 0, 0, 0, 0, 0, 0, 0, 0, 0, 0, 0, 0]"	"[0, 0, 0, 0, 0, 0, 0, 0, 0, 0, 0, 0, 0, 0, 0, 0, 0, 0, 0, 0, 0, 0, 0, 0, 0, 0, 0, 0, 0, 0, 0, 0, 0, 0, 0, 0, 0, 0, 0, 0, 0, 0, 0, 0, 0, 0, 0, 0, 1]"	"[0.1838320999959251, 0.39218629999959376, 0.6004839999950491, 0.8005023000005167, 0.9921988999994937, 1.2006290999997873, 1.4171913000027416, 1.6172436000051675, 1.8254547999968054, 2.033764899999369, 2.2172674000030383, 2.4256437000003643, 2.6341236000007484, 2.8421532999927877, 3.050525300001027, 3.2588757000048645, 3.5005753000004916, 3.7172008999914397, 3.9172137999994447, 4.117267900001025, 4.309078399994178, 4.51727490000485, 4.709053200000199, 4.917354799996247, 5.1258697000012035, 5.317477799995686, 5.525788900005864, 5.717457199993078, 5.9258435999945505, 6.125859099993249, 6.360788099991623, 6.5842144999915035, 6.80089830000361, 7.00093769999512, 7.234154699995997, 7.434113499999512, 7.625809399993159, 7.859166599999298, 8.075934199994663, 8.275851999991573, 8.475860999998986, 8.675922599999467, 8.87589239999943, 9.08553729999403, 9.275967800000217, 9.50928319999366, 9.701030500000343, 9.917808800004423, 10.401137399996514]"	49	"[0.18175489999703132, 0.3901049999985844, 0.5984083999937866, 0.7984203999949386, 0.9901217000006, 1.1985511999955634, 1.4151091999956407, 1.615167099997052, 1.8233755999972345, 2.0316910999972606, 2.2152110999886645, 2.4235693999944488, 2.632050199987134, 2.840069300000323, 3.0484436999977333, 3.256793499997002, 3.498491799997282, 3.715119799991953, 3.9151296999916667, 4.115191199991386, 4.307002099987585, 4.51519219999318, 4.706969599996228, 4.915272399986861, 5.12380969998776, 5.315403999993578, 5.523704799998086, 5.715377599990461, 5.923759699988295, 6.123775399988517, 6.3588622999959625, 6.58213429999887, 6.798817299990333, 6.998855799989542, 7.2320723999873735, 7.432032799988519, 7.623733999993419, 7.857091699988814, 8.0738577000011, 8.273769099992933, 8.473775299993576, 8.673849099999643, 8.873809799988521, 9.083609999986948, 9.273887599993031, 9.507199199986644, 9.698949699988589, 9.915725599988946, 10.39899059999152]"	"[0.3314213999983622, 0.5147747999872081, 0.7314783999900101, 0.9165186999889556, 1.1231744999968214, 1.3315154000010807, 1.5565041999943787, 1.7648426999949152, 1.9398469999869121, 2.156583899995894, 2.356592299998738, 2.548302399998647, 2.748396099996171, 2.9649454999889713, 3.164974799990887, 3.3996866999950726, 3.6149719999957597, 3.8233107999985805, 4.039988099990296, 4.24002610000025, 4.440025299991248, 4.648376899989671, 4.848397299996577, 5.048400699990452, 5.257034199996269, 5.440087499999208, 5.656900399990263, 5.84846639999887, 6.056838099990273, 6.248475599990343, 6.4818872999894666, 6.723630399996182, 6.923515999995288, 7.123554399993736, 7.340217199991457, 7.565354599995771, 7.748627599998144, 7.956920699987677, 8.173614200000884, 8.381973299998208, 8.58197939999809, 8.773698999997578, 8.990345499987598, 9.190393699987908, 9.37379990000045, 9.598711300001014, 9.798752199989394, 10.04049239998858, 10.398995299998205]"	344.262535300004	344.267680200006	345.759620900004	345.767745200006	NA	NA	NA	NA	NA	NA	NA	11	"03"	"2024-02-07_09h34.39.688"	"BART_exp"	"2023.2.3"	119.951395694418	"2024-02-07 09h34.50.150011 +0100"	NA
"balloon.png"	71	0	28	28	16	345.767745200006	NA	NA	NA	NA	NA	NA	NA	NA	NA	NA	NA	NA	345.759807900002	345.767745200006	345.767745200006	345.767745200006	345.767745200006	345.767745200006	0.00526900000113528	0.00526900000113528	0.00526900000113528	345.767745200006	353.6116721	37	1.85	FALSE	"[-0.018518518518518517, -0.018518518518518517, -0.018518518518518517, -0.018518518518518517, -0.018518518518518517, -0.018518518518518517, -0.018518518518518517, -0.018518518518518517, -0.018518518518518517, -0.018518518518518517, -0.018518518518518517, -0.018518518518518517, -0.018518518518518517, -0.018518518518518517, -0.018518518518518517, -0.018518518518518517, -0.018518518518518517, -0.018518518518518517, -0.018518518518518517, -0.018518518518518517, -0.018518518518518517, -0.018518518518518517, -0.018518518518518517, -0.018518518518518517, -0.018518518518518517, -0.018518518518518517, -0.018518518518518517, -0.018518518518518517, -0.018518518518518517, -0.018518518518518517, -0.018518518518518517, -0.018518518518518517, -0.018518518518518517, -0.018518518518518517, -0.018518518518518517, -0.018518518518518517, -0.018518518518518517, -0.018518518518518517]"	"[-0.37222222222222223, -0.37222222222222223, -0.37222222222222223, -0.37222222222222223, -0.37222222222222223, -0.37222222222222223, -0.37222222222222223, -0.37222222222222223, -0.37222222222222223, -0.37222222222222223, -0.37222222222222223, -0.37222222222222223, -0.37222222222222223, -0.37222222222222223, -0.37222222222222223, -0.37222222222222223, -0.37222222222222223, -0.37222222222222223, -0.37222222222222223, -0.37222222222222223, -0.37222222222222223, -0.37222222222222223, -0.37222222222222223, -0.37222222222222223, -0.37222222222222223, -0.37222222222222223, -0.37222222222222223, -0.37222222222222223, -0.37222222222222223, -0.37222222222222223, -0.37222222222222223, -0.37222222222222223, -0.37222222222222223, -0.37222222222222223, -0.37222222222222223, -0.37222222222222223, -0.37222222222222223, -0.37222222222222223]"	"[1, 1, 1, 1, 1, 1, 1, 1, 1, 1, 1, 1, 1, 1, 1, 1, 1, 1, 1, 1, 1, 1, 1, 1, 1, 1, 1, 1, 1, 1, 1, 1, 1, 1, 1, 1, 1, 0]"	"[0, 0, 0, 0, 0, 0, 0, 0, 0, 0, 0, 0, 0, 0, 0, 0, 0, 0, 0, 0, 0, 0, 0, 0, 0, 0, 0, 0, 0, 0, 0, 0, 0, 0, 0, 0, 0, 0]"	"[0, 0, 0, 0, 0, 0, 0, 0, 0, 0, 0, 0, 0, 0, 0, 0, 0, 0, 0, 0, 0, 0, 0, 0, 0, 0, 0, 0, 0, 0, 0, 0, 0, 0, 0, 0, 0, 1]"	"[0.27548129999195226, 0.4755192000011448, 0.6672159000008833, 0.8602692999993451, 1.058845299994573, 1.2505772000004072, 1.4338770000031218, 1.6338786999986041, 1.8172215999948094, 2.000584199995501, 2.2256073000025935, 2.4172561000013957, 2.6005874999973457, 2.8173537999973632, 3.0423159999918425, 3.2508388999995077, 3.45901409999351, 3.708883600003901, 3.909061300000758, 4.092399500004831, 4.309146999992663, 4.5255975000036415, 4.733951999995043, 4.925665799994022, 5.125642899991362, 5.292468999992707, 5.467531100002816, 5.650829299993347, 5.850828199996613, 6.042515399996773, 6.450874300004216, 6.642702400000417, 6.850906899999245, 7.0510888999997405, 7.25105629999598, 7.4342844000057084, 7.634357100003399, 7.850950599997304]"	38	"[0.27356570000119973, 0.47360589999880176, 0.6652983999956632, 0.8585158999921987, 1.0569270999985747, 1.2486674999963725, 1.4319634999992559, 1.6319581999996444, 1.815305999989505, 1.998666299987235, 2.2237012999976287, 2.415337099999306, 2.5986783999978798, 2.815433600000688, 3.040400199999567, 3.2489305999915814, 3.4570966999890516, 3.706970499988529, 3.9071491999930004, 4.090481299994281, 4.30723149998812, 4.523679999998421, 4.732032899992191, 4.92375039999024, 5.12372439999308, 5.290552299993578, 5.46561319999455, 5.648909399998956, 5.84891639999114, 6.040596599996206, 6.448961799993413, 6.640792399994098, 6.848988499987172, 7.04917809998733, 7.2491487999941455, 7.432366099994397, 7.632606899991515, 7.848973599990131]"	"[0.38164139998843893, 0.5732836999959545, 0.7816134999884525, 0.9732797999895411, 1.1816305999964243, 1.3650342999899294, 1.5483161999873118, 1.7650285999989137, 1.9316890999907628, 2.140122299999348, 2.3400429999892367, 2.531736399992951, 2.7401065999874845, 2.9567731999995885, 3.1484300999873085, 3.373460899994825, 3.581832099996973, 3.815190099994652, 4.015175900000031, 4.223516199999722, 4.456846399989445, 4.648549199991976, 4.8402207999897655, 5.031889599995338, 5.223610699991696, 5.390317699988373, 5.573600499992608, 5.781977399994503, 5.998660599987488, 6.340306699989014, 6.582007699995302, 6.74868289999722, 6.982051499988302, 7.165464999998221, 7.373762599992915, 7.573754999990342, 7.782098999989103, 7.848978199996054]"	353.612911899996	353.618286199999	355.110289000004	355.118464500003	NA	NA	NA	NA	NA	NA	NA	11	"03"	"2024-02-07_09h34.39.688"	"BART_exp"	"2023.2.3"	119.951395694418	"2024-02-07 09h34.50.150011 +0100"	NA
