"image"	"max_pumps"	"pump_loop.thisRepN"	"pump_loop.thisTrialN"	"pump_loop.thisN"	"pump_loop.thisIndex"	"thisRow.t"	"notes"	"Start.started"	"text_start.started"	"continue_start.started"	"mouse_start.started"	"Start.stopped"	"mouse_start.x"	"mouse_start.y"	"mouse_start.leftButton"	"mouse_start.midButton"	"mouse_start.rightButton"	"mouse_start.time"	"trials.started"	"stim_balloon.started"	"stim_balloon_burst.started"	"stim_balloon_burst.stopped"	"text_ballon_value.started"	"text_bank.started"	"mouse.started"	"sound_bang.started"	"sound_bang.stopped"	"button_balloon.started"	"trials.stopped"	"n_pumps"	"earnings"	"popped"	"mouse.x"	"mouse.y"	"mouse.leftButton"	"mouse.midButton"	"mouse.rightButton"	"mouse.time"	"button_balloon.numClicks"	"button_balloon.timesOn"	"button_balloon.timesOff"	"Feedback.started"	"text_feedback.started"	"Feedback.stopped"	"text_feedback.stopped"	"End.started"	"text_end.started"	"key_end.started"	"End.stopped"	"key_end.keys"	"key_end.rt"	"key_end.duration"	"participant"	"session"	"date"	"expName"	"psychopyVersion"	"frameRate"	"expStart"	"...61"
NA	NA	NA	NA	NA	NA	NA	NA	0.00404460006393492	0.0276136000175029	0.0276136000175029	0.00512590003199875	3.83919110009447	"[0.6108333333333333]"	"[-0.4033333333333333]"	"[1]"	"[0]"	"[0]"	"[3.830326099996455]"	NA	NA	NA	NA	NA	NA	NA	NA	NA	NA	NA	NA	NA	NA	NA	NA	NA	NA	NA	NA	NA	NA	NA	NA	NA	NA	NA	NA	NA	NA	NA	NA	NA	NA	"01"	"02"	"2023-12-13_13h12.24.200"	"BART_exp"	"2023.2.2"	"None"	"2023-12-13 13h12.40.391517 +0100"	NA
"balloon.png"	1	0	0	0	0	3.99211640004069	NA	NA	NA	NA	NA	NA	NA	NA	NA	NA	NA	NA	3.85164250002708	3.99211640004069	3.99211640004069	3.99211640004069	3.99211640004069	3.99211640004069	0.0145442000357434	0.0145442000357434	0.0145442000357434	3.99211640004069	5.23326400003862	2	0.05	TRUE	"[0.13416666666666666, 0.13416666666666666]"	"[-0.36666666666666664, -0.36666666666666664]"	"[1, 1]"	"[0, 0]"	"[0, 0]"	"[1.07752419996541, 1.2771329999668524]"	2	"[0.9501792000373825, 1.1497811999870464]"	"[0.9973427000222728, 1.196636899956502]"	5.2356239000801	5.25078840006609	6.74465430004057	NA	NA	NA	NA	NA	NA	NA	NA	"01"	"02"	"2023-12-13_13h12.24.200"	"BART_exp"	"2023.2.2"	"None"	"2023-12-13 13h12.40.391517 +0100"	NA
"balloon.png"	79	0	1	1	18	6.80883650004398	NA	NA	NA	NA	NA	NA	NA	NA	NA	NA	NA	NA	6.74593250011094	6.80883650004398	6.80883650004398	6.80883650004398	6.80883650004398	6.80883650004398	0.0156337000662461	0.0156337000662461	0.0156337000662461	6.80883650004398	9.61176110000815	13	0.65	FALSE	"[0.11333333333333333, 0.11333333333333333, 0.11333333333333333, 0.11333333333333333, 0.11333333333333333, 0.11333333333333333, 0.11333333333333333, 0.11333333333333333, 0.11333333333333333, 0.11333333333333333, 0.11333333333333333, 0.11333333333333333, 0.11333333333333333, 0.1775]"	"[-0.3725, -0.3725, -0.3725, -0.3725, -0.3725, -0.3725, -0.3725, -0.3725, -0.3725, -0.3725, -0.3725, -0.3725, -0.3725, -0.2625]"	"[1, 1, 1, 1, 1, 1, 1, 1, 1, 1, 1, 1, 1, 0]"	"[0, 0, 0, 0, 0, 0, 0, 0, 0, 0, 0, 0, 0, 0]"	"[0, 0, 0, 0, 0, 0, 0, 0, 0, 0, 0, 0, 0, 1]"	"[0.3289289000676945, 0.527930400101468, 0.7279563000192866, 0.8945986999897286, 1.0618305000243708, 1.2611158000072464, 1.441822100081481, 1.628231400041841, 1.8081498000537977, 2.008100900100544, 2.20772480010055, 2.393896499997936, 2.5746853000018746, 2.861228200024925]"	13	"[0.2791053999681026, 0.47811519994866103, 0.6781345000490546, 0.8448272999376059, 1.0120026000076905, 1.2112896000035107, 1.392003900022246, 1.5784086999483407, 1.7583286999724805, 1.9582762999925762, 2.1579010999994352, 2.3440752000315115, 2.5248552999692038]"	"[0.35915779997594655, 0.5588743999833241, 0.7251287000253797, 0.9111795000499114, 1.0917273999657482, 1.2917874000268057, 1.4774933999869972, 1.6581585999811068, 1.8581779999658465, 2.057806700002402, 2.2423873000079766, 2.4243467999622226, 2.5905137000372633]"	9.61274220002815	9.62923180009238	11.121014000033	NA	NA	NA	NA	NA	NA	NA	NA	"01"	"02"	"2023-12-13_13h12.24.200"	"BART_exp"	"2023.2.2"	"None"	"2023-12-13 13h12.40.391517 +0100"	NA
"balloon.png"	44	0	2	2	10	11.2063895000611	NA	NA	NA	NA	NA	NA	NA	NA	NA	NA	NA	NA	11.1212794000749	11.2063895000611	11.2063895000611	11.2063895000611	11.2063895000611	11.2063895000611	0.0101046999916434	0.0101046999916434	0.0101046999916434	11.2063895000611	16.7199994000839	18	0.9	FALSE	"[0.05, 0.05, 0.05, 0.05, 0.05, 0.05, 0.05, 0.05, 0.05, 0.05, 0.05, 0.049166666666666664, 0.049166666666666664, 0.05583333333333333, 0.05583333333333333, 0.05583333333333333, 0.0525, 0.0525, 0.12083333333333333, 0.12166666666666667, 0.07583333333333334, 0.07583333333333334]"	"[-0.405, -0.4033333333333333, -0.4033333333333333, -0.4033333333333333, -0.4033333333333333, -0.3975, -0.3975, -0.3975, -0.3975, -0.3975, -0.3975, -0.3975, -0.3975, -0.38666666666666666, -0.38666666666666666, -0.3875, -0.38916666666666666, -0.38916666666666666, -0.23916666666666667, -0.23916666666666667, -0.22916666666666666, -0.22916666666666666]"	"[1, 1, 1, 1, 1, 1, 1, 1, 1, 1, 1, 1, 1, 1, 1, 1, 1, 1, 1, 1, 1, 0]"	"[0, 0, 0, 0, 0, 0, 0, 0, 0, 0, 0, 0, 0, 0, 0, 0, 0, 0, 0, 0, 0, 0]"	"[0, 0, 0, 0, 0, 0, 0, 0, 0, 0, 0, 0, 0, 0, 0, 0, 0, 0, 0, 0, 0, 1]"	"[0.35401349992025644, 0.5202903999015689, 0.6871054999064654, 0.8519793999148533, 1.0203329999931157, 1.219789499999024, 1.3867246999870986, 1.585977099952288, 1.7510976999765262, 1.9332211000146344, 2.119901599944569, 2.288457299931906, 2.466623399988748, 2.6327340999851003, 2.818547499948181, 2.9853173999581486, 3.1541044999612495, 3.3829290999565274, 3.833224799949676, 4.382924599922262, 5.383762899902649, 5.597457999945618]"	18	"[0.2784543999005109, 0.4447239999426529, 0.6115408999612555, 0.776483399909921, 0.9447723999619484, 1.1442328999983147, 1.3111878999043256, 1.510418999940157, 1.6755446998868138, 1.8576504999073222, 2.0443318999605253, 2.212898499914445, 2.3910620999522507, 2.557168799918145, 2.7429854999063537, 2.909758299938403, 3.078550299978815, 3.291096399887465]"	"[0.31085809995420277, 0.4776943998876959, 0.6913250999059528, 0.8579103999072686, 1.0246515999315307, 1.1910563999554142, 1.3773100998951122, 1.5575076999375597, 1.743628399912268, 1.9240965999197215, 2.090536199975759, 2.2759530999464914, 2.442939499975182, 2.643742199987173, 2.8096710999961942, 2.9566963999532163, 3.173976199934259, 3.389560099923983]"	16.721324400045	16.7365734000923	18.2353459000587	NA	NA	NA	NA	NA	NA	NA	NA	"01"	"02"	"2023-12-13_13h12.24.200"	"BART_exp"	"2023.2.2"	"None"	"2023-12-13 13h12.40.391517 +0100"	NA
"balloon.png"	62	0	3	3	14	18.2725039001089	NA	NA	NA	NA	NA	NA	NA	NA	NA	NA	NA	NA	18.236016400042	18.2725039001089	18.2725039001089	18.2725039001089	18.2725039001089	18.2725039001089	0.0165135000133887	0.0165135000133887	0.0165135000133887	18.2725039001089	18.9518748000264	0	0	FALSE	"[0.07583333333333334]"	"[-0.22916666666666666]"	"[0]"	"[0]"	"[1]"	"[0.7143294999841601]"	0	NA	NA	18.9524932000786	18.9662902000127	20.4653130000224	NA	NA	NA	NA	NA	NA	NA	NA	"01"	"02"	"2023-12-13_13h12.24.200"	"BART_exp"	"2023.2.2"	"None"	"2023-12-13 13h12.40.391517 +0100"	NA
"balloon.png"	118	0	4	4	27	20.5081471001031	NA	NA	NA	NA	NA	NA	NA	NA	NA	NA	NA	NA	20.4655801000772	20.5081471001031	20.5081471001031	20.5081471001031	20.5081471001031	20.5081471001031	0.0153580000624061	0.0153580000624061	0.0153580000624061	20.5081471001031	21.1503508000169	0	0	FALSE	"[0.0725]"	"[-0.22833333333333333]"	"[0]"	"[0]"	"[1]"	"[0.6834232000401244]"	0	NA	NA	21.1509596999967	21.1650686000939	22.6639851001091	NA	NA	NA	NA	NA	NA	NA	NA	"01"	"02"	"2023-12-13_13h12.24.200"	"BART_exp"	"2023.2.2"	"None"	"2023-12-13 13h12.40.391517 +0100"	NA
"balloon.png"	84	0	5	5	19	22.7531310000923	NA	NA	NA	NA	NA	NA	NA	NA	NA	NA	NA	NA	22.6643060001079	22.7531310000923	22.7531310000923	22.7531310000923	22.7531310000923	22.7531310000923	0.0160179999656975	0.0160179999656975	0.0160179999656975	22.7531310000923	27.5801009000279	21	1.05	FALSE	"[0.035833333333333335, 0.035833333333333335, 0.035833333333333335, 0.035833333333333335, 0.035833333333333335, 0.035833333333333335, 0.035833333333333335, 0.035833333333333335, 0.035833333333333335, 0.035833333333333335, 0.035833333333333335, 0.035833333333333335, 0.035833333333333335, 0.035833333333333335, 0.035833333333333335, 0.035833333333333335, 0.035833333333333335, 0.035833333333333335, 0.035833333333333335, 0.035833333333333335, 0.035833333333333335, 0.04416666666666667]"	"[-0.37916666666666665, -0.37916666666666665, -0.37916666666666665, -0.37916666666666665, -0.37916666666666665, -0.37916666666666665, -0.37916666666666665, -0.37916666666666665, -0.37916666666666665, -0.37916666666666665, -0.37916666666666665, -0.37916666666666665, -0.37916666666666665, -0.37916666666666665, -0.37916666666666665, -0.37916666666666665, -0.37916666666666665, -0.37916666666666665, -0.37916666666666665, -0.37833333333333335, -0.37833333333333335, -0.2791666666666667]"	"[1, 1, 1, 1, 1, 1, 1, 1, 1, 1, 1, 1, 1, 1, 1, 1, 1, 1, 1, 1, 1, 0]"	"[0, 0, 0, 0, 0, 0, 0, 0, 0, 0, 0, 0, 0, 0, 0, 0, 0, 0, 0, 0, 0, 0]"	"[0, 0, 0, 0, 0, 0, 0, 0, 0, 0, 0, 0, 0, 0, 0, 0, 0, 0, 0, 0, 0, 1]"	"[0.4702703000511974, 0.6499387000221759, 0.8501437000231817, 1.035586699959822, 1.2338808999629691, 1.43330060003791, 1.602375700022094, 1.7996837999671698, 1.9824608999770135, 2.1659687999635935, 2.3490386999910697, 2.548776900046505, 2.7663303000153974, 2.9815329000120983, 3.1481167000019923, 3.347963299951516, 3.5346457000123337, 3.7478846999583766, 3.934165099984966, 4.115267200046219, 4.566920800018124, 4.914358700043522]"	21	"[0.3899706000229344, 0.5696368999779224, 0.7698385999538004, 0.9552858000388369, 1.1536021999781951, 1.353219800046645, 1.5221383000025526, 1.719570399960503, 1.9021632999647409, 2.0856954000191763, 2.2687478000298142, 2.4684793000342324, 2.6860333000076935, 2.9012309999670833, 3.0678040999919176, 3.2676625000312924, 3.4543439999688417, 3.6675802000099793, 3.8539028000086546, 4.034972399938852, 4.4866307999473065]"	"[0.4555456000380218, 0.653655800037086, 0.8533541000215337, 1.0357945000287145, 1.2355803999816999, 1.4208089000312611, 1.5868399000028148, 1.7879752999870107, 1.9880242999643087, 2.168449699995108, 2.3521498000482097, 2.55259279999882, 2.734493099967949, 2.9344685999676585, 3.134626999963075, 3.3537952000042424, 3.5341104000108317, 3.7342011999571696, 3.93380779994186, 4.100739800021984, 4.517633100040257]"	27.5813526000129	27.5940455000382	29.0933822001098	NA	NA	NA	NA	NA	NA	NA	NA	"01"	"02"	"2023-12-13_13h12.24.200"	"BART_exp"	"2023.2.2"	"None"	"2023-12-13 13h12.40.391517 +0100"	NA
"balloon.png"	75	0	6	6	17	29.1680995000061	NA	NA	NA	NA	NA	NA	NA	NA	NA	NA	NA	NA	29.0936746000079	29.1680995000061	29.1680995000061	29.1680995000061	29.1680995000061	29.1680995000061	0.0151651999913156	0.0151651999913156	0.0151651999913156	29.1680995000061	33.6103509000968	21	1.05	FALSE	"[0.04416666666666667, 0.04583333333333333, 0.04583333333333333, 0.04583333333333333, 0.04583333333333333, 0.04583333333333333, 0.04583333333333333, 0.04583333333333333, 0.04583333333333333, 0.04583333333333333, 0.04583333333333333, 0.04583333333333333, 0.04583333333333333, 0.04583333333333333, 0.04583333333333333, 0.04583333333333333, 0.04666666666666667, 0.04666666666666667, 0.04666666666666667, 0.04666666666666667, 0.045, 0.045]"	"[-0.4125, -0.4083333333333333, -0.4083333333333333, -0.4083333333333333, -0.4083333333333333, -0.4083333333333333, -0.4083333333333333, -0.4083333333333333, -0.4083333333333333, -0.4083333333333333, -0.4083333333333333, -0.4083333333333333, -0.4083333333333333, -0.4083333333333333, -0.4083333333333333, -0.4083333333333333, -0.4075, -0.4075, -0.4075, -0.4066666666666667, -0.4033333333333333, -0.31083333333333335]"	"[1, 1, 1, 1, 1, 1, 1, 1, 1, 1, 1, 1, 1, 1, 1, 1, 1, 1, 1, 1, 1, 0]"	"[0, 0, 0, 0, 0, 0, 0, 0, 0, 0, 0, 0, 0, 0, 0, 0, 0, 0, 0, 0, 0, 0]"	"[0, 0, 0, 0, 0, 0, 0, 0, 0, 0, 0, 0, 0, 0, 0, 0, 0, 0, 0, 0, 0, 1]"	"[0.3498293000739068, 0.51704010006506, 0.702871200046502, 0.9012473000911996, 1.082973700016737, 1.3161128000356257, 1.5004444000078365, 1.7022664000978693, 1.8830108999973163, 2.068798099993728, 2.2491247000871226, 2.4492866001091897, 2.616475800052285, 2.7983702000929043, 2.984716600039974, 3.1979572999989614, 3.382620600052178, 3.5509226000867784, 3.751007000100799, 3.9310234000440687, 4.116779200034216, 4.515202400041744]"	21	"[0.28582849993836135, 0.45302549994084984, 0.6388464999618009, 0.8373326999135315, 1.0189591998932883, 1.2520975999068469, 1.4365432999329641, 1.638261599931866, 1.8189891999354586, 2.0047766999341547, 2.1851031999103725, 2.3854517999570817, 2.552478599944152, 2.7343543999595568, 2.9207007999066263, 3.1339408999774605, 3.3186118999728933, 3.4869015999138355, 3.6870021999347955, 3.8670080999145284, 4.052765699918382]"	"[0.37222479993943125, 0.5364282999653369, 0.7192524999845773, 0.9187175999395549, 1.1026580999605358, 1.3184322000015527, 1.5182410998968408, 1.704607899999246, 1.8683402999304235, 2.0511851999908686, 2.2345320999156684, 2.434412100003101, 2.6339994999580085, 2.818535599973984, 3.018566699931398, 3.184842799906619, 3.367137899971567, 3.5538205999182537, 3.733386299922131, 3.9208257999271154, 4.117688499973156]"	33.611741800094	33.6234054000815	35.1222616001032	NA	NA	NA	NA	NA	NA	NA	NA	"01"	"02"	"2023-12-13_13h12.24.200"	"BART_exp"	"2023.2.2"	"None"	"2023-12-13 13h12.40.391517 +0100"	NA
"balloon.png"	57	0	7	7	13	35.1614000000991	NA	NA	NA	NA	NA	NA	NA	NA	NA	NA	NA	NA	35.1225272000302	35.1614000000991	35.1614000000991	35.1614000000991	35.1614000000991	35.1614000000991	0.0123038999736309	0.0123038999736309	0.0123038999736309	35.1614000000991	39.3084748000838	21	1.05	FALSE	"[0.028333333333333332, 0.028333333333333332, 0.028333333333333332, 0.028333333333333332, 0.028333333333333332, 0.028333333333333332, 0.028333333333333332, 0.028333333333333332, 0.028333333333333332, 0.028333333333333332, 0.028333333333333332, 0.028333333333333332, 0.028333333333333332, 0.028333333333333332, 0.028333333333333332, 0.028333333333333332, 0.028333333333333332, 0.028333333333333332, 0.0275, 0.0275, 0.0275, 0.08833333333333333]"	"[-0.36666666666666664, -0.36666666666666664, -0.36666666666666664, -0.36666666666666664, -0.36666666666666664, -0.36666666666666664, -0.36666666666666664, -0.36666666666666664, -0.36666666666666664, -0.36666666666666664, -0.36666666666666664, -0.36666666666666664, -0.36666666666666664, -0.36666666666666664, -0.36666666666666664, -0.36666666666666664, -0.36583333333333334, -0.3675, -0.36666666666666664, -0.3675, -0.36833333333333335, -0.2625]"	"[1, 1, 1, 1, 1, 1, 1, 1, 1, 1, 1, 1, 1, 1, 1, 1, 1, 1, 1, 1, 1, 0]"	"[0, 0, 0, 0, 0, 0, 0, 0, 0, 0, 0, 0, 0, 0, 0, 0, 0, 0, 0, 0, 0, 0]"	"[0, 0, 0, 0, 0, 0, 0, 0, 0, 0, 0, 0, 0, 0, 0, 0, 0, 0, 0, 0, 0, 1]"	"[0.31810050003696233, 0.5005573000526056, 0.667043499997817, 0.8535864000441507, 1.0339312000432983, 1.2002386000240222, 1.3849940000800416, 1.586934300023131, 1.7872830000706017, 1.9527970000635833, 2.1330395000986755, 2.319819600088522, 2.4844605000689626, 2.650979300029576, 2.832540500094183, 2.9990453000646085, 3.185063000069931, 3.3653634000802413, 3.519599400111474, 3.6984823000384495, 3.865503700100817, 4.184520900016651]"	21	"[0.28803219995461404, 0.47041960002388805, 0.6369069999782369, 0.8234395999461412, 1.0038000999484211, 1.170105000026524, 1.3550046000164002, 1.556806799955666, 1.757210399955511, 1.9226627999451011, 2.1029019999550655, 2.289684799965471, 2.4543667000252753, 2.620847399928607, 2.8024158999323845, 2.9689307999797165, 3.1549422999378294, 3.3352477999869734, 3.4894970000023022, 3.668370799976401, 3.8353942999383435]"	"[0.33702269999776036, 0.522506200009957, 0.7033600999275222, 0.8871641999576241, 1.0696563000092283, 1.236631799954921, 1.4228141999337822, 1.603283999953419, 1.8232602999778464, 1.9889539999421686, 2.1696890000021085, 2.3241232000291348, 2.503771899966523, 2.6861462999368086, 2.868547399993986, 3.035159199964255, 3.2016920000314713, 3.386676299967803, 3.5523132999660447, 3.7188513999572024, 3.934710899950005]"	39.3098234001081	39.3194363000803	40.8053703000769	40.8187576000346	NA	NA	NA	NA	NA	NA	NA	"01"	"02"	"2023-12-13_13h12.24.200"	"BART_exp"	"2023.2.2"	"None"	"2023-12-13 13h12.40.391517 +0100"	NA
"balloon.png"	101	0	8	8	23	40.8187576000346	NA	NA	NA	NA	NA	NA	NA	NA	NA	NA	NA	NA	40.8056196999969	40.8187576000346	40.8187576000346	40.8187576000346	40.8187576000346	40.8187576000346	0.00904919998720288	0.00904919998720288	0.00904919998720288	40.8187576000346	44.9048998000799	19	0.95	FALSE	"[0.06583333333333333, 0.06583333333333333, 0.0675, 0.0675, 0.0675, 0.0675, 0.06666666666666667, 0.06666666666666667, 0.06666666666666667, 0.065, 0.065, 0.065, 0.065, 0.065, 0.065, 0.065, 0.065, 0.06333333333333334, 0.06333333333333334, 0.07583333333333334]"	"[-0.37416666666666665, -0.375, -0.375, -0.37333333333333335, -0.37333333333333335, -0.37083333333333335, -0.37, -0.37, -0.37083333333333335, -0.375, -0.375, -0.375, -0.375, -0.375, -0.375, -0.375, -0.375, -0.375, -0.37666666666666665, -0.20666666666666667]"	"[1, 1, 1, 1, 1, 1, 1, 1, 1, 1, 1, 1, 1, 1, 1, 1, 1, 1, 1, 0]"	"[0, 0, 0, 0, 0, 0, 0, 0, 0, 0, 0, 0, 0, 0, 0, 0, 0, 0, 0, 0]"	"[0, 0, 0, 0, 0, 0, 0, 0, 0, 0, 0, 0, 0, 0, 0, 0, 0, 0, 0, 1]"	"[0.33171679999213666, 0.49828020005952567, 0.6814013000112027, 0.8472619999665767, 1.0467837000032887, 1.2312179000582546, 1.4135751000139862, 1.5997043000534177, 1.7997478999895975, 1.9995982999680564, 2.1660121999448165, 2.3466051999712363, 2.5128900000127032, 2.712179800029844, 2.896311099990271, 3.063062999979593, 3.245715899975039, 3.4318864999804646, 3.5984761000145227, 4.098006500047632]"	19	"[0.32934610010124743, 0.4960619000485167, 0.6789805000880733, 0.8448408000404015, 1.0443750000558794, 1.2288609000388533, 1.4111716001061723, 1.5973003000253811, 1.7973502000095323, 1.9972605000948533, 2.163646600092761, 2.3442262000171468, 2.510497000068426, 2.7097782000200823, 2.894038200029172, 3.0606610000832006, 3.2434418000048026, 3.429496500059031, 3.596072900108993]"	"[0.37811160006094724, 0.562214900040999, 0.7443482000380754, 0.9284519000211731, 1.1107359000016004, 1.2969182000961155, 1.4967133000027388, 1.6769250000361353, 1.8629878000356257, 2.04418780002743, 2.2275762000354007, 2.4104179000714794, 2.5956605001119897, 2.7765805000672117, 2.9430697000352666, 3.126703800051473, 3.3095844000345096, 3.4951786000747234, 3.6947918001096696]"	44.9059940000298	44.9164360000286	46.4147698000306	NA	NA	NA	NA	NA	NA	NA	NA	"01"	"02"	"2023-12-13_13h12.24.200"	"BART_exp"	"2023.2.2"	"None"	"2023-12-13 13h12.40.391517 +0100"	NA
"balloon.png"	23	0	9	9	5	46.4396846001036	NA	NA	NA	NA	NA	NA	NA	NA	NA	NA	NA	NA	46.4150568000041	46.4396846001036	46.4396846001036	46.4396846001036	46.4396846001036	46.4396846001036	0.0106346999527886	0.0106346999527886	0.0106346999527886	46.4396846001036	49.9346389001003	17	0.85	FALSE	"[0.03666666666666667, 0.03666666666666667, 0.03666666666666667, 0.03666666666666667, 0.03666666666666667, 0.03666666666666667, 0.03666666666666667, 0.03666666666666667, 0.03666666666666667, 0.03666666666666667, 0.03666666666666667, 0.03666666666666667, 0.03666666666666667, 0.03666666666666667, 0.03666666666666667, 0.03666666666666667, 0.03666666666666667, 0.10166666666666667]"	"[-0.3875, -0.3875, -0.3875, -0.3875, -0.3875, -0.3875, -0.3883333333333333, -0.38916666666666666, -0.38916666666666666, -0.38916666666666666, -0.38916666666666666, -0.38916666666666666, -0.38916666666666666, -0.38916666666666666, -0.38916666666666666, -0.38916666666666666, -0.38916666666666666, -0.1575]"	"[1, 1, 1, 1, 1, 1, 1, 1, 1, 1, 1, 1, 1, 1, 1, 1, 1, 0]"	"[0, 0, 0, 0, 0, 0, 0, 0, 0, 0, 0, 0, 0, 0, 0, 0, 0, 0]"	"[0, 0, 0, 0, 0, 0, 0, 0, 0, 0, 0, 0, 0, 0, 0, 0, 0, 1]"	"[0.2874466000357643, 0.46708570001646876, 0.6342769000912085, 0.8197409000713378, 1.0190869000507519, 1.2004280000692233, 1.4175557000562549, 1.6002160999923944, 1.7862182999961078, 1.9858162000309676, 2.166594300069846, 2.3510306000243872, 2.5329445999814197, 2.7187843000283465, 2.8835983000462875, 3.065955900005065, 3.252210700069554, 3.5181166999973357]"	17	"[0.2726937000406906, 0.4523581999819726, 0.6195248999865726, 0.8049768999917433, 1.0043349000625312, 1.1856599000748247, 1.4032763000577688, 1.5854420000687242, 1.7714420000556856, 1.9710403999779373, 2.151823000051081, 2.3362739000003785, 2.5181705000577495, 2.7040121000027284, 2.86892599996645, 3.051201399997808, 3.2374965000199154]"	"[0.31926839996594936, 0.5050580999813974, 0.6855681000743061, 0.8854430000064895, 1.0714431999949738, 1.2713460000231862, 1.4693294999888167, 1.6519058999838307, 1.8514863000018522, 2.0182267000200227, 2.2179887000238523, 2.417997800046578, 2.6040207999758422, 2.750756000052206, 2.936628600000404, 3.117306899977848, 3.3042295000050217]"	49.9360763001023	49.948451800039	51.4453467000276	NA	NA	NA	NA	NA	NA	NA	NA	"01"	"02"	"2023-12-13_13h12.24.200"	"BART_exp"	"2023.2.2"	"None"	"2023-12-13 13h12.40.391517 +0100"	NA
"balloon.png"	127	0	10	10	29	51.4827029000735	NA	NA	NA	NA	NA	NA	NA	NA	NA	NA	NA	NA	51.4456504000118	51.4827029000735	51.4827029000735	51.4827029000735	51.4827029000735	51.4827029000735	0.0112993000075221	0.0112993000075221	0.0112993000075221	51.4827029000735	55.4780857000733	19	0.95	FALSE	"[0.0875, 0.0875, 0.0875, 0.0875, 0.0875, 0.0875, 0.0875, 0.0875, 0.0875, 0.0875, 0.0875, 0.0875, 0.0875, 0.0875, 0.0875, 0.0875, 0.0875, 0.0875, 0.0875, 0.08583333333333333]"	"[-0.3825, -0.38166666666666665, -0.38166666666666665, -0.38166666666666665, -0.38166666666666665, -0.38166666666666665, -0.38166666666666665, -0.38, -0.38, -0.38, -0.38, -0.38, -0.38, -0.38, -0.38, -0.38, -0.38, -0.38, -0.37833333333333335, -0.205]"	"[1, 1, 1, 1, 1, 1, 1, 1, 1, 1, 1, 1, 1, 1, 1, 1, 1, 1, 1, 0]"	"[0, 0, 0, 0, 0, 0, 0, 0, 0, 0, 0, 0, 0, 0, 0, 0, 0, 0, 0, 0]"	"[0, 0, 0, 0, 0, 0, 0, 0, 0, 0, 0, 0, 0, 0, 0, 0, 0, 0, 0, 1]"	"[0.36699770006816834, 0.551141900010407, 0.7495226000901312, 0.9191058999858797, 1.13283080002293, 1.3192675000755116, 1.4997432000236586, 1.7185574000468478, 1.8855658000102267, 2.085248399991542, 2.2539441999979317, 2.4512589999940246, 2.6513732000021264, 2.8315284000709653, 2.9983837000327185, 3.184848500066437, 3.3649778000544757, 3.5316303999861702, 3.6981293000280857, 4.030989599996246]"	19	"[0.3400851000333205, 0.5242283999687061, 0.7227507999632508, 0.8921869000187144, 1.1059095000382513, 1.2923459999728948, 1.4728119999635965, 1.6916180000407621, 1.8586334000574425, 2.058313800022006, 2.227003899984993, 2.4243163999635726, 2.6244321999838576, 2.804587300051935, 2.9714397999923676, 3.1579201000276953, 3.33803220000118, 3.5046904999762774, 3.671174000017345]"	"[0.4063671000767499, 0.6062011000467464, 0.7728734000120312, 0.9726215000264347, 1.1727050000336021, 1.372604600037448, 1.5580771999666467, 1.7582162000471726, 1.9385955000761896, 2.124580700066872, 2.305034000077285, 2.5049280000384897, 2.690688000060618, 2.871147199999541, 3.0382283000508323, 3.2377563000191003, 3.4043795000761747, 3.5710326000116765, 3.788377800025046]"	55.4792513001012	55.4923243001103	56.9756408000831	56.9917018000269	NA	NA	NA	NA	NA	NA	NA	"01"	"02"	"2023-12-13_13h12.24.200"	"BART_exp"	"2023.2.2"	"None"	"2023-12-13 13h12.40.391517 +0100"	NA
"balloon.png"	27	0	11	11	6	56.9917018000269	NA	NA	NA	NA	NA	NA	NA	NA	NA	NA	NA	NA	56.9758843000745	56.9917018000269	56.9917018000269	56.9917018000269	56.9917018000269	56.9917018000269	0.012584300013259	0.012584300013259	0.012584300013259	56.9917018000269	62.177403000067	21	1.05	FALSE	"[0.004166666666666667, 0.004166666666666667, 0.004166666666666667, 0.005, 0.005, 0.005, 0.005, 0.005, 0.005, 0.005, 0.005, 0.005, 0.005, 0.005, 0.005, 0.005, 0.005, 0.005833333333333334, 0.005833333333333334, 0.005833333333333334, 0.005833333333333334, 0.005833333333333334, 0.005833333333333334, 0.043333333333333335]"	"[-0.3516666666666667, -0.3516666666666667, -0.355, -0.36916666666666664, -0.36916666666666664, -0.36916666666666664, -0.36916666666666664, -0.36916666666666664, -0.36916666666666664, -0.36916666666666664, -0.36916666666666664, -0.36916666666666664, -0.36916666666666664, -0.36916666666666664, -0.36916666666666664, -0.36916666666666664, -0.36916666666666664, -0.36916666666666664, -0.36916666666666664, -0.36916666666666664, -0.36916666666666664, -0.36833333333333335, -0.36833333333333335, -0.27416666666666667]"	"[1, 1, 1, 1, 1, 1, 1, 1, 1, 1, 1, 1, 1, 1, 1, 1, 1, 1, 1, 1, 1, 1, 1, 0]"	"[0, 0, 0, 0, 0, 0, 0, 0, 0, 0, 0, 0, 0, 0, 0, 0, 0, 0, 0, 0, 0, 0, 0, 0]"	"[0, 0, 0, 0, 0, 0, 0, 0, 0, 0, 0, 0, 0, 0, 0, 0, 0, 0, 0, 0, 0, 0, 0, 1]"	"[0.26696140004787594, 0.44974010006990284, 0.7689359000651166, 1.1361220000544563, 1.334984900080599, 1.5161294999998063, 1.7402141999918967, 1.9487614000681788, 2.167889600037597, 2.3675665000919253, 2.567640000022948, 2.7483795000007376, 2.94816620007623, 3.1482822000980377, 3.3482935000211, 3.534237500047311, 3.733893800061196, 3.9145352999912575, 4.100458800094202, 4.300712800002657, 4.467149400035851, 4.666411700076424, 4.8326643001055345, 5.200256000040099]"	21	"[0.7666944999946281, 1.133881299989298, 1.3327560999896377, 1.513912700000219, 1.7384413999971002, 1.9465243999147788, 2.165678899968043, 2.365335199981928, 2.5654197999974713, 2.746134299901314, 2.945927899912931, 3.146044599940069, 3.3460634999210015, 3.5320054999319836, 3.731663899961859, 3.9122959999367595, 4.0982484999112785, 4.298475699964911, 4.464911199989729, 4.664169800002128, 4.830428699962795]"	"[0.8325699999695644, 1.1801738999783993, 1.41353459993843, 1.5997380999615416, 1.8128788999747485, 2.030508799944073, 2.2133669999893755, 2.412665299954824, 2.6318057999014854, 2.8125383999431506, 3.032171299913898, 3.2316297999350354, 3.4118157000048086, 3.5980254999594763, 3.797772299963981, 3.9956971999490634, 4.178267199895345, 4.364388599991798, 4.5310055000009015, 4.711268699960783, 4.91085329989437]"	62.178517500055	62.188752300106	63.6741298000561	63.6872177000623	NA	NA	NA	NA	NA	NA	NA	"01"	"02"	"2023-12-13_13h12.24.200"	"BART_exp"	"2023.2.2"	"None"	"2023-12-13 13h12.40.391517 +0100"	NA
"balloon.png"	110	0	12	12	25	63.6872177000623	NA	NA	NA	NA	NA	NA	NA	NA	NA	NA	NA	NA	63.6743764000712	63.6872177000623	63.6872177000623	63.6872177000623	63.6872177000623	63.6872177000623	0.00880840001627802	0.00880840001627802	0.00880840001627802	63.6872177000623	68.2201471000444	22	1.1	FALSE	"[0.0725, 0.0725, 0.0725, 0.0725, 0.0725, 0.0725, 0.0725, 0.0725, 0.0725, 0.0725, 0.0725, 0.0725, 0.0725, 0.0725, 0.0725, 0.0725, 0.0725, 0.0725, 0.0725, 0.0725, 0.0725, 0.0725, 0.09583333333333334]"	"[-0.38, -0.38, -0.38, -0.38, -0.38, -0.38, -0.38, -0.38, -0.38, -0.38, -0.38, -0.38, -0.38, -0.38, -0.38, -0.38, -0.38, -0.38, -0.38, -0.3775, -0.3775, -0.3775, -0.2708333333333333]"	"[1, 1, 1, 1, 1, 1, 1, 1, 1, 1, 1, 1, 1, 1, 1, 1, 1, 1, 1, 1, 1, 1, 0]"	"[0, 0, 0, 0, 0, 0, 0, 0, 0, 0, 0, 0, 0, 0, 0, 0, 0, 0, 0, 0, 0, 0, 0]"	"[0, 0, 0, 0, 0, 0, 0, 0, 0, 0, 0, 0, 0, 0, 0, 0, 0, 0, 0, 0, 0, 0, 1]"	"[0.14696790010202676, 0.3307101000100374, 0.5133913001045585, 0.6999511000467464, 0.913566300063394, 1.1153753000544384, 1.2998292000265792, 1.5015013000229374, 1.698746900074184, 1.8988872000481933, 2.0981674999929965, 2.2790204000193626, 2.4790060000959784, 2.679237800068222, 2.8983747001038864, 3.098097200039774, 3.2982712000375614, 3.4784101000986993, 3.678334000054747, 3.897228200105019, 4.078153800102882, 4.2640643999911845, 4.544508200022392]"	22	"[0.14473499997984618, 0.32867600000463426, 0.5111598999937996, 0.6977176000364125, 0.9113235999830067, 1.1131416000425816, 1.2975852000527084, 1.499289199942723, 1.69649959995877, 1.8966456999769434, 2.0959180999780074, 2.2767754000378773, 2.4767602999927476, 2.676991799962707, 2.8961235999595374, 3.095851800055243, 3.2960290999617428, 3.4761627999832854, 3.676092499983497, 3.894978199969046, 4.075903399963863, 4.261820200015791]"	"[0.2308432999998331, 0.3951651999959722, 0.5777645000489429, 0.7777447999687865, 0.9952768000075594, 1.1771131999557838, 1.3772656000219285, 1.5633900000248104, 1.7633355000289157, 1.9629514999687672, 2.1434896000428125, 2.3433451999444515, 2.562708399957046, 2.7620809000218287, 2.9618400000035763, 3.176190600031987, 3.360209299949929, 3.542574099963531, 3.7618374000303447, 3.9616790999425575, 4.142533699981868, 4.308732499950565]"	68.221276700031	68.2367470000172	69.7356493000407	NA	NA	NA	NA	NA	NA	NA	NA	"01"	"02"	"2023-12-13_13h12.24.200"	"BART_exp"	"2023.2.2"	"None"	"2023-12-13 13h12.40.391517 +0100"	NA
"balloon.png"	123	0	13	13	28	69.7573466000613	NA	NA	NA	NA	NA	NA	NA	NA	NA	NA	NA	NA	69.7362178000621	69.7573466000613	69.7573466000613	69.7573466000613	69.7573466000613	69.7573466000613	0.0167882998939603	0.0167882998939603	0.0167882998939603	69.7573466000613	73.9166045000311	23	1.15	FALSE	"[0.060833333333333336, 0.060833333333333336, 0.060833333333333336, 0.060833333333333336, 0.060833333333333336, 0.060833333333333336, 0.060833333333333336, 0.060833333333333336, 0.060833333333333336, 0.060833333333333336, 0.060833333333333336, 0.06, 0.059166666666666666, 0.059166666666666666, 0.059166666666666666, 0.059166666666666666, 0.059166666666666666, 0.059166666666666666, 0.06416666666666666, 0.065, 0.06833333333333333, 0.06583333333333333, 0.0975]"	"[-0.38333333333333336, -0.38333333333333336, -0.38333333333333336, -0.38333333333333336, -0.38333333333333336, -0.38333333333333336, -0.38333333333333336, -0.38333333333333336, -0.38333333333333336, -0.38333333333333336, -0.38333333333333336, -0.375, -0.3775, -0.3775, -0.3775, -0.3775, -0.37666666666666665, -0.37583333333333335, -0.37583333333333335, -0.37583333333333335, -0.37416666666666665, -0.375, -0.23]"	"[1, 1, 1, 1, 1, 1, 1, 1, 1, 1, 1, 1, 1, 1, 1, 1, 1, 1, 1, 1, 1, 1, 0]"	"[0, 0, 0, 0, 0, 0, 0, 0, 0, 0, 0, 0, 0, 0, 0, 0, 0, 0, 0, 0, 0, 0, 0]"	"[0, 0, 0, 0, 0, 0, 0, 0, 0, 0, 0, 0, 0, 0, 0, 0, 0, 0, 0, 0, 0, 0, 1]"	"[0.13414500001817942, 0.29862819996196777, 0.500506000011228, 0.6807214999571443, 0.8807995999231935, 1.0804156999802217, 1.265708899940364, 1.466662299935706, 1.6329378000227734, 1.8335883999243379, 1.9653234999859706, 2.179928999976255, 2.349070299998857, 2.5323012999724597, 2.699033699929714, 2.8792247999226674, 3.0467053999891505, 3.21425660001114, 3.39850969996769, 3.578921900014393, 3.7465421999804676, 3.94527000002563, 4.178849800024182]"	22	"[0.12190660007763654, 0.28656010003760457, 0.48825890000443906, 0.6684788001002744, 0.8685502000153065, 1.0681704001035541, 1.2534668000880629, 1.4544163000537083, 1.6206940000411123, 1.8213904000585899, 1.953087400062941, 2.1676811000797898, 2.337098600110039, 2.5200600000098348, 2.686790500069037, 2.866988900001161, 3.034455700078979, 3.2020169000606984, 3.3862675999989733, 3.566674100002274, 3.7343066000612453, 3.9330294000683352]"	"[0.2018730000127107, 0.3684494000626728, 0.5683140000328422, 0.754191100015305, 0.9681407000171021, 1.153977100038901, 1.3346347000915557, 1.5013512000441551, 1.6872371000936255, 1.851555300061591, 2.0339183000614867, 2.2340006000595167, 2.4003625001059845, 2.5668068000813946, 2.7530475000385195, 2.900374500080943, 3.100207000039518, 3.2860067000146955, 3.4330639000982046, 3.633583400049247, 3.799277500016615, 4.018853100016713]"	73.9178963000886	73.9325670000399	75.4321973000187	NA	NA	NA	NA	NA	NA	NA	NA	"01"	"02"	"2023-12-13_13h12.24.200"	"BART_exp"	"2023.2.2"	"None"	"2023-12-13 13h12.40.391517 +0100"	NA
"balloon.png"	36	0	14	14	8	75.5044026001124	NA	NA	NA	NA	NA	NA	NA	NA	NA	NA	NA	NA	75.4328251000261	75.5044026001124	75.5044026001124	75.5044026001124	75.5044026001124	75.5044026001124	0.0164291000692174	0.0164291000692174	0.0164291000692174	75.5044026001124	79.6993583000731	20	1	FALSE	"[0.045, 0.045, 0.045, 0.045, 0.045, 0.045, 0.045, 0.045, 0.045, 0.045, 0.045, 0.04583333333333333, 0.04666666666666667, 0.049166666666666664, 0.05416666666666667, 0.056666666666666664, 0.056666666666666664, 0.056666666666666664, 0.055, 0.056666666666666664, 0.08333333333333333]"	"[-0.39416666666666667, -0.39416666666666667, -0.39416666666666667, -0.3925, -0.3908333333333333, -0.3908333333333333, -0.39, -0.39, -0.3933333333333333, -0.3933333333333333, -0.3933333333333333, -0.3925, -0.39166666666666666, -0.3883333333333333, -0.385, -0.38416666666666666, -0.38416666666666666, -0.38416666666666666, -0.38666666666666666, -0.3925, -0.265]"	"[1, 1, 1, 1, 1, 1, 1, 1, 1, 1, 1, 1, 1, 1, 1, 1, 1, 1, 1, 1, 0]"	"[0, 0, 0, 0, 0, 0, 0, 0, 0, 0, 0, 0, 0, 0, 0, 0, 0, 0, 0, 0, 0]"	"[0, 0, 0, 0, 0, 0, 0, 0, 0, 0, 0, 0, 0, 0, 0, 0, 0, 0, 0, 0, 1]"	"[0.34752209996804595, 0.5335781000321731, 0.7141626999946311, 0.9140864999499172, 1.113831799943, 1.3140834999503568, 1.5140836000209674, 1.7669345999602228, 1.9801085999934003, 2.1327082000207156, 2.312865799991414, 2.499441299936734, 2.6993371000280604, 2.8793072999687865, 3.067041500005871, 3.2632187999552116, 3.4651215999620035, 3.662834499962628, 3.8477103000041097, 4.029127500019968, 4.265151200001128]"	20	"[0.28563170006964356, 0.4716912000440061, 0.6522735999897122, 0.8521914000157267, 1.0519385000225157, 1.252193900058046, 1.4521936000091955, 1.7050399000290781, 1.9182179999770597, 2.070817800005898, 2.250977999996394, 2.4375462000025436, 2.6374536000657827, 2.817411700030789, 3.0051641000900418, 3.2013485999777913, 3.4032317000674084, 3.601366200018674, 3.786026900052093, 3.9674742000643164]"	"[0.35207420005463064, 0.5517535000108182, 0.7381455000722781, 0.9375083000632003, 1.1377452000742778, 1.337535500060767, 1.551018700003624, 1.7684039000887424, 1.9182235000189394, 2.117765000090003, 2.317793400026858, 2.517134700086899, 2.7171439999947324, 2.903273200034164, 3.1030943000223488, 3.2833304000087082, 3.4833745000651106, 3.6501843000296503, 3.8497476000338793, 4.049598600016907]"	79.7004785001045	79.7107544000028	81.1961695000064	81.2101777000353	NA	NA	NA	NA	NA	NA	NA	"01"	"02"	"2023-12-13_13h12.24.200"	"BART_exp"	"2023.2.2"	"None"	"2023-12-13 13h12.40.391517 +0100"	NA
"balloon.png"	14	0	15	15	3	81.2101777000353	NA	NA	NA	NA	NA	NA	NA	NA	NA	NA	NA	NA	81.1965244000312	81.2101777000353	81.2101777000353	81.2101777000353	81.2101777000353	81.2101777000353	0.00980819994583726	0.00980819994583726	0.00980819994583726	81.2101777000353	84.0462056000251	15	0.7	TRUE	"[0.051666666666666666, 0.051666666666666666, 0.051666666666666666, 0.05416666666666667, 0.05416666666666667, 0.05416666666666667, 0.05416666666666667, 0.05416666666666667, 0.05416666666666667, 0.049166666666666664, 0.049166666666666664, 0.0525, 0.055, 0.056666666666666664, 0.0575]"	"[-0.41, -0.41, -0.41, -0.4075, -0.4058333333333333, -0.4058333333333333, -0.4058333333333333, -0.405, -0.405, -0.3983333333333333, -0.3908333333333333, -0.3825, -0.38, -0.3825, -0.3825]"	"[1, 1, 1, 1, 1, 1, 1, 1, 1, 1, 1, 1, 1, 1, 1]"	"[0, 0, 0, 0, 0, 0, 0, 0, 0, 0, 0, 0, 0, 0, 0]"	"[0, 0, 0, 0, 0, 0, 0, 0, 0, 0, 0, 0, 0, 0, 0]"	"[0.06577200000174344, 0.24618969997391105, 0.4466616999125108, 0.6677716999547556, 0.8462931999238208, 1.032456299988553, 1.2318492999766022, 1.4143902999348938, 1.612446999992244, 1.795664699980989, 1.9838163999374956, 2.1957318999338895, 2.3813920998945832, 2.5815615999745205, 2.749862999888137]"	15	"[0.06272310006897897, 0.24316720000933856, 0.44357780006248504, 0.6647541000274941, 0.843209300073795, 1.0293832001043484, 1.2287692000390962, 1.4113094001077116, 1.609364000032656, 1.7925860000541434, 1.9807448000647128, 2.1926750000566244, 2.3783107000635937, 2.5785271000349894, 2.7467883999925107]"	"[0.14338720007799566, 0.3627892000367865, 0.5435907000210136, 0.72879260010086, 0.90936110005714, 1.0953121000202373, 1.276003200095147, 1.4953071000054479, 1.6782161000883207, 1.8587196000153199, 2.0755468000425026, 2.2585607999935746, 2.442659900058061, 2.644843100104481, 2.825067099998705]"	84.0471935000969	84.0572369000874	85.5426256000064	85.5565047001	NA	NA	NA	NA	NA	NA	NA	"01"	"02"	"2023-12-13_13h12.24.200"	"BART_exp"	"2023.2.2"	"None"	"2023-12-13 13h12.40.391517 +0100"	NA
"balloon.png"	10	0	16	16	2	85.5565047001	NA	NA	NA	NA	NA	NA	NA	NA	NA	NA	NA	NA	85.5429298001109	85.5565047001	85.5565047001	85.5565047001	85.5565047001	85.5565047001	0.00942300003953278	NA	NA	85.5565047001	87.6092187000904	11	0.5	TRUE	"[0.0575, 0.058333333333333334, 0.058333333333333334, 0.058333333333333334, 0.058333333333333334, 0.058333333333333334, 0.058333333333333334, 0.058333333333333334, 0.058333333333333334, 0.058333333333333334, 0.058333333333333334]"	"[-0.3825, -0.3825, -0.3825, -0.3825, -0.3825, -0.3825, -0.3825, -0.3825, -0.3825, -0.3825, -0.3825]"	"[1, 1, 1, 1, 1, 1, 1, 1, 1, 1, 1]"	"[0, 0, 0, 0, 0, 0, 0, 0, 0, 0, 0]"	"[0, 0, 0, 0, 0, 0, 0, 0, 0, 0, 0]"	"[0.03368870005942881, 0.23342750000301749, 0.43334470002446324, 0.6334215000970289, 0.8331554000033066, 1.0139262999873608, 1.2141267000697553, 1.4136639999924228, 1.613658000016585, 1.8125246000709012, 2.0002708000829443]"	11	"[0.031176600023172796, 0.23091590008698404, 0.43084380007348955, 0.6309314999962226, 0.8306439000880346, 1.0114091000286862, 1.2116168000502512, 1.4111494000535458, 1.611152800032869, 1.8100105000194162, 1.9977462000679225]"	"[0.11171309999190271, 0.29732190002687275, 0.5115503000561148, 0.6971917999908328, 0.8973279000492766, 1.0774040999822319, 1.2773349999915808, 1.4769590999931097, 1.6773134000832215, 1.8772495000157505, 2.0442662000423297]"	87.6101226001047	87.6218740000622	89.1073178000515	89.1208069000859	NA	NA	NA	NA	NA	NA	NA	"01"	"02"	"2023-12-13_13h12.24.200"	"BART_exp"	"2023.2.2"	"None"	"2023-12-13 13h12.40.391517 +0100"	NA
"balloon.png"	71	0	17	17	16	89.1208069000859	NA	NA	NA	NA	NA	NA	NA	NA	NA	NA	NA	NA	89.1076705000596	89.1208069000859	89.1208069000859	89.1208069000859	89.1208069000859	89.1208069000859	0.0107942000031471	NA	NA	89.1208069000859	95.405308800051	31	1.55	FALSE	"[0.058333333333333334, 0.058333333333333334, 0.058333333333333334, 0.058333333333333334, 0.058333333333333334, 0.058333333333333334, 0.058333333333333334, 0.058333333333333334, 0.058333333333333334, 0.058333333333333334, 0.058333333333333334, 0.058333333333333334, 0.058333333333333334, 0.058333333333333334, 0.058333333333333334, 0.058333333333333334, 0.058333333333333334, 0.058333333333333334, 0.058333333333333334, 0.058333333333333334, 0.058333333333333334, 0.058333333333333334, 0.058333333333333334, 0.058333333333333334, 0.058333333333333334, 0.059166666666666666, 0.059166666666666666, 0.059166666666666666, 0.059166666666666666, 0.06, 0.059166666666666666, 0.15416666666666667]"	"[-0.3825, -0.3825, -0.3825, -0.3825, -0.3825, -0.3825, -0.3825, -0.3825, -0.3825, -0.3825, -0.3825, -0.3825, -0.3825, -0.3825, -0.3825, -0.3825, -0.3825, -0.3825, -0.3825, -0.3825, -0.3825, -0.3825, -0.3825, -0.3825, -0.3825, -0.38416666666666666, -0.3858333333333333, -0.3858333333333333, -0.3858333333333333, -0.3858333333333333, -0.385, -0.2625]"	"[1, 1, 1, 1, 1, 1, 1, 1, 1, 1, 1, 1, 1, 1, 1, 1, 1, 1, 1, 1, 1, 1, 1, 1, 1, 1, 1, 1, 1, 1, 1, 0]"	"[0, 0, 0, 0, 0, 0, 0, 0, 0, 0, 0, 0, 0, 0, 0, 0, 0, 0, 0, 0, 0, 0, 0, 0, 0, 0, 0, 0, 0, 0, 0, 0]"	"[0, 0, 0, 0, 0, 0, 0, 0, 0, 0, 0, 0, 0, 0, 0, 0, 0, 0, 0, 0, 0, 0, 0, 0, 0, 0, 0, 0, 0, 0, 0, 1]"	"[0.13439789996482432, 0.3333840999985114, 0.5137006000149995, 0.6985503999749199, 0.9133293000049889, 1.100230999989435, 1.2801921999780461, 1.4665726999519393, 1.6327040999894962, 1.8131476999260485, 1.997288699960336, 2.19901680003386, 2.3990254999371246, 2.5985744999488816, 2.778862899984233, 2.9988546000095084, 3.197934699943289, 3.379085100023076, 3.564871200011112, 3.778394200024195, 3.9784460000228137, 4.1785624999320135, 4.4443419999442995, 4.630631399923004, 4.8301454000175, 5.010844400036149, 5.197489999933168, 5.394916699966416, 5.56295399996452, 5.744487999938428, 5.929871700005606, 6.29640200000722]"	31	"[0.13234729995019734, 0.33123709994833916, 0.5115468999138102, 0.6964205999393016, 0.9111812999472022, 1.0980903999879956, 1.2780382999917492, 1.4644257000181824, 1.6305576999438927, 1.8109965999610722, 1.9953005999559537, 2.1968716999981552, 2.396889099967666, 2.5964251999976113, 2.7767144999234006, 2.996710899984464, 3.1957908999174833, 3.3771768999285996, 3.562721599941142, 3.7762446999549866, 3.9762927999254316, 4.176411099964753, 4.442188799963333, 4.628479499951936, 4.827997399959713, 5.00869970000349, 5.195370299974456, 5.3929424999514595, 5.560809799935669, 5.742343599908054, 5.927719799918123]"	"[0.21157609997317195, 0.39740299992263317, 0.5781001999275759, 0.7642652000067756, 0.9445775999920443, 1.144161899923347, 1.3305925999302417, 1.5108085999963805, 1.697200799942948, 1.8636905999155715, 2.063180399942212, 2.263303600018844, 2.4435027999570593, 2.643531100009568, 2.862653699936345, 3.062712199985981, 3.2432130000088364, 3.4429487999295816, 3.6289749999996275, 3.8435801999876276, 4.042683299980126, 4.293017499963753, 4.461439199978486, 4.675483900005929, 4.875285799964331, 5.075273999944329, 5.261395099922083, 5.4416811999399215, 5.627773699932732, 5.808072899933904, 5.993847099947743]"	95.4066633000039	95.4169645000948	96.902328300057	96.916045900085	NA	NA	NA	NA	NA	NA	NA	"01"	"02"	"2023-12-13_13h12.24.200"	"BART_exp"	"2023.2.2"	"None"	"2023-12-13 13h12.40.391517 +0100"	NA
"balloon.png"	49	0	18	18	11	96.916045900085	NA	NA	NA	NA	NA	NA	NA	NA	NA	NA	NA	NA	96.9026183000533	96.916045900085	96.916045900085	96.916045900085	96.916045900085	96.916045900085	0.00950339995324611	0.00950339995324611	0.00950339995324611	96.916045900085	102.266447500093	27	1.35	FALSE	"[0.0475, 0.0475, 0.0475, 0.0475, 0.0475, 0.0475, 0.0475, 0.0475, 0.0475, 0.0475, 0.04666666666666667, 0.04666666666666667, 0.04666666666666667, 0.04666666666666667, 0.04666666666666667, 0.04416666666666667, 0.04416666666666667, 0.04416666666666667, 0.04583333333333333, 0.04583333333333333, 0.0475, 0.04666666666666667, 0.045, 0.045, 0.045, 0.045, 0.04583333333333333, 0.08666666666666667]"	"[-0.38916666666666666, -0.38916666666666666, -0.38916666666666666, -0.3883333333333333, -0.3875, -0.38, -0.38, -0.38, -0.37833333333333335, -0.38, -0.38083333333333336, -0.38083333333333336, -0.38083333333333336, -0.37833333333333335, -0.3775, -0.38, -0.3775, -0.37666666666666665, -0.37666666666666665, -0.37583333333333335, -0.37583333333333335, -0.37916666666666665, -0.3775, -0.3775, -0.3775, -0.37666666666666665, -0.37583333333333335, -0.2841666666666667]"	"[1, 1, 1, 1, 1, 1, 1, 1, 1, 1, 1, 1, 1, 1, 1, 1, 1, 1, 1, 1, 1, 1, 1, 1, 1, 1, 1, 0]"	"[0, 0, 0, 0, 0, 0, 0, 0, 0, 0, 0, 0, 0, 0, 0, 0, 0, 0, 0, 0, 0, 0, 0, 0, 0, 0, 0, 0]"	"[0, 0, 0, 0, 0, 0, 0, 0, 0, 0, 0, 0, 0, 0, 0, 0, 0, 0, 0, 0, 0, 0, 0, 0, 0, 0, 0, 1]"	"[0.06716890004463494, 0.24736130004748702, 0.447208600002341, 0.6470442999852821, 0.8478417999576777, 1.0475449999794364, 1.246796700055711, 1.4465573000488803, 1.613204300054349, 1.7996211999561638, 1.9793025000253692, 2.163956100004725, 2.3461372000165284, 2.546123299980536, 2.7457220000214875, 2.9326083000050858, 3.131408700020984, 3.3118704999797046, 3.5119372999761254, 3.6984519000397995, 3.8783503000158817, 4.0779118000064045, 4.278160399990156, 4.445398999960162, 4.630751900025643, 4.830936499987729, 5.030265600071289, 5.362260599969886]"	27	"[0.06437130004633218, 0.24455489998217672, 0.4443974000168964, 0.6442519000265747, 0.8450373000232503, 1.0447359000099823, 1.2439922000048682, 1.4437555000185966, 1.610403100028634, 1.7968116999836639, 1.9764949000673369, 2.161172899999656, 2.343346600071527, 2.5433053000597283, 2.7429123000474647, 2.9298058999702334, 3.1286156000569463, 3.3090627000201494, 3.509130600024946, 3.695652400027029, 3.8755348999984562, 4.075118100037798, 4.275365700013936, 4.442594500025734, 4.627969200024381, 4.828134800074622, 5.027462400030345]"	"[0.1304867999861017, 0.2969104000367224, 0.497039100038819, 0.7303695000009611, 0.9108124000485986, 1.110488099977374, 1.3101954000303522, 1.4766229999950156, 1.6769543000264093, 1.8630098999710754, 2.060685300035402, 2.2289974000304937, 2.4287033000728115, 2.6093315000180155, 2.793132900027558, 2.9949655999662355, 3.1946780000580475, 3.3755877000512555, 3.5613313000649214, 3.7614089000271633, 3.9619007000001147, 4.130603400059044, 4.341523400042206, 4.541708400007337, 4.725321699981578, 4.908024700009264, 5.159988300059922]"	102.267748600105	102.279368200107	103.764201400103	103.778120900039	NA	NA	NA	NA	NA	NA	NA	"01"	"02"	"2023-12-13_13h12.24.200"	"BART_exp"	"2023.2.2"	"None"	"2023-12-13 13h12.40.391517 +0100"	NA
"balloon.png"	114	0	19	19	26	103.778120900039	NA	NA	NA	NA	NA	NA	NA	NA	NA	NA	NA	NA	103.764480700018	103.778120900039	103.778120900039	103.778120900039	103.778120900039	103.778120900039	0.0104840999701992	0.0104840999701992	0.0104840999701992	103.778120900039	109.061240800074	27	1.35	FALSE	"[0.04083333333333333, 0.04083333333333333, 0.04083333333333333, 0.04083333333333333, 0.04083333333333333, 0.04083333333333333, 0.04083333333333333, 0.04083333333333333, 0.043333333333333335, 0.043333333333333335, 0.043333333333333335, 0.04416666666666667, 0.04416666666666667, 0.0425, 0.043333333333333335, 0.043333333333333335, 0.043333333333333335, 0.045, 0.045, 0.04416666666666667, 0.043333333333333335, 0.043333333333333335, 0.043333333333333335, 0.04416666666666667, 0.04416666666666667, 0.04416666666666667, 0.04833333333333333]"	"[-0.4041666666666667, -0.4041666666666667, -0.4041666666666667, -0.4008333333333333, -0.4008333333333333, -0.4025, -0.4025, -0.40166666666666667, -0.39416666666666667, -0.3908333333333333, -0.3883333333333333, -0.38666666666666666, -0.3875, -0.39166666666666666, -0.39, -0.3933333333333333, -0.3925, -0.38916666666666666, -0.38916666666666666, -0.3933333333333333, -0.3933333333333333, -0.3933333333333333, -0.39416666666666667, -0.39416666666666667, -0.3925, -0.3975, -0.2675]"	"[1, 1, 1, 1, 1, 1, 1, 1, 1, 1, 1, 1, 1, 1, 1, 1, 1, 1, 1, 1, 1, 1, 1, 1, 1, 1, 0]"	"[0, 0, 0, 0, 0, 0, 0, 0, 0, 0, 0, 0, 0, 0, 0, 0, 0, 0, 0, 0, 0, 0, 0, 0, 0, 0, 0]"	"[0, 0, 0, 0, 0, 0, 0, 0, 0, 0, 0, 0, 0, 0, 0, 0, 0, 0, 0, 0, 0, 0, 0, 0, 0, 0, 1]"	"[0.13338399992790073, 0.347769399988465, 0.5809417999116704, 0.7816713999491185, 0.9665997999254614, 1.1671312999678776, 1.3650330000091344, 1.5470151999033988, 1.7347787999315187, 1.9462069999426603, 2.1334238999988884, 2.3998921999009326, 2.5658970999065787, 2.746248699957505, 2.9330623999703676, 3.131970199989155, 3.31947849993594, 3.5152809999417514, 3.713817299925722, 3.9140096999472007, 4.118027499993332, 4.3014601999893785, 4.512675800011493, 4.711739299935289, 4.898127299966291, 5.061075599980541, 5.295460499939509]"	26	"[0.1305798999965191, 0.3449714999878779, 0.5781367999734357, 0.7788626999827102, 0.9637936999788508, 1.1643231000052765, 1.362259899964556, 1.5442086999537423, 1.7319778999080881, 1.9434032998979092, 2.1306204999564216, 2.3970841999398544, 2.563091699965298, 2.7434403999941424, 2.9302557999035344, 3.1291635999223217, 3.3166974999476224, 3.512480999925174, 3.711011999985203, 3.911201999988407, 4.115297899930738, 4.298849899903871, 4.509870699956082, 4.708926599938422, 4.895370499929413, 5.058271299931221]"	"[0.23059039993677288, 0.44438569992780685, 0.6445597999263555, 0.8110207999125123, 1.0300095999846235, 1.2297439998947084, 1.43029970000498, 1.610824599978514, 1.8300248999148607, 2.010227999999188, 2.210166599950753, 2.4098426999989897, 2.6099036999512464, 2.8094933999236673, 3.009725199895911, 3.195433499990031, 3.395991600002162, 3.5777087999740615, 3.796085299924016, 3.9779759999364614, 4.197185099939816, 4.39418730000034, 4.575274899951182, 4.7750224999617785, 4.97482229990419, 5.094368199934252]"	109.062468700111	109.076711600064	110.576228899998	NA	NA	NA	NA	NA	NA	NA	NA	"01"	"02"	"2023-12-13_13h12.24.200"	"BART_exp"	"2023.2.2"	"None"	"2023-12-13 13h12.40.391517 +0100"	NA
"balloon.png"	5	0	20	20	1	110.664379300084	NA	NA	NA	NA	NA	NA	NA	NA	NA	NA	NA	NA	110.5768386001	110.664379300084	110.664379300084	110.664379300084	110.664379300084	110.664379300084	0.015983699937351	0.015983699937351	0.015983699937351	110.664379300084	112.411525500007	6	0.25	TRUE	"[0.06166666666666667, 0.06333333333333334, 0.06333333333333334, 0.06333333333333334, 0.06166666666666667, 0.06166666666666667]"	"[-0.36916666666666664, -0.37, -0.37, -0.37, -0.365, -0.365]"	"[1, 1, 1, 1, 1, 1]"	"[0, 0, 0, 0, 0, 0]"	"[0, 0, 0, 0, 0, 0]"	"[0.7469918000278994, 0.9317678000079468, 1.1331000999780372, 1.3466194999637082, 1.5326366999652237, 1.7644446999765933]"	6	"[0.6681123999878764, 0.8528935000067577, 1.0542147000087425, 1.2677369000157341, 1.4537539000157267, 1.6857135000173002]"	"[0.7011973999906331, 0.9345617999788374, 1.1346052000299096, 1.3340558999916539, 1.5677023000316694, 1.7337689000414684]"	112.412284500082	112.422515100101	113.905702400021	113.921793100075	NA	NA	NA	NA	NA	NA	NA	"01"	"02"	"2023-12-13_13h12.24.200"	"BART_exp"	"2023.2.2"	"None"	"2023-12-13 13h12.40.391517 +0100"	NA
"balloon.png"	105	0	21	21	24	113.921793100075	NA	NA	NA	NA	NA	NA	NA	NA	NA	NA	NA	NA	113.906161900028	113.921793100075	113.921793100075	113.921793100075	113.921793100075	113.921793100075	0.00961479998659342	NA	NA	113.921793100075	118.62111060007	20	1	FALSE	"[0.04416666666666667, 0.0525, 0.0525, 0.0525, 0.0525, 0.055, 0.059166666666666666, 0.06, 0.060833333333333336, 0.06166666666666667, 0.0625, 0.0625, 0.06333333333333334, 0.065, 0.065, 0.065, 0.060833333333333336, 0.06, 0.0575, 0.0575, 0.09583333333333334]"	"[-0.4025, -0.4041666666666667, -0.4041666666666667, -0.4041666666666667, -0.4041666666666667, -0.405, -0.405, -0.4066666666666667, -0.4041666666666667, -0.4025, -0.4025, -0.4025, -0.40166666666666667, -0.3825, -0.3825, -0.3825, -0.3933333333333333, -0.3975, -0.4041666666666667, -0.4041666666666667, -0.30416666666666664]"	"[1, 1, 1, 1, 1, 1, 1, 1, 1, 1, 1, 1, 1, 1, 1, 1, 1, 1, 1, 1, 0]"	"[0, 0, 0, 0, 0, 0, 0, 0, 0, 0, 0, 0, 0, 0, 0, 0, 0, 0, 0, 0, 0]"	"[0, 0, 0, 0, 0, 0, 0, 0, 0, 0, 0, 0, 0, 0, 0, 0, 0, 0, 0, 0, 1]"	"[0.38263150001876056, 0.5842629999388009, 0.8023923999862745, 1.0153784999856725, 1.2156889999751002, 1.41675660002511, 1.6163060999242589, 1.8350026999833062, 2.0148297999985516, 2.2355018999660388, 2.4342417999869213, 2.6148321999935433, 2.8017298999475315, 3.233466099947691, 3.4139534999849275, 3.6333682999247685, 3.831385599914938, 4.002657399978489, 4.180003399960697, 4.3660673999693245, 4.7134519999381155]"	20	"[0.3794777999864891, 0.581103999982588, 0.7993066000053659, 1.012222099932842, 1.2125302000204101, 1.4136199000058696, 1.6131533000152558, 1.8318507999647409, 2.011670699925162, 2.2325440000277013, 2.4310851999325678, 2.6116830999962986, 2.798575200024061, 3.2303117000265047, 3.410794600029476, 3.630220599938184, 3.828356000012718, 3.9995345999486744, 4.1768481999170035, 4.362914299941622]"	"[0.4635034999810159, 0.6650441000238061, 0.8787977999309078, 1.0787721999222413, 1.2783643000293523, 1.4964792999671772, 1.6978179999860004, 1.877978099975735, 2.0780528999166563, 2.295456000021659, 2.497410299954936, 2.697222899994813, 3.077252299990505, 3.2964835999300703, 3.4968860999215394, 3.6772089999867603, 3.8765315000200644, 4.061095500015654, 4.243305300013162, 4.476623800001107]"	118.622218700009	118.637144900043	120.136565300054	NA	NA	NA	NA	NA	NA	NA	NA	"01"	"02"	"2023-12-13_13h12.24.200"	"BART_exp"	"2023.2.2"	"None"	"2023-12-13 13h12.40.391517 +0100"	NA
"balloon.png"	66	0	22	22	15	120.155610800022	NA	NA	NA	NA	NA	NA	NA	NA	NA	NA	NA	NA	120.137144900043	120.155610800022	120.155610800022	120.155610800022	120.155610800022	120.155610800022	0.0165669999551028	0.0165669999551028	0.0165669999551028	120.155610800022	124.936322399997	21	1.05	FALSE	"[0.03833333333333333, 0.03833333333333333, 0.04, 0.04, 0.04, 0.04, 0.04, 0.04, 0.04, 0.04, 0.04, 0.04, 0.04, 0.04, 0.04, 0.04, 0.04, 0.04, 0.04, 0.04, 0.04, 0.050833333333333335]"	"[-0.4225, -0.4225, -0.4083333333333333, -0.4083333333333333, -0.4066666666666667, -0.4066666666666667, -0.4066666666666667, -0.4066666666666667, -0.4083333333333333, -0.4083333333333333, -0.4083333333333333, -0.4083333333333333, -0.4083333333333333, -0.4083333333333333, -0.4083333333333333, -0.4083333333333333, -0.4083333333333333, -0.4083333333333333, -0.4083333333333333, -0.4083333333333333, -0.4083333333333333, -0.23166666666666666]"	"[1, 1, 1, 1, 1, 1, 1, 1, 1, 1, 1, 1, 1, 1, 1, 1, 1, 1, 1, 1, 1, 0]"	"[0, 0, 0, 0, 0, 0, 0, 0, 0, 0, 0, 0, 0, 0, 0, 0, 0, 0, 0, 0, 0, 0]"	"[0, 0, 0, 0, 0, 0, 0, 0, 0, 0, 0, 0, 0, 0, 0, 0, 0, 0, 0, 0, 0, 1]"	"[0.18139579996932298, 0.36733839998487383, 0.6646145998965949, 0.8671422000043094, 1.0997333999257535, 1.2997273999499157, 1.4995669999625534, 1.6980124999536201, 1.9313048999756575, 2.1659475999185815, 2.3652005000039935, 2.612903599976562, 2.812459799926728, 3.0124806999228895, 3.231913900002837, 3.4458275999641046, 3.66475969995372, 3.8788721999153495, 4.097729699919, 4.297498099971563, 4.478654899983667, 4.7976630999473855]"	21	"[0.17262460000347346, 0.35860149993095547, 0.6561281000031158, 0.8583694999106228, 1.0909697999013588, 1.290955699980259, 1.490810799994506, 1.6892568999901414, 1.9225734999636188, 2.157177099958062, 2.35643629997503, 2.6041268999688327, 2.803682699915953, 3.003714599995874, 3.223159599932842, 3.437061599921435, 3.655992699903436, 3.870097699924372, 4.088971499935724, 4.288739699986763, 4.469876099959947]"	"[0.23877339996397495, 0.4244925999082625, 0.7573445999296382, 0.9558753999881446, 1.1380716999992728, 1.3908647999633104, 1.5712309998925775, 1.7903712999541312, 2.0042162999743596, 2.2230709999566898, 2.437247599940747, 2.6548747000051662, 2.8563538999296725, 3.0700183999724686, 3.289635599940084, 3.5030835999641567, 3.7364145999308676, 3.95565879996866, 4.155371599947102, 4.354981099953875, 4.56947919994127]"	124.937450000085	124.947718200041	126.433015400078	126.446813900024	NA	NA	NA	NA	NA	NA	NA	"01"	"02"	"2023-12-13_13h12.24.200"	"BART_exp"	"2023.2.2"	"None"	"2023-12-13 13h12.40.391517 +0100"	NA
"balloon.png"	92	0	23	23	21	126.446813900024	NA	NA	NA	NA	NA	NA	NA	NA	NA	NA	NA	NA	126.433476700098	126.446813900024	126.446813900024	126.446813900024	126.446813900024	126.446813900024	0.00947679998353123	0.00947679998353123	0.00947679998353123	126.446813900024	133.365553500014	23	1.15	FALSE	"[0.045, 0.05416666666666667, 0.05416666666666667, 0.05416666666666667, 0.05416666666666667, 0.055, 0.055, 0.055, 0.055, 0.0375, 0.0375, 0.0375, 0.0375, 0.0375, 0.0375, 0.0375, 0.0375, 0.0375, 0.0375, 0.0375, 0.0375, 0.0375, 0.0375, 0.0375, 0.0375, 0.0375, 0.0375, 0.0375, 0.0375, 0.05583333333333333]"	"[-0.33916666666666667, -0.3541666666666667, -0.3541666666666667, -0.35333333333333333, -0.35, -0.35, -0.34833333333333333, -0.3466666666666667, -0.3466666666666667, -0.36833333333333335, -0.36833333333333335, -0.36833333333333335, -0.36833333333333335, -0.36833333333333335, -0.36833333333333335, -0.36833333333333335, -0.3675, -0.36666666666666664, -0.36666666666666664, -0.36666666666666664, -0.36666666666666664, -0.36666666666666664, -0.36666666666666664, -0.36666666666666664, -0.36666666666666664, -0.36666666666666664, -0.36666666666666664, -0.36666666666666664, -0.36666666666666664, -0.22166666666666668]"	"[1, 1, 1, 1, 1, 1, 1, 1, 1, 1, 1, 1, 1, 1, 1, 1, 1, 1, 1, 1, 1, 1, 1, 1, 1, 1, 1, 1, 1, 0]"	"[0, 0, 0, 0, 0, 0, 0, 0, 0, 0, 0, 0, 0, 0, 0, 0, 0, 0, 0, 0, 0, 0, 0, 0, 0, 0, 0, 0, 0, 0]"	"[0, 0, 0, 0, 0, 0, 0, 0, 0, 0, 0, 0, 0, 0, 0, 0, 0, 0, 0, 0, 0, 0, 0, 0, 0, 0, 0, 0, 0, 1]"	"[0.46499719994608313, 0.7326121999649331, 0.9316236999584362, 1.1474074999568984, 1.3807190000079572, 1.5990356999682263, 1.8341817000182346, 2.0657169999321923, 2.2641050999518484, 2.8135534999892116, 3.029520499985665, 3.26523219991941, 3.465019499999471, 3.665235699969344, 3.8622950999997556, 4.0783583000302315, 4.278341399971396, 4.497692100005224, 4.697393100010231, 4.930848699994385, 5.131164400023408, 5.330319599946961, 5.5107945000054315, 5.729700300027616, 5.89642190001905, 6.07721809996292, 6.2768901999806985, 6.476465499959886, 6.6625447999686, 6.93069910001941]"	23	"[0.7302264000754803, 0.9292482000309974, 1.1450144000118598, 2.8111672999802977, 3.0273217000067234, 3.262850800063461, 3.4626421000575647, 3.662858600029722, 3.8601313000544906, 4.075967799988575, 4.275957100093365, 4.49530860001687, 4.695006599999033, 4.928471700055525, 5.128774699987844, 5.327930400031619, 5.508422899991274, 5.727314400020987, 5.894035700010136, 6.074828400043771, 6.274503800086677, 6.460584699991159, 6.660164100001566]"	"[0.7968876999802887, 1.0112047999864444, 1.2304044000338763, 2.90975910006091, 3.0942899000365287, 3.329156000050716, 3.5285195000469685, 3.7284328000387177, 3.9422553000040352, 4.142091799993068, 4.361341400071979, 4.561218300019391, 4.7752910000272095, 4.994289200054482, 5.2080715000629425, 5.3947149000596255, 5.5944752000505105, 5.774486000067554, 5.974820300005376, 6.14106170006562, 6.373879500082694, 6.57396360009443, 6.759764400077984]"	133.367009400041	133.376811000053	134.877390900045	NA	NA	NA	NA	NA	NA	NA	NA	"01"	"02"	"2023-12-13_13h12.24.200"	"BART_exp"	"2023.2.2"	"None"	"2023-12-13 13h12.40.391517 +0100"	NA
"balloon.png"	40	0	24	24	9	134.947196700028	NA	NA	NA	NA	NA	NA	NA	NA	NA	NA	NA	NA	134.877955300035	134.947196700028	134.947196700028	134.947196700028	134.947196700028	134.947196700028	0.0127529000164941	0.0127529000164941	0.0127529000164941	134.947196700028	139.177662500064	19	0.95	FALSE	"[0.0225, 0.0225, 0.0225, 0.0225, 0.0225, 0.0225, 0.0225, 0.0225, 0.0225, 0.0225, 0.0225, 0.0225, 0.0225, 0.023333333333333334, 0.023333333333333334, 0.023333333333333334, 0.023333333333333334, 0.023333333333333334, 0.023333333333333334, 0.0725]"	"[-0.38166666666666665, -0.38166666666666665, -0.38166666666666665, -0.38166666666666665, -0.38166666666666665, -0.38166666666666665, -0.38166666666666665, -0.38166666666666665, -0.38166666666666665, -0.38166666666666665, -0.38166666666666665, -0.38083333333333336, -0.38083333333333336, -0.38, -0.38, -0.38, -0.38, -0.38, -0.38, -0.255]"	"[1, 1, 1, 1, 1, 1, 1, 1, 1, 1, 1, 1, 1, 1, 1, 1, 1, 1, 1, 0]"	"[0, 0, 0, 0, 0, 0, 0, 0, 0, 0, 0, 0, 0, 0, 0, 0, 0, 0, 0, 0]"	"[0, 0, 0, 0, 0, 0, 0, 0, 0, 0, 0, 0, 0, 0, 0, 0, 0, 0, 0, 1]"	"[0.36488839995581657, 0.5666845999658108, 0.7802746999077499, 1.0005330999847502, 1.2000285999383777, 1.4135287000099197, 1.6460511999903247, 1.8462463999167085, 2.0319591999286786, 2.2322227999102324, 2.4458036000141874, 2.646652399911545, 2.845963399973698, 3.065249099978246, 3.265878799953498, 3.478278899914585, 3.6784101999364793, 3.8798389999428764, 4.045268899993971, 4.298197699943557]"	19	"[0.30621950002387166, 0.5079237999161705, 0.7214855999918655, 0.9417375000193715, 1.1412378000095487, 1.3547377999639139, 1.58725380001124, 1.7874572000000626, 1.9731762999435887, 2.173425199929625, 2.387006299919449, 2.587858199956827, 2.7871731999330223, 3.006454100017436, 3.207089399918914, 3.4194863999728113, 3.6196210000198334, 3.8212009000126272, 3.9864793999586254]"	"[0.3880436000181362, 0.5740313000278547, 0.7880637999624014, 1.0049227999988943, 1.2208552999654785, 1.4408743999665603, 1.6539374999701977, 1.8539734999649227, 2.0537390999961644, 2.253874099929817, 2.453552999999374, 2.6742634000256658, 2.8727563999127597, 3.0864912000251934, 3.2864272999577224, 3.486043500015512, 3.6725313999922946, 3.8738494999706745, 4.036341500002891]"	139.178787600016	139.188878200017	140.674157600035	140.687963300035	NA	NA	NA	NA	NA	NA	NA	"01"	"02"	"2023-12-13_13h12.24.200"	"BART_exp"	"2023.2.2"	"None"	"2023-12-13 13h12.40.391517 +0100"	NA
"balloon.png"	88	0	25	25	20	140.687963300035	NA	NA	NA	NA	NA	NA	NA	NA	NA	NA	NA	NA	140.674487500102	140.687963300035	140.687963300035	140.687963300035	140.687963300035	140.687963300035	0.00928959995508194	0.00928959995508194	0.00928959995508194	140.687963300035	146.087403900106	25	1.25	FALSE	"[0.035833333333333335, 0.035833333333333335, 0.035833333333333335, 0.035833333333333335, 0.03666666666666667, 0.03666666666666667, 0.03666666666666667, 0.03666666666666667, 0.03666666666666667, 0.03666666666666667, 0.03666666666666667, 0.03666666666666667, 0.03666666666666667, 0.03666666666666667, 0.03666666666666667, 0.03666666666666667, 0.03666666666666667, 0.03666666666666667, 0.03666666666666667, 0.03666666666666667, 0.03666666666666667, 0.03666666666666667, 0.03666666666666667, 0.0375, 0.0375, 0.0525]"	"[-0.38083333333333336, -0.38083333333333336, -0.38083333333333336, -0.38083333333333336, -0.38083333333333336, -0.38083333333333336, -0.38083333333333336, -0.38083333333333336, -0.38083333333333336, -0.38083333333333336, -0.38083333333333336, -0.38083333333333336, -0.38083333333333336, -0.38083333333333336, -0.38, -0.38, -0.38, -0.38, -0.38, -0.38, -0.38, -0.38, -0.37916666666666665, -0.37916666666666665, -0.37916666666666665, -0.29]"	"[1, 1, 1, 1, 1, 1, 1, 1, 1, 1, 1, 1, 1, 1, 1, 1, 1, 1, 1, 1, 1, 1, 1, 1, 1, 0]"	"[0, 0, 0, 0, 0, 0, 0, 0, 0, 0, 0, 0, 0, 0, 0, 0, 0, 0, 0, 0, 0, 0, 0, 0, 0, 0]"	"[0, 0, 0, 0, 0, 0, 0, 0, 0, 0, 0, 0, 0, 0, 0, 0, 0, 0, 0, 0, 0, 0, 0, 0, 0, 1]"	"[0.3660070999758318, 0.5328404000028968, 0.7337419000687078, 0.947054099990055, 1.1658682000124827, 1.365542900050059, 1.546715100063011, 1.7461004999931902, 1.945646099979058, 2.1455122999614105, 2.365173100028187, 2.5787706000264734, 2.7676247999770567, 2.9781284000491723, 3.1963409000309184, 3.3973160999594256, 3.597070900024846, 3.7974430000176653, 3.9955729000503197, 4.197424600017257, 4.396972300019115, 4.594738599960692, 4.763776600011624, 4.96723159996327, 5.164137999992818, 5.4114442999707535]"	25	"[0.36300190002657473, 0.5298354000551626, 0.7307310000760481, 0.9440342000452802, 1.162855300004594, 1.3625274000223726, 1.5436971000162885, 1.743082100059837, 1.9426359001081437, 2.1424966000486165, 2.362156799994409, 2.5757567000109702, 2.764621900045313, 2.9751884000143036, 3.193352200090885, 3.3942952000070363, 3.59405539999716, 3.7944681000662968, 3.99279899999965, 4.194411700009368, 4.393951200065203, 4.591927700093947, 4.760763800004497, 4.964482600102201, 5.161121900076978]"	"[0.4434867000672966, 0.6101338000735268, 0.8100278000347316, 1.01018910005223, 1.2097022000234574, 1.4100390000967309, 1.609458600054495, 1.8096494000637904, 2.009492500103079, 2.2092078001005575, 2.4090779999969527, 2.628028200007975, 2.861813700059429, 3.0417200000956655, 3.2625204999931157, 3.441506600007415, 3.6414595000678673, 3.841277900035493, 4.0589190000901, 4.274583599995822, 4.460356299998239, 4.640918600023724, 4.8407588000409305, 5.040305500035174, 5.240849700057879]"	146.088752100011	146.102940800018	147.601903100032	NA	NA	NA	NA	NA	NA	NA	NA	"01"	"02"	"2023-12-13_13h12.24.200"	"BART_exp"	"2023.2.2"	"None"	"2023-12-13 13h12.40.391517 +0100"	NA
"balloon.png"	53	0	26	26	12	147.67442950001	NA	NA	NA	NA	NA	NA	NA	NA	NA	NA	NA	NA	147.602601200109	147.67442950001	147.67442950001	147.67442950001	147.67442950001	147.67442950001	0.0157607999863103	0.0157607999863103	0.0157607999863103	147.67442950001	151.836867000093	19	0.95	FALSE	"[0.025833333333333333, 0.025833333333333333, 0.025833333333333333, 0.025833333333333333, 0.02666666666666667, 0.02666666666666667, 0.02666666666666667, 0.02666666666666667, 0.02666666666666667, 0.02666666666666667, 0.02666666666666667, 0.02666666666666667, 0.02666666666666667, 0.02666666666666667, 0.02666666666666667, 0.02666666666666667, 0.02666666666666667, 0.02666666666666667, 0.02666666666666667, 0.0475]"	"[-0.37916666666666665, -0.37916666666666665, -0.37916666666666665, -0.37916666666666665, -0.37833333333333335, -0.37833333333333335, -0.37833333333333335, -0.37833333333333335, -0.37833333333333335, -0.37833333333333335, -0.3775, -0.3775, -0.3775, -0.3775, -0.3775, -0.37666666666666665, -0.37666666666666665, -0.37666666666666665, -0.37666666666666665, -0.29]"	"[1, 1, 1, 1, 1, 1, 1, 1, 1, 1, 1, 1, 1, 1, 1, 1, 1, 1, 1, 0]"	"[0, 0, 0, 0, 0, 0, 0, 0, 0, 0, 0, 0, 0, 0, 0, 0, 0, 0, 0, 0]"	"[0, 0, 0, 0, 0, 0, 0, 0, 0, 0, 0, 0, 0, 0, 0, 0, 0, 0, 0, 1]"	"[0.3828180000418797, 0.5671349000185728, 0.7475437000393867, 0.9473673000466079, 1.1483264000853524, 1.36682750005275, 1.5670878000091761, 1.766208600020036, 1.9656374000478536, 2.1660698000341654, 2.3660253999987617, 2.546542900032364, 2.7460775000508875, 2.9463191999820992, 3.1457665000343695, 3.348633800051175, 3.546172200003639, 3.7318096000235528, 3.9454072000226006, 4.232810900080949]"	19	"[0.32084780000150204, 0.5051547000184655, 0.6855620000278577, 0.8853920999681577, 1.0863550000358373, 1.304849800071679, 1.5051184999756515, 1.704230200033635, 1.9036572000477463, 2.1041294999886304, 2.3040488000260666, 2.484567700070329, 2.684108500019647, 2.884347200044431, 3.0837852000258863, 3.2869520999956876, 3.4841998000629246, 3.6698354000691324, 3.8834248000057414]"	"[0.38537410006392747, 0.5695013999938965, 0.7521109000081196, 0.9519060000311583, 1.1685482000466436, 1.370863200048916, 1.584637499996461, 1.784612699993886, 1.9701814000727609, 2.1511404999764636, 2.3508884999901056, 2.55121639999561, 2.7510342999594286, 2.950450500007719, 3.1501116000581533, 3.3504698000615463, 3.550345499999821, 3.7500819000415504, 3.967145700007677]"	151.837959100027	151.847952500102	153.332490500063	153.346253600088	NA	NA	NA	NA	NA	NA	NA	"01"	"02"	"2023-12-13_13h12.24.200"	"BART_exp"	"2023.2.2"	"None"	"2023-12-13 13h12.40.391517 +0100"	NA
"balloon.png"	97	0	27	27	22	153.346253600088	NA	NA	NA	NA	NA	NA	NA	NA	NA	NA	NA	NA	153.332884400035	153.346253600088	153.346253600088	153.346253600088	153.346253600088	153.346253600088	0.00840569997671991	0.00840569997671991	0.00840569997671991	153.346253600088	158.446062100003	23	1.15	FALSE	"[0.035, 0.035, 0.035, 0.035, 0.035, 0.035, 0.035, 0.035, 0.035, 0.035, 0.035, 0.035, 0.03666666666666667, 0.03666666666666667, 0.0375, 0.0375, 0.0375, 0.0375, 0.0375, 0.0375, 0.0375, 0.0375, 0.0375, 0.05333333333333334]"	"[-0.38916666666666666, -0.3883333333333333, -0.3883333333333333, -0.3883333333333333, -0.3883333333333333, -0.3883333333333333, -0.3883333333333333, -0.3883333333333333, -0.3883333333333333, -0.3883333333333333, -0.3883333333333333, -0.3883333333333333, -0.3883333333333333, -0.3883333333333333, -0.3875, -0.3875, -0.3875, -0.3875, -0.3875, -0.3875, -0.38666666666666666, -0.38666666666666666, -0.38666666666666666, -0.2941666666666667]"	"[1, 1, 1, 1, 1, 1, 1, 1, 1, 1, 1, 1, 1, 1, 1, 1, 1, 1, 1, 1, 1, 1, 1, 0]"	"[0, 0, 0, 0, 0, 0, 0, 0, 0, 0, 0, 0, 0, 0, 0, 0, 0, 0, 0, 0, 0, 0, 0, 0]"	"[0, 0, 0, 0, 0, 0, 0, 0, 0, 0, 0, 0, 0, 0, 0, 0, 0, 0, 0, 0, 0, 0, 0, 1]"	"[0.20087399997282773, 0.4138705999357626, 0.6140076000010595, 0.8333758999360725, 1.0333825999405235, 1.2466852999059483, 1.4467645999975502, 1.679740099934861, 1.8661607999820262, 2.0796191999688745, 2.2792003999929875, 2.479250599979423, 2.704657399910502, 2.899339299998246, 3.1117790999123827, 3.2988879999611527, 3.5120611999882385, 3.7337112999521196, 3.9453353999415413, 4.164363899966702, 4.377922799903899, 4.5971655999310315, 4.7969095999142155, 5.11195199994836]"	23	"[0.1986322000157088, 0.41163059999234974, 0.6117624000180513, 0.8311224000062793, 1.0311334000434726, 1.2444425000576302, 1.4445191000122577, 1.6774934000568464, 1.8639195000287145, 2.077370300074108, 2.2769577000290155, 2.477007900015451, 2.702417500084266, 2.897095200023614, 3.109537100070156, 3.2966423000907525, 3.5098106000805274, 3.7314795000711456, 3.9430990000255406, 4.162124500027858, 4.37567300000228, 4.594917000038549, 4.794683400075883]"	"[0.27824040001723915, 0.477971600019373, 0.6778900000499561, 0.8973934000823647, 1.1112938000587747, 1.3109498000703752, 1.5439156000502408, 1.7440124000422657, 1.9438984000589699, 2.1438314000843093, 2.3767268999945372, 2.576587500050664, 2.794195100083016, 2.9764091999968514, 3.176238000043668, 3.376142300083302, 3.5936481000389904, 3.82694480009377, 4.028415500069968, 4.242298200028017, 4.44220380007755, 4.695250199991278, 4.875007500057109]"	158.447233600076	158.461377500091	159.960542800021	NA	NA	NA	NA	NA	NA	NA	NA	"01"	"02"	"2023-12-13_13h12.24.200"	"BART_exp"	"2023.2.2"	"None"	"2023-12-13 13h12.40.391517 +0100"	NA
"balloon.png"	18	0	28	28	4	159.981330500101	NA	NA	NA	NA	NA	NA	NA	NA	NA	NA	NA	NA	159.961127800052	159.981330500101	159.981330500101	159.981330500101	159.981330500101	159.981330500101	0.0156879000132903	0.0156879000132903	0.0156879000132903	159.981330500101	163.55902080005	19	0.9	TRUE	"[0.025, 0.025, 0.025, 0.025, 0.025, 0.025, 0.025, 0.025, 0.025, 0.025, 0.025, 0.025, 0.025, 0.025, 0.025833333333333333, 0.025833333333333333, 0.025833333333333333, 0.025833333333333333]"	"[-0.38916666666666666, -0.38916666666666666, -0.38916666666666666, -0.38916666666666666, -0.38916666666666666, -0.38916666666666666, -0.38916666666666666, -0.38916666666666666, -0.3875, -0.3875, -0.385, -0.385, -0.38333333333333336, -0.3825, -0.3825, -0.38166666666666665, -0.38166666666666665, -0.38166666666666665]"	"[1, 1, 1, 1, 1, 1, 1, 1, 1, 1, 1, 1, 1, 1, 1, 1, 1, 1]"	"[0, 0, 0, 0, 0, 0, 0, 0, 0, 0, 0, 0, 0, 0, 0, 0, 0, 0]"	"[0, 0, 0, 0, 0, 0, 0, 0, 0, 0, 0, 0, 0, 0, 0, 0, 0, 0]"	"[0.1343454000307247, 0.33168509998358786, 0.5338284999597818, 0.7172106000361964, 0.9169631999684498, 1.097325999988243, 1.2973518000217155, 1.496795800048858, 1.7010317000094801, 1.883378200000152, 2.083485000068322, 2.2827155999839306, 2.4964520999928936, 2.6965645999880508, 2.896450400003232, 3.11360479996074, 3.315736199961975, 3.4960037000710145]"	18	"[0.12385460000950843, 0.32140360004268587, 0.5233486000215635, 0.7067251999396831, 0.9064804000081494, 1.0868432000279427, 1.286870599957183, 1.4863099999492988, 1.6909863000037149, 1.8728964000474662, 2.0730006999801844, 2.272242599981837, 2.485971000045538, 2.686081000021659, 2.8859579999698326, 3.103289999999106, 3.3052519999910146, 3.4855277000460774]"	"[0.20426569995470345, 0.3868073000339791, 0.5871243999572471, 0.7536026999587193, 0.9725881000049412, 1.186675800010562, 1.386595500051044, 1.5530616999603808, 1.7528459000168368, 1.9722375000128523, 2.1526421000016853, 2.35238269995898, 2.5717372000217438, 2.7719876000192016, 2.97129659994971, 3.1852757999440655, 3.371637300006114, 3.571225699968636]"	163.5600364001	163.575152800069	165.073945900076	NA	NA	NA	NA	NA	NA	NA	NA	"01"	"02"	"2023-12-13_13h12.24.200"	"BART_exp"	"2023.2.2"	"None"	"2023-12-13 13h12.40.391517 +0100"	NA
"balloon.png"	31	0	29	29	7	165.127996000112	NA	NA	NA	NA	NA	NA	NA	NA	NA	NA	NA	NA	165.074519100017	165.127996000112	165.127996000112	165.127996000112	165.127996000112	165.127996000112	0.0162278999341652	0.0162278999341652	0.0162278999341652	165.127996000112	169.439212199999	21	1.05	FALSE	"[0.0275, 0.0275, 0.0275, 0.0275, 0.0275, 0.0275, 0.0275, 0.028333333333333332, 0.028333333333333332, 0.028333333333333332, 0.028333333333333332, 0.028333333333333332, 0.028333333333333332, 0.028333333333333332, 0.028333333333333332, 0.028333333333333332, 0.028333333333333332, 0.028333333333333332, 0.028333333333333332, 0.028333333333333332, 0.0225]"	"[-0.3775, -0.3775, -0.3775, -0.3775, -0.3775, -0.3775, -0.3775, -0.3775, -0.3775, -0.3775, -0.3775, -0.3775, -0.3775, -0.37666666666666665, -0.37666666666666665, -0.37666666666666665, -0.37666666666666665, -0.37666666666666665, -0.37583333333333335, -0.37583333333333335, -0.26916666666666667]"	"[1, 1, 1, 1, 1, 1, 1, 1, 1, 1, 1, 1, 1, 1, 1, 1, 1, 1, 1, 1, 0]"	"[0, 0, 0, 0, 0, 0, 0, 0, 0, 0, 0, 0, 0, 0, 0, 0, 0, 0, 0, 0, 0]"	"[0, 0, 0, 0, 0, 0, 0, 0, 0, 0, 0, 0, 0, 0, 0, 0, 0, 0, 0, 0, 1]"	"[0.1679973000427708, 0.3992137999739498, 0.6001829999731854, 0.8005948000354692, 1.0475151999853551, 1.2473310999339446, 1.4665960000129417, 1.680356299970299, 1.8665488000260666, 2.080066700000316, 2.266167699941434, 2.464174299966544, 2.666360200033523, 2.900205299956724, 3.11257699993439, 3.332467700005509, 3.512872099992819, 3.712188999983482, 3.880338200018741, 4.065051499987021, 4.362819300033152]"	20	"[0.12375260004773736, 0.35516260005533695, 0.5560859000543132, 0.7563543999567628, 1.0032762000337243, 1.2030928999884054, 1.422362899989821, 1.6361201000399888, 1.8223137999884784, 2.0358283000532538, 2.2219326000194997, 2.419996100012213, 2.6221380999777466, 2.855962899979204, 3.0683342999545857, 3.288239900022745, 3.4686302000191063, 3.667952800053172, 3.8360917000100017, 4.020815500058234]"	"[0.189627300016582, 0.43667359999381006, 0.6366157999727875, 0.8562280000187457, 1.0694450000301003, 1.2887339000590146, 1.5032324000494555, 1.7023353000404313, 1.8883368000388145, 2.0884262999752536, 2.3021853000391275, 2.5017872999887913, 2.7354550999589264, 2.935433999984525, 3.1546130999922752, 3.3348448000615463, 3.5347706000320613, 3.701555300038308, 3.8870593999745324, 4.084959700005129]"	169.440334000043	169.45235310006	170.937946400023	170.951061300002	NA	NA	NA	NA	NA	NA	NA	"01"	"02"	"2023-12-13_13h12.24.200"	"BART_exp"	"2023.2.2"	"None"	"2023-12-13 13h12.40.391517 +0100"	NA
NA	NA	NA	NA	NA	NA	NA	NA	NA	NA	NA	NA	NA	NA	NA	NA	NA	NA	NA	NA	NA	NA	NA	NA	NA	NA	NA	NA	NA	NA	NA	NA	NA	NA	NA	NA	NA	NA	NA	NA	NA	NA	NA	NA	NA	NA	170.938011600054	170.951061300002	170.951061300002	172.537046100013	"space"	1.56727989995852	"None"	"01"	"02"	"2023-12-13_13h12.24.200"	"BART_exp"	"2023.2.2"	"None"	"2023-12-13 13h12.40.391517 +0100"	NA
