"image"	"max_pumps"	"pump_loop.thisRepN"	"pump_loop.thisTrialN"	"pump_loop.thisN"	"pump_loop.thisIndex"	"thisRow.t"	"notes"	"Start.started"	"text_start.started"	"continue_start.started"	"mouse_start.started"	"Start.stopped"	"mouse_start.x"	"mouse_start.y"	"mouse_start.leftButton"	"mouse_start.midButton"	"mouse_start.rightButton"	"mouse_start.time"	"trials.started"	"stim_balloon.started"	"stim_balloon_burst.started"	"stim_balloon_burst.stopped"	"text_ballon_value.started"	"text_bank.started"	"mouse.started"	"sound_bang.started"	"sound_bang.stopped"	"button_balloon.started"	"trials.stopped"	"n_pumps"	"earnings"	"popped"	"mouse.x"	"mouse.y"	"mouse.leftButton"	"mouse.midButton"	"mouse.rightButton"	"mouse.time"	"button_balloon.numClicks"	"button_balloon.timesOn"	"button_balloon.timesOff"	"Feedback.started"	"text_feedback.started"	"text_feedback.stopped"	"Feedback.stopped"	"End.started"	"text_end.started"	"key_end.started"	"End.stopped"	"key_end.keys"	"key_end.rt"	"key_end.duration"	"participant"	"session"	"date"	"expName"	"psychopyVersion"	"frameRate"	"expStart"	"...61"
NA	NA	NA	NA	NA	NA	NA	NA	0.00108539999928325	0.00551669998094439	0.00551669998094439	0.00137829995946958	59.0941940000048	"[0.7611111111111111]"	"[-0.37222222222222223]"	"[1]"	"[0]"	"[0]"	"[59.09185610001441]"	NA	NA	NA	NA	NA	NA	NA	NA	NA	NA	NA	NA	NA	NA	NA	NA	NA	NA	NA	NA	NA	NA	NA	NA	NA	NA	NA	NA	NA	NA	NA	NA	NA	NA	33	"02"	"2024-02-27_09h18.13.575"	"BART_exp"	"2023.2.3"	122.101463812605	"2024-02-27 09h18.25.275570 +0100"	NA
"balloon.png"	114	0	0	0	26	59.163616899983	NA	NA	NA	NA	NA	NA	NA	NA	NA	NA	NA	NA	59.1017215999891	59.163616899983	59.163616899983	59.163616899983	59.163616899983	59.163616899983	0.00925339997047558	0.00925339997047558	0.00925339997047558	59.163616899983	69.403863399988	38	1.9	FALSE	"[-0.028703703703703703, -0.026851851851851852, -0.026851851851851852, -0.026851851851851852, -0.025, -0.022222222222222223, 0.04814814814814815, 0.05092592592592592, 0.05740740740740741, 0.05740740740740741, 0.05740740740740741, 0.05740740740740741, 0.05648148148148148, 0.05648148148148148, 0.05648148148148148, 0.05648148148148148, 0.05648148148148148, 0.05648148148148148, 0.05648148148148148, 0.05648148148148148, 0.05648148148148148, 0.05648148148148148, 0.05648148148148148, 0.05648148148148148, 0.053703703703703705, 0.05462962962962963, 0.058333333333333334, 0.058333333333333334, 0.058333333333333334, 0.058333333333333334, 0.05740740740740741, 0.05648148148148148, 0.05555555555555555, 0.05555555555555555, 0.05555555555555555, 0.05555555555555555, 0.05555555555555555, 0.05555555555555555, 0.05648148148148148, 0.05648148148148148, 0.05740740740740741, 0.05740740740740741, 0.05740740740740741, 0.05740740740740741, 0.05740740740740741, 0.05740740740740741, 0.05740740740740741]"	"[-0.025, -0.025925925925925925, -0.026851851851851852, -0.026851851851851852, -0.025, -0.024074074074074074, -0.4759259259259259, -0.45092592592592595, -0.41574074074074074, -0.412962962962963, -0.4064814814814815, -0.40555555555555556, -0.4046296296296296, -0.4046296296296296, -0.4046296296296296, -0.4046296296296296, -0.4046296296296296, -0.4046296296296296, -0.4046296296296296, -0.4046296296296296, -0.4046296296296296, -0.4046296296296296, -0.4046296296296296, -0.4046296296296296, -0.40370370370370373, -0.40370370370370373, -0.3990740740740741, -0.3990740740740741, -0.3990740740740741, -0.3990740740740741, -0.4, -0.3990740740740741, -0.39814814814814814, -0.39814814814814814, -0.39814814814814814, -0.39814814814814814, -0.39814814814814814, -0.3972222222222222, -0.3962962962962963, -0.3962962962962963, -0.3962962962962963, -0.3962962962962963, -0.39537037037037037, -0.39537037037037037, -0.39537037037037037, -0.39537037037037037, -0.39537037037037037]"	"[1, 1, 1, 1, 1, 1, 1, 1, 1, 1, 1, 1, 1, 1, 1, 1, 1, 1, 1, 1, 1, 1, 1, 1, 1, 1, 1, 1, 1, 1, 1, 1, 1, 1, 1, 1, 1, 1, 1, 1, 1, 1, 1, 1, 1, 1, 0]"	"[0, 0, 0, 0, 0, 0, 0, 0, 0, 0, 0, 0, 0, 0, 0, 0, 0, 0, 0, 0, 0, 0, 0, 0, 0, 0, 0, 0, 0, 0, 0, 0, 0, 0, 0, 0, 0, 0, 0, 0, 0, 0, 0, 0, 0, 0, 0]"	"[0, 0, 0, 0, 0, 0, 0, 0, 0, 0, 0, 0, 0, 0, 0, 0, 0, 0, 0, 0, 0, 0, 0, 0, 0, 0, 0, 0, 0, 0, 0, 0, 0, 0, 0, 0, 0, 0, 0, 0, 0, 0, 0, 0, 0, 0, 1]"	"[1.8840211000060663, 2.0507063000113703, 2.2173348999931477, 2.3937372000073083, 2.542109799978789, 2.735370000009425, 3.1589551999932155, 3.3254860999877565, 3.4921889000106603, 3.6842028999817558, 3.8590977999847382, 4.000814100028947, 4.183988099975977, 4.325767099973746, 4.484214299998712, 4.650875799998175, 4.8091978000011295, 4.992414399981499, 5.13413090002723, 5.309032000019215, 5.467666400014423, 5.642600200022571, 5.792619100015145, 5.97578410001006, 6.167520700022578, 6.377034000004642, 6.60940750001464, 6.767600400024094, 6.934320500004105, 7.08452049997868, 7.253197000012733, 7.426125500001945, 7.592714499973226, 7.942540600022767, 8.10168129997328, 8.251781300001312, 8.434995100018568, 8.60942170000635, 8.785451399977319, 8.967704500013497, 9.142592100019101, 9.325936899986118, 9.567669700016268, 9.725978799979202, 9.892659400007688, 10.084559899987653, 10.30094550002832]"	38	"[3.436175799986813, 3.6282232999801636, 3.803092599962838, 3.9448134999838658, 4.127981500001624, 4.269757199974265, 4.428220899950247, 4.594890199950896, 4.753204799955711, 5.078118999954313, 5.253013699955773, 5.411658999975771, 5.586592499981634, 5.736634899978526, 5.919777299975976, 6.111535299976822, 6.321200299949851, 6.553417899995111, 6.711602199997287, 6.878312099957839, 7.028554199961945, 7.197186299948953, 7.37012399995001, 7.536718199960887, 7.886525999987498, 8.045702199975494, 8.19581979996292, 8.37907639995683, 8.553441199997906, 8.729524199967273, 8.911738999944646, 9.086583099968266, 9.26993319997564, 9.511710299993865, 9.669988099951297, 9.836648099997547, 10.028604799997993, 10.244882199971471]"	"[3.5278375999769196, 3.702759799954947, 3.861155199992936, 4.019481599971186, 4.194513699971139, 4.369512199948076, 4.527885299990885, 4.694637299980968, 5.0113257999764755, 5.169565099989995, 5.34466139995493, 5.528038999997079, 5.6947029999573715, 5.853004699980374, 6.0113969999947585, 6.194742199964821, 6.352983099990524, 6.611530099995434, 6.7614718999830075, 6.928196799999569, 7.094901399977971, 7.2530471999780275, 7.428477199980989, 7.58635709999362, 7.928753699990921, 8.112170899985358, 8.269771099963691, 8.453071700001601, 8.611811699985992, 8.795108799997251, 8.961643199960236, 9.153149699966889, 9.319812299974728, 9.536506699980237, 9.719846199965104, 9.886535899946466, 10.061573999992106, 10.244886599946767]"	69.4062930000364	69.4164279000252	70.923180999991	70.9040341000073	NA	NA	NA	NA	NA	NA	NA	33	"02"	"2024-02-27_09h18.13.575"	"BART_exp"	"2023.2.3"	122.101463812605	"2024-02-27 09h18.25.275570 +0100"	NA
"balloon.png"	5	0	1	1	1	70.923180999991	NA	NA	NA	NA	NA	NA	NA	NA	NA	NA	NA	NA	70.9043363000383	70.923180999991	70.923180999991	70.923180999991	70.923180999991	70.923180999991	0.00065280002309009	0.00065280002309009	0.00065280002309009	70.923180999991	71.8542640000232	6	0.25	TRUE	"[0.058333333333333334, 0.058333333333333334, 0.058333333333333334, 0.058333333333333334, 0.058333333333333334]"	"[-0.39537037037037037, -0.39537037037037037, -0.39537037037037037, -0.39537037037037037, -0.39537037037037037]"	"[1, 1, 1, 1, 1]"	"[0, 0, 0, 0, 0]"	"[0, 0, 0, 0, 0]"	"[0.19031490001361817, 0.356775899999775, 0.523468800005503, 0.7068344000144862, 0.8818299999693409]"	5	"[0.17703049996634945, 0.34349369996925816, 0.5101663999957964, 0.6935369999846444, 0.868524499994237]"	"[0.20998330001020804, 0.39890339999692515, 0.5600662999786437, 0.7449419999611564, 0.926791800011415]"	71.8549586000154	71.8621668000123	73.3630537000136	73.3527364000329	NA	NA	NA	NA	NA	NA	NA	33	"02"	"2024-02-27_09h18.13.575"	"BART_exp"	"2023.2.3"	122.101463812605	"2024-02-27 09h18.25.275570 +0100"	NA
"balloon.png"	75	0	2	2	17	73.3630537000136	NA	NA	NA	NA	NA	NA	NA	NA	NA	NA	NA	NA	73.3529491000227	73.3630537000136	73.3630537000136	73.3630537000136	73.3630537000136	73.3630537000136	-0.00045110000064596	-0.00045110000064596	-0.00045110000064596	73.3630537000136	79.5960863000364	32	1.6	FALSE	"[0.058333333333333334, 0.058333333333333334, 0.058333333333333334, 0.058333333333333334, 0.058333333333333334, 0.058333333333333334, 0.058333333333333334, 0.058333333333333334, 0.058333333333333334, 0.058333333333333334, 0.058333333333333334, 0.058333333333333334, 0.058333333333333334, 0.06018518518518518, 0.06018518518518518, 0.06018518518518518, 0.06018518518518518, 0.06018518518518518, 0.06018518518518518, 0.06296296296296296, 0.06296296296296296, 0.06296296296296296, 0.06388888888888888, 0.06388888888888888, 0.06388888888888888, 0.06388888888888888, 0.06388888888888888, 0.06388888888888888, 0.06388888888888888, 0.06388888888888888, 0.06388888888888888, 0.05925925925925926, 0.049074074074074076]"	"[-0.39537037037037037, -0.39537037037037037, -0.39537037037037037, -0.39537037037037037, -0.39537037037037037, -0.39537037037037037, -0.39537037037037037, -0.39537037037037037, -0.39537037037037037, -0.39537037037037037, -0.39537037037037037, -0.39537037037037037, -0.39537037037037037, -0.3972222222222222, -0.3972222222222222, -0.3972222222222222, -0.3972222222222222, -0.3972222222222222, -0.3972222222222222, -0.3990740740740741, -0.3990740740740741, -0.3990740740740741, -0.3990740740740741, -0.3990740740740741, -0.3990740740740741, -0.3990740740740741, -0.3990740740740741, -0.41388888888888886, -0.41388888888888886, -0.41388888888888886, -0.41388888888888886, -0.4203703703703704, -0.39814814814814814]"	"[1, 1, 1, 1, 1, 1, 1, 1, 1, 1, 1, 1, 1, 1, 1, 1, 1, 1, 1, 1, 1, 1, 1, 1, 1, 1, 1, 1, 1, 1, 1, 1, 0]"	"[0, 0, 0, 0, 0, 0, 0, 0, 0, 0, 0, 0, 0, 0, 0, 0, 0, 0, 0, 0, 0, 0, 0, 0, 0, 0, 0, 0, 0, 0, 0, 0, 0]"	"[0, 0, 0, 0, 0, 0, 0, 0, 0, 0, 0, 0, 0, 0, 0, 0, 0, 0, 0, 0, 0, 0, 0, 0, 0, 0, 0, 0, 0, 0, 0, 0, 1]"	"[0.05843560001812875, 0.234618499991484, 0.4169015000225045, 0.5836039999849163, 0.766933600010816, 0.9420823999680579, 1.1253497999859974, 1.3085327000007965, 1.4918878999887966, 1.6669463000143878, 1.8334948999690823, 2.016807699983474, 2.20043089997489, 2.392684700025711, 2.5758976999786682, 2.759424799995031, 3.109553100017365, 3.3001912999898195, 3.492408299993258, 3.7002303000190295, 3.866922200017143, 4.050302600022405, 4.233604200009722, 4.416933599975891, 4.583778999978676, 4.775553899991792, 4.942188500019256, 5.125555099977646, 5.317125400004443, 5.517069299996365, 5.675334799976554, 5.867120000009891, 6.24206919997232]"	33	"[0.053633400006219745, 0.23005439998814836, 0.41213029995560646, 0.5787984000053257, 0.7621453999890946, 0.9373054999741726, 1.1205526999547146, 1.3037253000074998, 1.4870901000103913, 1.662139699968975, 1.8286899999948218, 2.011993899999652, 2.195631599985063, 2.3878737000050023, 2.5711054999846965, 2.754651199968066, 3.1047893000068143, 3.295377100002952, 3.487674899981357, 3.695417599985376, 3.862112100003287, 4.045506599999499, 4.228795600007288, 4.412124799971934, 4.57896419998724, 4.7708051999798045, 4.937432000006083, 5.120795399998315, 5.312317800009623, 5.512258299975656, 5.670523699955083, 5.86255139997229, 6.237197499955073]"	"[0.11174629995366558, 0.28687249997165054, 0.4618000999907963, 0.6368941999971867, 0.8202715999796055, 0.9952428999822587, 1.1870191000052728, 1.3536178999929689, 1.5369735999847762, 1.7119156999979168, 1.8953531999723054, 2.07859260000987, 2.270567999978084, 2.4452805999899283, 2.628579299955163, 2.8119187999982387, 3.1629167000064626, 3.3540139999822713, 3.545383899996523, 3.729999899980612, 3.9120228000101633, 4.103974299971014, 4.287167300004512, 4.478717499994673, 4.687161999987438, 4.8454429999692366, 5.02878699998837, 5.18706279998878, 5.378795999975409, 5.578829200007021, 5.745490900008008, 5.94553669996094, 6.237201699987054]"	79.5974933999823	79.6038917999831	81.0944442999898	81.0865893000155	NA	NA	NA	NA	NA	NA	NA	33	"02"	"2024-02-27_09h18.13.575"	"BART_exp"	"2023.2.3"	122.101463812605	"2024-02-27 09h18.25.275570 +0100"	NA
"balloon.png"	10	0	3	3	2	81.0944442999898	NA	NA	NA	NA	NA	NA	NA	NA	NA	NA	NA	NA	81.0868173000054	81.0944442999898	81.0944442999898	81.0944442999898	81.0944442999898	81.0944442999898	0.00526019994867965	0.00526019994867965	0.00526019994867965	81.0944442999898	83.2638464000192	11	0.5	TRUE	"[0.02962962962962963, 0.02962962962962963, 0.02962962962962963, 0.02962962962962963, 0.02962962962962963, 0.02962962962962963, 0.02962962962962963, 0.02962962962962963, 0.02962962962962963, 0.02962962962962963, 0.02962962962962963]"	"[-0.39444444444444443, -0.39444444444444443, -0.39444444444444443, -0.39444444444444443, -0.39444444444444443, -0.39444444444444443, -0.39444444444444443, -0.39444444444444443, -0.39444444444444443, -0.39444444444444443, -0.39444444444444443]"	"[1, 1, 1, 1, 1, 1, 1, 1, 1, 1, 1]"	"[0, 0, 0, 0, 0, 0, 0, 0, 0, 0, 0]"	"[0, 0, 0, 0, 0, 0, 0, 0, 0, 0, 0]"	"[0.36694290000014007, 0.5167619999847375, 0.6834865999990143, 0.8670285000116564, 1.0419844999560155, 1.2087520000059158, 1.4004237999906763, 1.5835850999574177, 1.766902500006836, 1.9251868999563158, 2.1085269000031985]"	11	"[0.3647014999878593, 0.5144825999741443, 0.681201700004749, 0.8647548999870196, 1.0397229999653064, 1.2065060999593697, 1.3981682999874465, 1.5812986000091769, 1.7646298999898136, 1.9228994000004604, 2.1062466999865137]"	"[0.4227070999913849, 0.589353299990762, 0.7727257999940775, 0.9311041999608278, 1.1145102999871597, 1.2978021000162698, 1.4645462000044063, 1.6478432000149041, 1.8145239999867044, 1.9978954999824055, 2.164649099984672]"	83.2647888000356	83.2695732000284	84.762105700036	84.753859599994	NA	NA	NA	NA	NA	NA	NA	33	"02"	"2024-02-27_09h18.13.575"	"BART_exp"	"2023.2.3"	122.101463812605	"2024-02-27 09h18.25.275570 +0100"	NA
"balloon.png"	123	0	4	4	28	84.762105700036	NA	NA	NA	NA	NA	NA	NA	NA	NA	NA	NA	NA	84.7540747000021	84.762105700036	84.762105700036	84.762105700036	84.762105700036	84.762105700036	0.00487810000777244	NA	NA	84.762105700036	85.4298149000388	4	0.2	FALSE	"[0.027777777777777776, 0.027777777777777776, 0.027777777777777776, 0.027777777777777776]"	"[-0.39444444444444443, -0.39444444444444443, -0.39444444444444443, -0.39444444444444443]"	"[1, 1, 1, 0]"	"[0, 0, 0, 0]"	"[0, 0, 0, 1]"	"[0.14161529997363687, 0.32501039997441694, 0.5003522000042722, 0.6746792999911122]"	4	"[0.1390328000416048, 0.3224035000312142, 0.4978005000157282, 0.6720191999920644]"	"[0.25534309999784455, 0.414256900025066, 0.5719781999941915, 0.6720235000248067]"	85.4304754000041	85.4364036000334	86.9305088000256	86.922727200028	NA	NA	NA	NA	NA	NA	NA	33	"02"	"2024-02-27_09h18.13.575"	"BART_exp"	"2023.2.3"	122.101463812605	"2024-02-27 09h18.25.275570 +0100"	NA
"balloon.png"	1	0	5	5	0	86.9305088000256	NA	NA	NA	NA	NA	NA	NA	NA	NA	NA	NA	NA	86.9230034000357	86.9305088000256	86.9305088000256	86.9305088000256	86.9305088000256	86.9305088000256	0.00010629999451339	0.00010629999451339	0.00010629999451339	86.9305088000256	87.4390828000032	2	0.05	TRUE	"[0.027777777777777776, 0.027777777777777776]"	"[-0.39444444444444443, -0.39444444444444443]"	"[1, 1]"	"[0, 0]"	"[0, 0]"	"[0.2224848999758251, 0.3893985999748111]"	2	"[0.2202631999971345, 0.38717910001287237]"	"[0.31188390002353117, 0.5036285000387579]"	87.4401598999975	87.4448497000267	88.9370350000099	88.928786000004	NA	NA	NA	NA	NA	NA	NA	33	"02"	"2024-02-27_09h18.13.575"	"BART_exp"	"2023.2.3"	122.101463812605	"2024-02-27 09h18.25.275570 +0100"	NA
"balloon.png"	92	0	6	6	21	88.9370350000099	NA	NA	NA	NA	NA	NA	NA	NA	NA	NA	NA	NA	88.928996200033	88.9370350000099	88.9370350000099	88.9370350000099	88.9370350000099	88.9370350000099	0.00481429998762905	NA	NA	88.9370350000099	89.5969280999852	4	0.2	FALSE	"[0.027777777777777776, 0.027777777777777776, 0.027777777777777776, 0.027777777777777776]"	"[-0.39444444444444443, -0.39444444444444443, -0.39444444444444443, -0.39444444444444443]"	"[1, 1, 1, 0]"	"[0, 0, 0, 0]"	"[0, 0, 0, 1]"	"[0.12499879999086261, 0.316818899998907, 0.46686349995434284, 0.6668489999719895]"	4	"[0.12247180001577362, 0.3142894000047818, 0.46433970000362024, 0.6642551000113599]"	"[0.20572899997932836, 0.3642366999993101, 0.5724105999688618, 0.6642591999843717]"	89.5975908000255	89.603420200001	91.0952991000377	91.0873228000128	NA	NA	NA	NA	NA	NA	NA	33	"02"	"2024-02-27_09h18.13.575"	"BART_exp"	"2023.2.3"	122.101463812605	"2024-02-27 09h18.25.275570 +0100"	NA
"balloon.png"	118	0	7	7	27	91.0952991000377	NA	NA	NA	NA	NA	NA	NA	NA	NA	NA	NA	NA	91.0875463000266	91.0952991000377	91.0952991000377	91.0952991000377	91.0952991000377	91.0952991000377	0.00590280001051724	0.00590280001051724	0.00590280001051724	91.0952991000377	91.7139932999853	3	0.15	FALSE	"[0.027777777777777776, 0.027777777777777776, 0.027777777777777776, 0.027777777777777776]"	"[-0.39444444444444443, -0.39444444444444443, -0.39444444444444443, -0.39444444444444443]"	"[1, 1, 1, 0]"	"[0, 0, 0, 0]"	"[0, 0, 0, 1]"	"[0.06664539995836094, 0.25019069999689236, 0.41690699994796887, 0.6253069999511354]"	4	"[0.06437829998321831, 0.24793180002598092, 0.4146485000383109, 0.6229891999973916]"	"[0.1560522000072524, 0.33105460001388565, 0.5159539000014775, 0.6229935000301339]"	91.7146862000227	91.7201125000138	93.2123846000177	93.2041296000243	NA	NA	NA	NA	NA	NA	NA	33	"02"	"2024-02-27_09h18.13.575"	"BART_exp"	"2023.2.3"	122.101463812605	"2024-02-27 09h18.25.275570 +0100"	NA
"balloon.png"	101	0	8	8	23	93.2123846000177	NA	NA	NA	NA	NA	NA	NA	NA	NA	NA	NA	NA	93.2043424000149	93.2123846000177	93.2123846000177	93.2123846000177	93.2123846000177	93.2123846000177	0.00563580001471564	0.00563580001471564	0.00563580001471564	93.2123846000177	94.0314499000087	5	0.25	FALSE	"[0.027777777777777776, 0.027777777777777776, 0.027777777777777776, 0.027777777777777776, 0.027777777777777776]"	"[-0.39444444444444443, -0.39444444444444443, -0.39444444444444443, -0.39444444444444443, -0.39444444444444443]"	"[1, 1, 1, 1, 0]"	"[0, 0, 0, 0, 0]"	"[0, 0, 0, 0, 1]"	"[0.09208799997577444, 0.2755771999945864, 0.46695079997880384, 0.6424228000105359, 0.8259140999871306]"	5	"[0.08964000002015382, 0.2731158999959007, 0.4644933000090532, 0.6399836000055075, 0.8234180000144988]"	"[0.20611769997049123, 0.36409619997721165, 0.5562141999835148, 0.7140979000250809, 0.8234230999951251]"	94.0321881999844	94.0369475000189	95.5290531000355	95.5208476000116	NA	NA	NA	NA	NA	NA	NA	33	"02"	"2024-02-27_09h18.13.575"	"BART_exp"	"2023.2.3"	122.101463812605	"2024-02-27 09h18.25.275570 +0100"	NA
"balloon.png"	31	0	9	9	7	95.5290531000355	NA	NA	NA	NA	NA	NA	NA	NA	NA	NA	NA	NA	95.5210719000315	95.5290531000355	95.5290531000355	95.5290531000355	95.5290531000355	95.5290531000355	0.00498059997335076	0.00498059997335076	0.00498059997335076	95.5290531000355	97.4808256999822	11	0.55	FALSE	"[0.027777777777777776, 0.027777777777777776, 0.027777777777777776, 0.027777777777777776, 0.027777777777777776, 0.027777777777777776, 0.027777777777777776, 0.027777777777777776, 0.027777777777777776, 0.027777777777777776, 0.027777777777777776]"	"[-0.39444444444444443, -0.39444444444444443, -0.39444444444444443, -0.39444444444444443, -0.39444444444444443, -0.39444444444444443, -0.39444444444444443, -0.39444444444444443, -0.39444444444444443, -0.39444444444444443, -0.39444444444444443]"	"[1, 1, 1, 1, 1, 1, 1, 1, 1, 1, 0]"	"[0, 0, 0, 0, 0, 0, 0, 0, 0, 0, 0]"	"[0, 0, 0, 0, 0, 0, 0, 0, 0, 0, 1]"	"[0.19214430003194138, 0.36691159999463707, 0.5336772000300698, 0.7252903000335209, 0.8835603999905288, 1.0585643000085838, 1.2252443000325002, 1.4003878000075929, 1.5671030000085011, 1.741931900032796, 1.9586182000348344]"	11	"[0.18987349997041747, 0.36441179999383166, 0.5311944999848492, 0.7228634000057355, 0.8810648999642581, 1.056074699969031, 1.222752399975434, 1.3978957000072114, 1.5646130999666639, 1.7394364000065252, 1.9560559999663383]"	"[0.30587719997856766, 0.4725006999797188, 0.6475554999778979, 0.7808323000208475, 0.9642181000090204, 1.1477499000029638, 1.3335870999726467, 1.4975798999657854, 1.6724673999706283, 1.8742310999659821, 1.9560601999983191]"	97.4817326000193	97.4871891000075	98.980486800021	98.9711859000381	NA	NA	NA	NA	NA	NA	NA	33	"02"	"2024-02-27_09h18.13.575"	"BART_exp"	"2023.2.3"	122.101463812605	"2024-02-27 09h18.25.275570 +0100"	NA
"balloon.png"	105	0	10	10	24	98.980486800021	NA	NA	NA	NA	NA	NA	NA	NA	NA	NA	NA	NA	98.9714123000158	98.980486800021	98.980486800021	98.980486800021	98.980486800021	98.980486800021	0.00557390000903978	0.00557390000903978	0.00557390000903978	98.980486800021	104.15668200003	24	1.2	FALSE	"[0.027777777777777776, 0.027777777777777776, 0.027777777777777776, 0.027777777777777776, 0.027777777777777776, 0.027777777777777776, 0.027777777777777776, 0.027777777777777776, 0.027777777777777776, 0.027777777777777776, 0.027777777777777776, 0.027777777777777776, 0.027777777777777776, 0.027777777777777776, 0.027777777777777776, 0.027777777777777776, 0.027777777777777776, 0.027777777777777776, 0.027777777777777776, 0.027777777777777776, 0.027777777777777776, 0.027777777777777776, 0.027777777777777776, 0.027777777777777776]"	"[-0.39444444444444443, -0.39444444444444443, -0.39444444444444443, -0.39444444444444443, -0.39444444444444443, -0.39444444444444443, -0.39444444444444443, -0.39444444444444443, -0.39444444444444443, -0.39444444444444443, -0.39444444444444443, -0.39444444444444443, -0.39444444444444443, -0.39444444444444443, -0.39444444444444443, -0.39444444444444443, -0.39351851851851855, -0.3925925925925926, -0.3925925925925926, -0.3925925925925926, -0.39166666666666666, -0.39166666666666666, -0.39166666666666666, -0.39166666666666666]"	"[1, 1, 1, 1, 1, 1, 1, 1, 1, 1, 1, 1, 1, 1, 1, 1, 1, 1, 1, 1, 1, 1, 1, 0]"	"[0, 0, 0, 0, 0, 0, 0, 0, 0, 0, 0, 0, 0, 0, 0, 0, 0, 0, 0, 0, 0, 0, 0, 0]"	"[0, 0, 0, 0, 0, 0, 0, 0, 0, 0, 0, 0, 0, 0, 0, 0, 0, 0, 0, 0, 0, 0, 0, 1]"	"[0.18307430000277236, 0.36661430000094697, 0.5333207999938168, 0.7333897999487817, 1.2165634999983013, 1.3999098999775015, 1.5914326999918558, 1.8332908999873325, 2.0248335999785922, 2.2415209999890067, 2.4415481999749318, 2.633423399995081, 2.8333677999908105, 3.016744499967899, 3.2249059999594465, 3.433801599952858, 3.675199299992528, 3.9672066000057384, 4.17496089998167, 4.3582916999584995, 4.550455299962778, 4.750599899969529, 4.941850499948487, 5.183668599987868]"	24	"[0.1795315999770537, 0.36308129999088123, 0.5297843999578618, 0.729871199990157, 1.2130177000071853, 1.3963659000000916, 1.5878861999954097, 1.8297566999681294, 2.0212849999661557, 2.2379717999720015, 2.4380027999868616, 2.6298795999609865, 2.829838000005111, 3.013201499998104, 3.2213612999767065, 3.430291500000749, 3.671668299997691, 3.9636787999770604, 4.171410000009928, 4.354756399989128, 4.546939699968789, 4.747145199973602, 4.938303700007964, 5.1801042999722995]"	"[0.26278930000262335, 0.44617299997480586, 0.6795230999705382, 1.1211070999852382, 1.321125199960079, 1.5056326999911107, 1.6963253999711014, 1.9296584000112489, 2.146326699992642, 2.3378339000046253, 2.5212610999587923, 2.729737799963914, 2.9297264000051655, 3.1464680999633856, 3.321246000006795, 3.5634007999906316, 3.837950599961914, 4.054642200004309, 4.254610900010448, 4.463507600012235, 4.65468769997824, 4.838004799967166, 5.071357399981935, 5.180108900007326]"	104.157951900037	104.162645200035	105.655175100022	105.646649100003	NA	NA	NA	NA	NA	NA	NA	33	"02"	"2024-02-27_09h18.13.575"	"BART_exp"	"2023.2.3"	122.101463812605	"2024-02-27 09h18.25.275570 +0100"	NA
"balloon.png"	44	0	11	11	10	105.655175100022	NA	NA	NA	NA	NA	NA	NA	NA	NA	NA	NA	NA	105.646880200016	105.655175100022	105.655175100022	105.655175100022	105.655175100022	105.655175100022	0.00484790001064538	0.00484790001064538	0.00484790001064538	105.655175100022	110.4820664	22	1.1	FALSE	"[0.027777777777777776, 0.027777777777777776, 0.027777777777777776, 0.027777777777777776, 0.027777777777777776, 0.027777777777777776, 0.027777777777777776, 0.027777777777777776, 0.027777777777777776, 0.027777777777777776, 0.027777777777777776, 0.027777777777777776, 0.027777777777777776, 0.027777777777777776, 0.027777777777777776, 0.02962962962962963, 0.02962962962962963, 0.028703703703703703, 0.028703703703703703, 0.028703703703703703, 0.028703703703703703, 0.026851851851851852]"	"[-0.39166666666666666, -0.39166666666666666, -0.39166666666666666, -0.39166666666666666, -0.39166666666666666, -0.39166666666666666, -0.39166666666666666, -0.39166666666666666, -0.3907407407407407, -0.3907407407407407, -0.3907407407407407, -0.38981481481481484, -0.38981481481481484, -0.38981481481481484, -0.38981481481481484, -0.38796296296296295, -0.387037037037037, -0.387037037037037, -0.387037037037037, -0.387037037037037, -0.387037037037037, -0.387037037037037]"	"[1, 1, 1, 1, 1, 1, 1, 1, 1, 1, 1, 1, 1, 1, 1, 1, 1, 1, 1, 1, 1, 0]"	"[0, 0, 0, 0, 0, 0, 0, 0, 0, 0, 0, 0, 0, 0, 0, 0, 0, 0, 0, 0, 0, 0]"	"[0, 0, 0, 0, 0, 0, 0, 0, 0, 0, 0, 0, 0, 0, 0, 0, 0, 0, 0, 0, 0, 1]"	"[0.23352230002637953, 0.40844200004357845, 0.5835511000477709, 1.0502632000134327, 1.241873899998609, 1.4268357999972068, 1.6252078000106849, 1.8418735000304878, 2.0337565000518225, 2.208579300029669, 2.391973700025119, 2.567150600021705, 2.7670223000459373, 2.9419057000195608, 3.116950199997518, 3.300323900009971, 3.500399800017476, 3.691832000040449, 3.8752236000145786, 4.192115100042429, 4.5921555000240915, 4.834004000003915]"	22	"[0.23075709998374805, 0.40567740000551566, 0.5807931000017561, 1.0474919999833219, 1.2391000999487005, 1.4243439999991097, 1.6224396000034176, 1.8391003999859095, 2.0309957999852486, 2.205808300001081, 2.389216599985957, 2.5644382999744266, 2.764258199953474, 2.939130099955946, 3.114182199991774, 3.297560999984853, 3.497631999955047, 3.6890615999582224, 3.8724468000000343, 4.189355899987277, 4.589389099972323, 4.831186399969738]"	"[0.3137781999539584, 0.4887176000047475, 0.9638797999941744, 1.1554144999827258, 1.3306789000052959, 1.5054412999888882, 1.6888584999833256, 1.8887822999968193, 2.0888766999705695, 2.263908499968238, 2.447339199949056, 2.630642000003718, 2.8140166999655776, 2.98899329995038, 3.1640862999483943, 3.3641214999952354, 3.5724424999789335, 3.7474892999744043, 3.939057799987495, 4.2390469999518245, 4.6723704999894835, 4.831191100005526]"	110.483185700024	110.488100900024	111.988360200019	111.972106400004	NA	NA	NA	NA	NA	NA	NA	33	"02"	"2024-02-27_09h18.13.575"	"BART_exp"	"2023.2.3"	122.101463812605	"2024-02-27 09h18.25.275570 +0100"	NA
"balloon.png"	14	0	12	12	3	111.988360200019	NA	NA	NA	NA	NA	NA	NA	NA	NA	NA	NA	NA	111.972326399991	111.988360200019	111.988360200019	111.988360200019	111.988360200019	111.988360200019	0.00528300000587478	0.00528300000587478	0.00528300000587478	111.988360200019	115.198881899996	15	0.7	TRUE	"[0.016666666666666666, 0.016666666666666666, 0.016666666666666666, 0.016666666666666666, 0.016666666666666666, -0.017592592592592594, -0.025925925925925925, -0.027777777777777776, -0.02962962962962963, -0.02962962962962963, -0.028703703703703703, -0.028703703703703703, -0.028703703703703703, -0.027777777777777776, -0.027777777777777776]"	"[-0.3888888888888889, -0.3888888888888889, -0.3888888888888889, -0.3888888888888889, -0.39166666666666666, -0.38425925925925924, -0.3851851851851852, -0.3861111111111111, -0.3861111111111111, -0.3861111111111111, -0.3861111111111111, -0.3861111111111111, -0.3861111111111111, -0.3888888888888889, -0.3888888888888889]"	"[1, 1, 1, 1, 1, 1, 1, 1, 1, 1, 1, 1, 1, 1, 1]"	"[0, 0, 0, 0, 0, 0, 0, 0, 0, 0, 0, 0, 0, 0, 0]"	"[0, 0, 0, 0, 0, 0, 0, 0, 0, 0, 0, 0, 0, 0, 0]"	"[0.2759959999821149, 0.4834967000060715, 0.6502184999990277, 0.9001721999957226, 1.1537638999870978, 1.350012600014452, 1.5253915999783203, 1.7002859999774955, 1.8753107999800704, 2.050342099973932, 2.2585555000114255, 2.425087400013581, 2.616868000011891, 2.9252593999844976, 3.125237300002482]"	15	"[0.2737131000030786, 0.48115649999817833, 0.6479134000255726, 0.897829300025478, 1.1514160000369884, 1.347674900025595, 1.5232203000341542, 1.6979580000042915, 1.8730359000037424, 2.048024300020188, 2.2562630000174977, 2.4227487000171095, 2.6145306000253186, 2.922924000013154, 3.122912799997721]"	"[0.3562901000259444, 0.5395080000162125, 0.766238100011833, 0.956121199997142, 1.2061844000127167, 1.4227454000501893, 1.6059789000428282, 1.7809638000326231, 1.9476694000186399, 2.1392522000242025, 2.331148100027349, 2.564430700032972, 2.831044499995187, 3.0310921000200324, 3.2144035000237636]"	115.20033750002	115.213578100025	116.713548000029	116.697363100015	NA	NA	NA	NA	NA	NA	NA	33	"02"	"2024-02-27_09h18.13.575"	"BART_exp"	"2023.2.3"	122.101463812605	"2024-02-27 09h18.25.275570 +0100"	NA
"balloon.png"	23	0	13	13	5	116.713548000029	NA	NA	NA	NA	NA	NA	NA	NA	NA	NA	NA	NA	116.697580100037	116.713548000029	116.713548000029	116.713548000029	116.713548000029	116.713548000029	0.0133015000028536	NA	NA	116.713548000029	121.408109900018	20	1	FALSE	"[-0.027777777777777776, -0.027777777777777776, -0.027777777777777776, -0.027777777777777776, -0.028703703703703703, -0.028703703703703703, -0.028703703703703703, -0.025925925925925925, -0.025925925925925925, -0.026851851851851852, -0.026851851851851852, -0.026851851851851852, -0.026851851851851852, -0.026851851851851852, -0.027777777777777776, -0.021296296296296296, -0.021296296296296296, -0.03148148148148148, -0.03148148148148148, -0.03148148148148148, -0.03148148148148148]"	"[-0.387037037037037, -0.387037037037037, -0.387037037037037, -0.387037037037037, -0.3888888888888889, -0.3888888888888889, -0.3888888888888889, -0.38981481481481484, -0.38981481481481484, -0.39166666666666666, -0.39166666666666666, -0.39166666666666666, -0.39166666666666666, -0.39166666666666666, -0.39444444444444443, -0.3972222222222222, -0.3972222222222222, -0.3990740740740741, -0.3990740740740741, -0.3990740740740741, -0.39537037037037037]"	"[1, 1, 1, 1, 1, 1, 1, 1, 1, 1, 1, 1, 1, 1, 1, 1, 1, 1, 1, 1, 0]"	"[0, 0, 0, 0, 0, 0, 0, 0, 0, 0, 0, 0, 0, 0, 0, 0, 0, 0, 0, 0, 0]"	"[0, 0, 0, 0, 0, 0, 0, 0, 0, 0, 0, 0, 0, 0, 0, 0, 0, 0, 0, 0, 1]"	"[0.3420563000254333, 0.5169539999915287, 0.8584939000429586, 1.0667587000061758, 1.2668247999972664, 1.4501565000391565, 1.625204100040719, 1.8085874000098556, 2.000153800006956, 2.1755030000349507, 2.3754828000091948, 2.7921797999879345, 3.0336427000002004, 3.216981300036423, 3.400547800003551, 3.6255431000026874, 3.800284400000237, 4.000299500010442, 4.183639900002163, 4.376158300030511, 4.709315499989316]"	21	"[0.3397926000179723, 0.5146433999761939, 0.8561651000054553, 1.064446999982465, 1.2645034000161104, 1.447832899983041, 1.622876500012353, 1.806261399993673, 1.997841399977915, 2.173193499969784, 2.373178999987431, 2.7898661000072025, 3.0313141999649815, 3.2146549000171944, 3.3984144999994896, 3.62321539997356, 3.797971799969673, 3.998033599986229, 4.181307899998501, 4.373861900006887, 4.706949700019322]"	"[0.4726443999679759, 0.7814745999639854, 1.006091599992942, 1.1728249000152573, 1.34777579997899, 1.5561673999764025, 1.731176899978891, 1.9227520999847911, 2.114379499980714, 2.3395356999826618, 2.756242699979339, 2.931146399991121, 3.122948699980043, 3.3478405000059865, 3.5063831000006758, 3.7231924000079744, 3.9566352000110783, 4.106693400011864, 4.290090099966619, 4.490350799984299, 4.70695490000071]"	121.409164600016	121.413864200003	122.905594900018	122.897848099994	NA	NA	NA	NA	NA	NA	NA	33	"02"	"2024-02-27_09h18.13.575"	"BART_exp"	"2023.2.3"	122.101463812605	"2024-02-27 09h18.25.275570 +0100"	NA
"balloon.png"	88	0	14	14	20	122.905594900018	NA	NA	NA	NA	NA	NA	NA	NA	NA	NA	NA	NA	122.898063300003	122.905594900018	122.905594900018	122.905594900018	122.905594900018	122.905594900018	0.00486099999397993	0.00486099999397993	0.00486099999397993	122.905594900018	125.666370299994	12	0.6	FALSE	"[-0.027777777777777776, -0.027777777777777776, -0.027777777777777776, -0.027777777777777776, -0.027777777777777776, -0.027777777777777776, -0.027777777777777776, -0.027777777777777776, -0.027777777777777776, -0.027777777777777776, -0.027777777777777776, -0.027777777777777776, -0.025]"	"[-0.3907407407407407, -0.3907407407407407, -0.3907407407407407, -0.3907407407407407, -0.3907407407407407, -0.3907407407407407, -0.3907407407407407, -0.3907407407407407, -0.3907407407407407, -0.3907407407407407, -0.3907407407407407, -0.3907407407407407, -0.38981481481481484]"	"[1, 1, 1, 1, 1, 1, 1, 1, 1, 1, 1, 1, 0]"	"[0, 0, 0, 0, 0, 0, 0, 0, 0, 0, 0, 0, 0]"	"[0, 0, 0, 0, 0, 0, 0, 0, 0, 0, 0, 0, 1]"	"[0.28104550001444295, 0.6001122000161558, 0.8500256999977864, 1.05008060002001, 1.2416568000335246, 1.4334075000369921, 1.5919408000190742, 1.8001281000324525, 2.024971800041385, 2.2250476999906823, 2.408460100006778, 2.583754500024952, 2.7671381999971345]"	13	"[0.2787196999997832, 0.5977944000042044, 0.8477043000166304, 1.0477795000188053, 1.2393404999747872, 1.4310900999698788, 1.5896287999930792, 1.7978154000011273, 2.0226574999978766, 2.222728199965786, 2.406144200009294, 2.5814363000099547, 2.7647718000225723]"	"[0.38090320001356304, 0.764303200005088, 0.949749699968379, 1.1309679999831133, 1.3143359000096098, 1.5143582000164315, 1.7311018999898806, 1.972554099978879, 2.1643734999815933, 2.3311231000116095, 2.5059886000235565, 2.681176299985964, 2.764775899995584]"	125.667239200033	125.672509099997	127.164441300032	127.156482400023	NA	NA	NA	NA	NA	NA	NA	33	"02"	"2024-02-27_09h18.13.575"	"BART_exp"	"2023.2.3"	122.101463812605	"2024-02-27 09h18.25.275570 +0100"	NA
"balloon.png"	57	0	15	15	13	127.164441300032	NA	NA	NA	NA	NA	NA	NA	NA	NA	NA	NA	NA	127.156698999985	127.164441300032	127.164441300032	127.164441300032	127.164441300032	127.164441300032	0.00537149998126551	0.00537149998126551	0.00537149998126551	127.164441300032	134.158320199989	35	1.75	FALSE	"[-0.030555555555555555, -0.03148148148148148, -0.03148148148148148, -0.03148148148148148, -0.03148148148148148, -0.03148148148148148, -0.03148148148148148, -0.026851851851851852, -0.024074074074074074, -0.024074074074074074, -0.024074074074074074, -0.024074074074074074, -0.024074074074074074, -0.023148148148148147, -0.023148148148148147, -0.023148148148148147, -0.023148148148148147, -0.023148148148148147, -0.023148148148148147, -0.023148148148148147, -0.023148148148148147, -0.023148148148148147, -0.023148148148148147, -0.023148148148148147, -0.023148148148148147, -0.023148148148148147, -0.022222222222222223, -0.023148148148148147, -0.03148148148148148, -0.03518518518518519, -0.03425925925925926, -0.03333333333333333, -0.028703703703703703, -0.032407407407407406, -0.026851851851851852, -0.012962962962962963]"	"[-0.38981481481481484, -0.39166666666666666, -0.3925925925925926, -0.3925925925925926, -0.3925925925925926, -0.3925925925925926, -0.3925925925925926, -0.3925925925925926, -0.3925925925925926, -0.3925925925925926, -0.3925925925925926, -0.3925925925925926, -0.3925925925925926, -0.3962962962962963, -0.3962962962962963, -0.3962962962962963, -0.3962962962962963, -0.3962962962962963, -0.3962962962962963, -0.3962962962962963, -0.3962962962962963, -0.3962962962962963, -0.3962962962962963, -0.3962962962962963, -0.3962962962962963, -0.3972222222222222, -0.3972222222222222, -0.4009259259259259, -0.40370370370370373, -0.4074074074074074, -0.4074074074074074, -0.4074074074074074, -0.40555555555555556, -0.4166666666666667, -0.4111111111111111, -0.39351851851851855]"	"[1, 1, 1, 1, 1, 1, 1, 1, 1, 1, 1, 1, 1, 1, 1, 1, 1, 1, 1, 1, 1, 1, 1, 1, 1, 1, 1, 1, 1, 1, 1, 1, 1, 1, 1, 0]"	"[0, 0, 0, 0, 0, 0, 0, 0, 0, 0, 0, 0, 0, 0, 0, 0, 0, 0, 0, 0, 0, 0, 0, 0, 0, 0, 0, 0, 0, 0, 0, 0, 0, 0, 0, 0]"	"[0, 0, 0, 0, 0, 0, 0, 0, 0, 0, 0, 0, 0, 0, 0, 0, 0, 0, 0, 0, 0, 0, 0, 0, 0, 0, 0, 0, 0, 0, 0, 0, 0, 0, 0, 1]"	"[0.2502815999905579, 0.4251149999909103, 0.6167738999938592, 0.7833628000225872, 0.9666908999788575, 1.133380000013858, 1.3086808000225574, 1.5086982999928296, 1.7003178999875672, 1.8921231999993324, 2.0755492000025697, 2.250307900016196, 2.4167470000102185, 2.6425958999898285, 2.8592614000081085, 3.0670032000052743, 3.2590778000303544, 3.4255911000072956, 3.616964899993036, 3.800196100026369, 3.966906999994535, 4.175244199985173, 4.358552100020461, 4.53358719998505, 4.741924799978733, 4.975235600024462, 5.1835401999996975, 5.367049699998461, 5.558860099990852, 5.7503874999820255, 5.9586398000246845, 6.141958300024271, 6.317052500031423, 6.517098899988923, 6.717338400019798, 7.000517799984664]"	36	"[0.24796469998545945, 0.42277890001423657, 0.6144489999860525, 0.781020800000988, 0.9643527999869548, 1.1310374999884516, 1.3063570000231266, 1.5063733999850228, 1.6980065000243485, 1.8898175000213087, 2.073229000030551, 2.24798580002971, 2.4067050000303425, 2.6402911000186577, 2.856972899986431, 3.0646698999917135, 3.256788900005631, 3.423263099975884, 3.614629400020931, 3.7978571000276133, 3.9645666999858804, 4.172975199995562, 4.3562619999866, 4.531247999984771, 4.739621000015177, 4.972927900031209, 5.181202100007795, 5.364711100002751, 5.556557999982033, 5.748046000022441, 5.956295499985572, 6.1396157999988645, 6.31472110003233, 6.514761600003112, 6.715016300033312, 6.998115900030825]"	"[0.3475602000253275, 0.5142839000327513, 0.6893737000063993, 0.8642724999808706, 1.0560315999900922, 1.2310237999772653, 1.406068200012669, 1.597661399981007, 1.8061352000222541, 1.997871799976565, 2.1809687999775633, 2.364321800007019, 2.5732239999924786, 2.7733995000016876, 2.973261100007221, 3.1564883000100963, 3.339852900011465, 3.522984599985648, 3.7144078999990597, 3.9145706000272185, 4.097899099986535, 4.272896100010257, 4.464583399996627, 4.639455299999099, 4.889500499994028, 5.074194799992256, 5.281276000023354, 5.464624100015499, 5.689476300030947, 5.84793659998104, 6.048002500028815, 6.2395374000188895, 6.456194400030654, 6.631425600033253, 6.856235300016124, 6.998120400006883]"	134.159626100038	134.164761600026	135.657176900015	135.648716100026	NA	NA	NA	NA	NA	NA	NA	33	"02"	"2024-02-27_09h18.13.575"	"BART_exp"	"2023.2.3"	122.101463812605	"2024-02-27 09h18.25.275570 +0100"	NA
"balloon.png"	66	0	16	16	15	135.657176900015	NA	NA	NA	NA	NA	NA	NA	NA	NA	NA	NA	NA	135.648931700038	135.657176900015	135.657176900015	135.657176900015	135.657176900015	135.657176900015	0.00521630002185702	0.00521630002185702	0.00521630002185702	135.657176900015	143.009067600011	31	1.55	FALSE	"[0.0787037037037037, 0.0787037037037037, 0.0787037037037037, 0.0787037037037037, 0.0787037037037037, 0.07777777777777778, 0.07777777777777778, 0.07777777777777778, 0.07314814814814814, 0.07314814814814814, 0.07314814814814814, 0.07314814814814814, 0.07314814814814814, 0.07314814814814814, 0.07314814814814814, 0.07222222222222222, 0.07222222222222222, 0.07222222222222222, 0.07222222222222222, 0.07222222222222222, 0.07222222222222222, 0.07222222222222222, 0.07222222222222222, 0.07222222222222222, 0.07222222222222222, 0.07222222222222222, 0.07222222222222222, 0.07222222222222222, 0.07222222222222222, 0.07037037037037037, 0.06574074074074074, 0.06574074074074074]"	"[-0.3731481481481482, -0.3731481481481482, -0.3731481481481482, -0.3731481481481482, -0.3731481481481482, -0.36666666666666664, -0.36666666666666664, -0.36666666666666664, -0.37777777777777777, -0.38333333333333336, -0.38333333333333336, -0.38333333333333336, -0.38333333333333336, -0.38333333333333336, -0.38333333333333336, -0.3861111111111111, -0.3861111111111111, -0.3861111111111111, -0.3861111111111111, -0.3861111111111111, -0.3861111111111111, -0.3861111111111111, -0.3861111111111111, -0.3861111111111111, -0.3861111111111111, -0.3861111111111111, -0.3861111111111111, -0.3861111111111111, -0.3861111111111111, -0.3861111111111111, -0.3925925925925926, -0.3925925925925926]"	"[1, 1, 1, 1, 1, 1, 1, 1, 1, 1, 1, 1, 1, 1, 1, 1, 1, 1, 1, 1, 1, 1, 1, 1, 1, 1, 1, 1, 1, 1, 1, 0]"	"[0, 0, 0, 0, 0, 0, 0, 0, 0, 0, 0, 0, 0, 0, 0, 0, 0, 0, 0, 0, 0, 0, 0, 0, 0, 0, 0, 0, 0, 0, 0, 0]"	"[0, 0, 0, 0, 0, 0, 0, 0, 0, 0, 0, 0, 0, 0, 0, 0, 0, 0, 0, 0, 0, 0, 0, 0, 0, 0, 0, 0, 0, 0, 0, 1]"	"[0.6001143999747001, 1.1835276000201702, 1.3542627000133507, 1.529516100010369, 1.7210377000155859, 1.941925999999512, 2.116838000016287, 2.325171099975705, 2.5590357999899425, 2.7504607000155374, 2.9590308999759145, 3.1925081000081263, 3.3836605999968015, 3.5837438000016846, 3.7757101000170223, 3.9836342000053264, 4.1837836999911815, 4.367029800021555, 4.542252500017639, 4.7172338999807835, 4.908755599986762, 5.108878500002902, 5.342059699993115, 5.558803699968848, 5.908671299985144, 6.158740399987437, 6.325388600002043, 6.517187100020237, 6.743892400001641, 6.925427899986971, 7.125534599996172, 7.358879900013562]"	32	"[0.5976310999831185, 1.181046099984087, 1.351792800007388, 1.5270696000079624, 1.7185485000372864, 1.939447199983988, 2.1143534000148065, 2.3226847000187263, 2.5566038000397384, 2.74801879998995, 2.9565590000129305, 3.1900479000178166, 3.381169800006319, 3.581269300018903, 3.773282000038307, 3.9811397999874316, 4.181312900036573, 4.3645494999946095, 4.539993999991566, 4.714784600015264, 4.9064000000362284, 5.106511500023771, 5.339624700020067, 5.556356200017035, 5.906179099984001, 6.1562596000148915, 6.322910199989565, 6.514704300032463, 6.741660400002729, 6.92295069998363, 7.123054000025149, 7.356329600035679]"	"[0.7058287000400014, 1.2558352000196464, 1.4101750000263564, 1.5935018000309356, 1.7601883999886923, 1.9891791000263765, 2.1893187999958172, 2.4059606000082567, 2.647430900018662, 2.8307599000399932, 3.039665699994657, 3.2730886000208557, 3.464151500025764, 3.6808741000131704, 3.897613500012085, 4.097765500016976, 4.289917099988088, 4.472753999987617, 4.656010600039735, 4.839324200002011, 5.022618299990427, 5.239260900008958, 5.472566900018137, 5.664345099998172, 6.0892673000344075, 6.264403900015168, 6.44781540002441, 6.631137199990917, 6.831141800037585, 7.022814500029199, 7.189354400034063, 7.356333900010213]"	143.010636600025	143.015333999996	144.507206899987	144.499323400029	NA	NA	NA	NA	NA	NA	NA	33	"02"	"2024-02-27_09h18.13.575"	"BART_exp"	"2023.2.3"	122.101463812605	"2024-02-27 09h18.25.275570 +0100"	NA
"balloon.png"	53	0	17	17	12	144.507206899987	NA	NA	NA	NA	NA	NA	NA	NA	NA	NA	NA	NA	144.499536600022	144.507206899987	144.507206899987	144.507206899987	144.507206899987	144.507206899987	0.00485420000040903	0.00485420000040903	0.00485420000040903	144.507206899987	153.234576700022	41	2.05	FALSE	"[0.06666666666666667, 0.06759259259259259, 0.06944444444444445, 0.06944444444444445, 0.06944444444444445, 0.06944444444444445, 0.06944444444444445, 0.06944444444444445, 0.06944444444444445, 0.06944444444444445, 0.06944444444444445, 0.06944444444444445, 0.06944444444444445, 0.06944444444444445, 0.06944444444444445, 0.06944444444444445, 0.06944444444444445, 0.06944444444444445, 0.06944444444444445, 0.06944444444444445, 0.06944444444444445, 0.06944444444444445, 0.06944444444444445, 0.06944444444444445, 0.06944444444444445, 0.06944444444444445, 0.06944444444444445, 0.06944444444444445, 0.06944444444444445, 0.06944444444444445, 0.06944444444444445, 0.07037037037037037, 0.07037037037037037, 0.07037037037037037, 0.07037037037037037, 0.07037037037037037, 0.07037037037037037, 0.07037037037037037, 0.0712962962962963, 0.07222222222222222, 0.07222222222222222, 0.07222222222222222]"	"[-0.38981481481481484, -0.38981481481481484, -0.38981481481481484, -0.38981481481481484, -0.38981481481481484, -0.38981481481481484, -0.38981481481481484, -0.38981481481481484, -0.38981481481481484, -0.38981481481481484, -0.38981481481481484, -0.38981481481481484, -0.38981481481481484, -0.38981481481481484, -0.38981481481481484, -0.38981481481481484, -0.38981481481481484, -0.38981481481481484, -0.38981481481481484, -0.38981481481481484, -0.38981481481481484, -0.38981481481481484, -0.38981481481481484, -0.38981481481481484, -0.38981481481481484, -0.38981481481481484, -0.38981481481481484, -0.38981481481481484, -0.38981481481481484, -0.38981481481481484, -0.3888888888888889, -0.3888888888888889, -0.3888888888888889, -0.3888888888888889, -0.3888888888888889, -0.3888888888888889, -0.3888888888888889, -0.3888888888888889, -0.38796296296296295, -0.38796296296296295, -0.38796296296296295, -0.38796296296296295]"	"[1, 1, 1, 1, 1, 1, 1, 1, 1, 1, 1, 1, 1, 1, 1, 1, 1, 1, 1, 1, 1, 1, 1, 1, 1, 1, 1, 1, 1, 1, 1, 1, 1, 1, 1, 1, 1, 1, 1, 1, 1, 0]"	"[0, 0, 0, 0, 0, 0, 0, 0, 0, 0, 0, 0, 0, 0, 0, 0, 0, 0, 0, 0, 0, 0, 0, 0, 0, 0, 0, 0, 0, 0, 0, 0, 0, 0, 0, 0, 0, 0, 0, 0, 0, 0]"	"[0, 0, 0, 0, 0, 0, 0, 0, 0, 0, 0, 0, 0, 0, 0, 0, 0, 0, 0, 0, 0, 0, 0, 0, 0, 0, 0, 0, 0, 0, 0, 0, 0, 0, 0, 0, 0, 0, 0, 0, 0, 1]"	"[0.35994879994541407, 0.5085920999990776, 0.700395199994091, 0.8503815999720246, 1.1419171000015922, 1.333833799988497, 1.5504729999811389, 1.741813899949193, 1.9338938999571837, 2.150507699989248, 2.3670392999774776, 2.5420181999797933, 2.7504970000009052, 2.9840093999519013, 3.1752491999650374, 3.3677610000013374, 3.5841740999603644, 3.79194369999459, 3.983972499961965, 4.183839099947363, 4.42528719996335, 4.633853299950715, 4.8419854999519885, 5.067403799970634, 5.317203099955805, 5.683851099980529, 5.87653169996338, 6.0505929999635555, 6.244820299965795, 6.417108099965844, 6.6004139999859035, 6.831907699990552, 6.99225019995356, 7.1588345999480225, 7.367176699975971, 7.575615999987349, 7.767285599955358, 7.950531999988016, 8.142509099969175, 8.350576999946497, 8.534091699984856, 8.733992399997078]"	42	"[0.35759889998007566, 0.5062566999695264, 0.6980703999870457, 0.8480661999783479, 1.1395745999761857, 1.3315057999570854, 1.5481401999713853, 1.739467599953059, 1.9315780999604613, 2.1481812999700196, 2.3646951999980956, 2.539676199958194, 2.7481523999595083, 2.981662999955006, 3.1729085999540985, 3.3654578999849036, 3.581879100005608, 3.789606400008779, 3.9816529999952763, 4.18153139995411, 4.4229427999816835, 4.63156169996364, 4.839641299971845, 5.0652439999976195, 5.314912599977106, 5.681545400002506, 5.874358900007792, 6.048253199958708, 6.242471500008833, 6.414760999963619, 6.59806429996388, 6.829558299970813, 6.990147700009402, 7.156491799978539, 7.364843599963933, 7.573274799971841, 7.764938400010578, 7.948188499954995, 8.140172099985648, 8.348233599972446, 8.53174109995598, 8.731582699983846]"	"[0.40598009998211637, 0.6059253999846987, 0.7811398999765515, 1.0893137999810278, 1.2726869999896735, 1.456026199972257, 1.6644807999837212, 1.872691600001417, 2.0560673999716528, 2.247892699961085, 2.464593499957118, 2.67277569998987, 2.856089000008069, 3.072850600001402, 3.248302699998021, 3.456102699972689, 3.656140199978836, 3.883279700006824, 4.098103099968284, 4.2895114999846555, 4.531677599996328, 4.764630299992859, 4.947956099989824, 5.156300399976317, 5.356247599993367, 5.739697499957401, 5.923007300007157, 6.1063188999542035, 6.277144699997734, 6.4563530999585055, 6.631307800009381, 6.858493199979421, 7.023062799999025, 7.214710899977945, 7.431361499999184, 7.623211300000548, 7.823197599966079, 8.023201100004371, 8.223296599986497, 8.406597099965438, 8.581490499956999, 8.73158689995762]"	153.236044500023	153.241038799984	154.734850400011	154.725064400001	NA	NA	NA	NA	NA	NA	NA	33	"02"	"2024-02-27_09h18.13.575"	"BART_exp"	"2023.2.3"	122.101463812605	"2024-02-27 09h18.25.275570 +0100"	NA
"balloon.png"	49	0	18	18	11	154.734850400011	NA	NA	NA	NA	NA	NA	NA	NA	NA	NA	NA	NA	154.72527689999	154.734850400011	154.734850400011	154.734850400011	154.734850400011	154.734850400011	0.00514759996440261	0.00514759996440261	0.00514759996440261	154.734850400011	162.202147300006	37	1.85	FALSE	"[0.07222222222222222, 0.07222222222222222, 0.07407407407407407, 0.07314814814814814, 0.07314814814814814, 0.07314814814814814, 0.07314814814814814, 0.07314814814814814, 0.07314814814814814, 0.07407407407407407, 0.07407407407407407, 0.07407407407407407, 0.07407407407407407, 0.07407407407407407, 0.07407407407407407, 0.07407407407407407, 0.07407407407407407, 0.07407407407407407, 0.07407407407407407, 0.07407407407407407, 0.07407407407407407, 0.07407407407407407, 0.07407407407407407, 0.07407407407407407, 0.07407407407407407, 0.07407407407407407, 0.07407407407407407, 0.07407407407407407, 0.07407407407407407, 0.07407407407407407, 0.07407407407407407, 0.07407407407407407, 0.07407407407407407, 0.07407407407407407, 0.07407407407407407, 0.07407407407407407, 0.07407407407407407, 0.07407407407407407]"	"[-0.38796296296296295, -0.38796296296296295, -0.38796296296296295, -0.38796296296296295, -0.38796296296296295, -0.38796296296296295, -0.38796296296296295, -0.38796296296296295, -0.38796296296296295, -0.38796296296296295, -0.38796296296296295, -0.38796296296296295, -0.38796296296296295, -0.38796296296296295, -0.38796296296296295, -0.38796296296296295, -0.38796296296296295, -0.38796296296296295, -0.38796296296296295, -0.38796296296296295, -0.38796296296296295, -0.38796296296296295, -0.38796296296296295, -0.38796296296296295, -0.38796296296296295, -0.38796296296296295, -0.38796296296296295, -0.38796296296296295, -0.38796296296296295, -0.38796296296296295, -0.38796296296296295, -0.38796296296296295, -0.38796296296296295, -0.38796296296296295, -0.38796296296296295, -0.38796296296296295, -0.38796296296296295, -0.38796296296296295]"	"[1, 1, 1, 1, 1, 1, 1, 1, 1, 1, 1, 1, 1, 1, 1, 1, 1, 1, 1, 1, 1, 1, 1, 1, 1, 1, 1, 1, 1, 1, 1, 1, 1, 1, 1, 1, 1, 0]"	"[0, 0, 0, 0, 0, 0, 0, 0, 0, 0, 0, 0, 0, 0, 0, 0, 0, 0, 0, 0, 0, 0, 0, 0, 0, 0, 0, 0, 0, 0, 0, 0, 0, 0, 0, 0, 0, 0]"	"[0, 0, 0, 0, 0, 0, 0, 0, 0, 0, 0, 0, 0, 0, 0, 0, 0, 0, 0, 0, 0, 0, 0, 0, 0, 0, 0, 0, 0, 0, 0, 0, 0, 0, 0, 0, 0, 1]"	"[0.049962099990807474, 0.23322960000950843, 0.4245742000057362, 0.6167247000266798, 0.8079196999897249, 0.9722470000269823, 1.1746688000275753, 1.3913695000228472, 1.558050399995409, 2.07491610001307, 2.283540299977176, 2.451281299989205, 2.633691099996213, 2.817420699982904, 3.0007235999801196, 3.18553710001288, 3.383817200025078, 3.5914557999931276, 3.81663670000853, 4.0167281000176445, 4.199829199991655, 4.399848899978679, 4.591561299981549, 4.825150899996515, 4.999826900020707, 5.200017899973318, 5.408306900004391, 5.591780500020832, 5.7831868000212125, 5.983232099970337, 6.166599899996072, 6.34996050002519, 6.53526159998728, 6.725108399987221, 6.916669600002933, 7.1166747999959625, 7.291958999994677, 7.475332100002561]"	38	"[0.04630159999942407, 0.22958749998360872, 0.4130882000317797, 0.6130849000182934, 0.8042305000126362, 0.9685491999844089, 1.1709775000344962, 1.3876813999959268, 1.5543674000073224, 2.071236299991142, 2.279935900005512, 2.447686200030148, 2.6300589999882504, 2.8137978999875486, 2.9971039000083692, 3.1818674000096507, 3.3802840000134893, 3.5877648000023328, 3.813007600023411, 4.013122400036082, 4.196182999992743, 4.396184900018852, 4.587869200040586, 4.821478100027889, 4.996154499996919, 5.196351799997501, 5.404616400017403, 5.5881007999996655, 5.779496300034225, 5.97954229998868, 6.162911900028121, 6.346265500003938, 6.5316147999837995, 6.72142320004059, 6.912986500014085, 7.112990199995693, 7.288283500005491, 7.471589200024027]"	"[0.1374544000136666, 0.3144890000112355, 0.49595230002887547, 0.687489700037986, 0.8959587999852374, 1.0708408000064082, 1.2627225000178441, 1.4627680000266992, 1.6462355999974534, 2.1375304000102915, 2.3191222000168636, 2.504241099988576, 2.6876000000047497, 2.8709441000246443, 3.054257299983874, 3.246177399996668, 3.4461124000372365, 3.6543762999936007, 3.862766400037799, 4.071004600031301, 4.279362400004175, 4.487759899988305, 4.671053300029598, 4.879380400001537, 5.087778399989475, 5.271109300025273, 5.4627011000411585, 5.646122700010892, 5.829415699990932, 6.029471100016963, 6.221219300001394, 6.412825900013559, 6.612770100007765, 6.8128565000370145, 6.9880298000061885, 7.171472000016365, 7.354680499993265, 7.471593299997039]"	162.203520399984	162.208421799995	163.700595900009	163.692299499991	NA	NA	NA	NA	NA	NA	NA	33	"02"	"2024-02-27_09h18.13.575"	"BART_exp"	"2023.2.3"	122.101463812605	"2024-02-27 09h18.25.275570 +0100"	NA
"balloon.png"	84	0	19	19	19	163.700595900009	NA	NA	NA	NA	NA	NA	NA	NA	NA	NA	NA	NA	163.692527599982	163.700595900009	163.700595900009	163.700595900009	163.700595900009	163.700595900009	0.00498179998248815	0.00498179998248815	0.00498179998248815	163.700595900009	169.744407300022	27	1.35	FALSE	"[0.062037037037037036, 0.06018518518518518, 0.06018518518518518, 0.06018518518518518, 0.06018518518518518, 0.06018518518518518, 0.05925925925925926, 0.05925925925925926, 0.05925925925925926, 0.05925925925925926, 0.05925925925925926, 0.058333333333333334, 0.058333333333333334, 0.05648148148148148, 0.05648148148148148, 0.05648148148148148, 0.05648148148148148, 0.05648148148148148, 0.05555555555555555, 0.05555555555555555, 0.05185185185185185, 0.05092592592592592, 0.05092592592592592, 0.05, 0.05, 0.049074074074074076, 0.049074074074074076, 0.04814814814814815]"	"[-0.3675925925925926, -0.37407407407407406, -0.37592592592592594, -0.37592592592592594, -0.37592592592592594, -0.375, -0.375, -0.37407407407407406, -0.37407407407407406, -0.37407407407407406, -0.37407407407407406, -0.37407407407407406, -0.37407407407407406, -0.37407407407407406, -0.37407407407407406, -0.375, -0.375, -0.375, -0.37592592592592594, -0.37592592592592594, -0.37777777777777777, -0.37777777777777777, -0.37777777777777777, -0.37777777777777777, -0.37777777777777777, -0.3787037037037037, -0.3787037037037037, -0.37962962962962965]"	"[1, 1, 1, 1, 1, 1, 1, 1, 1, 1, 1, 1, 1, 1, 1, 1, 1, 1, 1, 1, 1, 1, 1, 1, 1, 1, 1, 0]"	"[0, 0, 0, 0, 0, 0, 0, 0, 0, 0, 0, 0, 0, 0, 0, 0, 0, 0, 0, 0, 0, 0, 0, 0, 0, 0, 0, 0]"	"[0, 0, 0, 0, 0, 0, 0, 0, 0, 0, 0, 0, 0, 0, 0, 0, 0, 0, 0, 0, 0, 0, 0, 0, 0, 0, 0, 1]"	"[0.27740070002619177, 0.4589185999939218, 1.125249500037171, 1.3169717999990098, 1.5089011000236496, 1.7090485999942757, 1.8924664999940433, 2.092599200026598, 2.267017600010149, 2.459432800009381, 2.6427649999968708, 2.8270831999834627, 3.0002131999935955, 3.2168827999848872, 3.4087979000178166, 3.583627699990757, 3.741992500028573, 3.9419574000057764, 4.125307200010866, 4.350322799989954, 4.567052400030661, 4.741932400036603, 4.917053700017277, 5.111658699985128, 5.292176000017207, 5.475581200036686, 5.842165799986105, 6.050717100035399]"	28	"[0.2750246999785304, 0.4565790999913588, 1.1228486999752931, 1.3145765999797732, 1.5065151000162587, 1.7066588000161573, 1.8900838000117801, 2.090224399988074, 2.264614599989727, 2.4570843999972567, 2.6404429000103846, 2.8248751999926753, 2.997809100023005, 3.2144902999862097, 3.4065049000200815, 3.58122990000993, 3.739639099978376, 3.9395959000103176, 4.122957399988081, 4.347933900018688, 4.564652299974114, 4.739526999997906, 4.914652900013607, 5.109322600008454, 5.28978350001853, 5.473185100010596, 5.839773099985905, 6.048262599972077]"	"[0.38088660000357777, 1.0476393999997526, 1.2395215000142343, 1.4309749999665655, 1.623044400010258, 1.83100549998926, 2.0231549000018276, 2.1976893999963067, 2.39765030000126, 2.5731068999739364, 2.7563893999904394, 2.9562283999985084, 3.156338799977675, 3.3395349999773316, 3.514409600000363, 3.6892583000008017, 3.8729858999722637, 4.089438199996948, 4.2394879999919794, 4.489427299995441, 4.664536600001156, 4.847877099993639, 5.031206600018777, 5.214581999985967, 5.44796999997925, 5.747943900001701, 5.972872100013774, 6.048266800004058]"	169.745553500019	169.75228070002	171.252402200014	171.242823700013	NA	NA	NA	NA	NA	NA	NA	33	"02"	"2024-02-27_09h18.13.575"	"BART_exp"	"2023.2.3"	122.101463812605	"2024-02-27 09h18.25.275570 +0100"	NA
"balloon.png"	36	0	20	20	8	171.252402200014	NA	NA	NA	NA	NA	NA	NA	NA	NA	NA	NA	NA	171.243044200004	171.252402200014	171.252402200014	171.252402200014	171.252402200014	171.252402200014	-0.00095379998674616	-0.00095379998674616	-0.00095379998674616	171.252402200014	179.086815899995	37	1.8	TRUE	"[0.044444444444444446, 0.041666666666666664, 0.041666666666666664, 0.041666666666666664, 0.041666666666666664, 0.041666666666666664, 0.041666666666666664, 0.041666666666666664, 0.041666666666666664, 0.041666666666666664, 0.041666666666666664, 0.041666666666666664, 0.041666666666666664, 0.041666666666666664, 0.041666666666666664, 0.041666666666666664, 0.041666666666666664, 0.041666666666666664, 0.041666666666666664, 0.04259259259259259, 0.04259259259259259, 0.04259259259259259, 0.04259259259259259, 0.04259259259259259, 0.04259259259259259, 0.04259259259259259, 0.044444444444444446, 0.044444444444444446, 0.044444444444444446, 0.04537037037037037, 0.04537037037037037, 0.04537037037037037, 0.046296296296296294, 0.046296296296296294, 0.04722222222222222, 0.04814814814814815, 0.04814814814814815]"	"[-0.3814814814814815, -0.3814814814814815, -0.3814814814814815, -0.3814814814814815, -0.3814814814814815, -0.3814814814814815, -0.3814814814814815, -0.3814814814814815, -0.3814814814814815, -0.3814814814814815, -0.3814814814814815, -0.3814814814814815, -0.3814814814814815, -0.3814814814814815, -0.3814814814814815, -0.3814814814814815, -0.3814814814814815, -0.3814814814814815, -0.3814814814814815, -0.3814814814814815, -0.3814814814814815, -0.3814814814814815, -0.3814814814814815, -0.3814814814814815, -0.3814814814814815, -0.3814814814814815, -0.3814814814814815, -0.3814814814814815, -0.3814814814814815, -0.3814814814814815, -0.3814814814814815, -0.3814814814814815, -0.38055555555555554, -0.38055555555555554, -0.38055555555555554, -0.37962962962962965, -0.37962962962962965]"	"[1, 1, 1, 1, 1, 1, 1, 1, 1, 1, 1, 1, 1, 1, 1, 1, 1, 1, 1, 1, 1, 1, 1, 1, 1, 1, 1, 1, 1, 1, 1, 1, 1, 1, 1, 1, 1]"	"[0, 0, 0, 0, 0, 0, 0, 0, 0, 0, 0, 0, 0, 0, 0, 0, 0, 0, 0, 0, 0, 0, 0, 0, 0, 0, 0, 0, 0, 0, 0, 0, 0, 0, 0, 0, 0]"	"[0, 0, 0, 0, 0, 0, 0, 0, 0, 0, 0, 0, 0, 0, 0, 0, 0, 0, 0, 0, 0, 0, 0, 0, 0, 0, 0, 0, 0, 0, 0, 0, 0, 0, 0, 0, 0]"	"[0.27521920000435784, 0.46676250000018626, 0.6583615000126883, 0.841715499991551, 1.058444199967198, 1.2501801999751478, 1.4505285999621265, 1.6418394999927841, 1.843493199965451, 2.058460699976422, 2.2669214999768883, 2.4418786999885924, 2.6418432999635115, 2.8505895999842323, 3.02523749996908, 3.2085661999881268, 3.3918641000054777, 3.8679022999713197, 4.058623799995985, 4.250795200001448, 4.451144799997564, 4.692188999964856, 4.867906500003301, 5.058737499988638, 5.250389799999539, 5.4337512999773026, 5.642070600006264, 5.825448899995536, 6.0169857000000775, 6.208793499972671, 6.4503517000121064, 6.642182999989018, 6.825511800008826, 7.008856199972797, 7.208849499991629, 7.408856099995319, 7.767155300010927]"	37	"[0.2710441999952309, 0.46258140000281855, 0.6541796999517828, 0.8375273999990895, 1.0460584999527782, 1.2460024999454618, 1.4463738999911584, 1.6376564999809489, 1.839437899994664, 2.0542751000029966, 2.262746899970807, 2.437699399946723, 2.6376607999554835, 2.8464249999960884, 3.0210623999591917, 3.2043877999531105, 3.3876761999563314, 3.863775399979204, 4.05444689997239, 4.246633899980225, 4.447022799984552, 4.688014999963343, 4.863849499961361, 5.054551099950913, 5.246250599971972, 5.4296066999668255, 5.637891799968202, 5.821271499968134, 6.01279909996083, 6.204611599969212, 6.446173499978613, 6.638008499983698, 6.821327799989376, 7.00467860000208, 7.204666499979794, 7.404678299964871, 7.762975199962966]"	"[0.3873718999675475, 0.5540803999756463, 0.7625070999492891, 0.9625915999640711, 1.1708117999951355, 1.3708061999641359, 1.5792726999497972, 1.770870299951639, 1.962651299952995, 2.187687499972526, 2.3876137999468483, 2.570865599962417, 2.746085499995388, 2.9462189999758266, 3.1297933000023477, 3.304257299983874, 3.7465135999955237, 3.9631670999806374, 4.137626799987629, 4.312997999950312, 4.520979399967473, 4.737727999978233, 4.921042499947362, 5.121059399971273, 5.312771499971859, 5.512754099967424, 5.68161049997434, 5.871141499956138, 6.079372499953024, 6.279469799948856, 6.496182499977294, 6.687872999988031, 6.87946769996779, 7.081058299983852, 7.287934399966616, 7.462892599985935, 7.829538399993908]"	179.088274599984	179.092844500032	180.585297900019	180.576886900002	NA	NA	NA	NA	NA	NA	NA	33	"02"	"2024-02-27_09h18.13.575"	"BART_exp"	"2023.2.3"	122.101463812605	"2024-02-27 09h18.25.275570 +0100"	NA
"balloon.png"	127	0	21	21	29	180.585297900019	NA	NA	NA	NA	NA	NA	NA	NA	NA	NA	NA	NA	180.577106699988	180.585297900019	180.585297900019	180.585297900019	180.585297900019	180.585297900019	0.00471639999886974	NA	NA	180.585297900019	181.261443900003	4	0.2	FALSE	"[0.04814814814814815, 0.04814814814814815, 0.04814814814814815, 0.049074074074074076]"	"[-0.37962962962962965, -0.37962962962962965, -0.37962962962962965, -0.37962962962962965]"	"[1, 1, 1, 0]"	"[0, 0, 0, 0]"	"[0, 0, 0, 1]"	"[0.13350849994458258, 0.3419175999588333, 0.5165756999631412, 0.6832908999640495]"	4	"[0.13090380001813173, 0.33932269999058917, 0.5139513000031002, 0.6806039999937639]"	"[0.24723550002090633, 0.42227490001823753, 0.5972296000109054, 0.6806081000249833]"	181.262093500001	181.268015799986	182.759887600027	182.752007300034	NA	NA	NA	NA	NA	NA	NA	33	"02"	"2024-02-27_09h18.13.575"	"BART_exp"	"2023.2.3"	122.101463812605	"2024-02-27 09h18.25.275570 +0100"	NA
"balloon.png"	40	0	22	22	9	182.759887600027	NA	NA	NA	NA	NA	NA	NA	NA	NA	NA	NA	NA	182.752217600006	182.759887600027	182.759887600027	182.759887600027	182.759887600027	182.759887600027	0.00611249997746199	0.00611249997746199	0.00611249997746199	182.759887600027	183.52871079999	4	0.2	FALSE	"[0.04814814814814815, 0.04814814814814815, 0.04814814814814815, 0.04814814814814815]"	"[-0.37962962962962965, -0.37962962962962965, -0.38055555555555554, -0.3814814814814815]"	"[1, 1, 1, 0]"	"[0, 0, 0, 0]"	"[0, 0, 0, 1]"	"[0.20040510001126677, 0.3838553999667056, 0.5583488999982364, 0.7754238999914378]"	4	"[0.023089000023901463, 0.1980938000488095, 0.3815318000270054, 0.7730089999968186]"	"[0.12252990005072206, 0.30582930002128705, 0.640882000036072, 0.773013100028038]"	183.529354800005	183.538662100036	185.042912500037	185.027071700024	NA	NA	NA	NA	NA	NA	NA	33	"02"	"2024-02-27_09h18.13.575"	"BART_exp"	"2023.2.3"	122.101463812605	"2024-02-27 09h18.25.275570 +0100"	NA
"balloon.png"	79	0	23	23	18	185.042912500037	NA	NA	NA	NA	NA	NA	NA	NA	NA	NA	NA	NA	185.027303499985	185.042912500037	185.042912500037	185.042912500037	185.042912500037	185.042912500037	-0.00035089999437332	-0.00035089999437332	-0.00035089999437332	185.042912500037	187.586887900019	14	0.7	FALSE	"[0.04814814814814815, 0.04814814814814815, 0.04814814814814815, 0.04814814814814815, 0.04814814814814815, 0.049074074074074076, 0.05092592592592592, 0.05092592592592592, 0.05092592592592592, 0.05092592592592592, 0.05092592592592592, 0.04814814814814815, 0.04814814814814815, 0.04722222222222222]"	"[-0.3814814814814815, -0.3814814814814815, -0.3814814814814815, -0.3814814814814815, -0.3814814814814815, -0.3814814814814815, -0.3814814814814815, -0.3814814814814815, -0.3814814814814815, -0.3814814814814815, -0.3814814814814815, -0.3824074074074074, -0.3824074074074074, -0.3824074074074074]"	"[1, 1, 1, 1, 1, 1, 1, 1, 1, 1, 1, 1, 1, 0]"	"[0, 0, 0, 0, 0, 0, 0, 0, 0, 0, 0, 0, 0, 0]"	"[0, 0, 0, 0, 0, 0, 0, 0, 0, 0, 0, 0, 0, 1]"	"[0.12548760004574433, 0.3253107000491582, 0.5170773000572808, 0.7002826000098139, 0.8920117000234313, 1.075229500012938, 1.2752441000193357, 1.475522600056138, 1.658432200027164, 1.8335799000342377, 2.0251414000522345, 2.2418274000519887, 2.4251444000401534, 2.558532600000035]"	14	"[0.11545460001798347, 0.31518750003306195, 0.5068520000204444, 0.690040500019677, 0.8818513000151142, 1.065023300005123, 1.2650129000539891, 1.4653633000561967, 1.6481884000240825, 1.82335260004038, 2.014902200025972, 2.231580500025302, 2.414899700030219, 2.5482261000433937]"	"[0.23972870002035052, 0.4397188000148162, 0.606472700019367, 0.7897728000534698, 0.9897585000144318, 1.1813442000420764, 1.3813998000114225, 1.5814176000421867, 1.764781700039748, 1.973254700016696, 2.173174200055655, 2.3481237000087276, 2.4981860000407323, 2.5482302000164054]"	187.587844400026	187.593407200009	189.08701660001	189.079036100011	NA	NA	NA	NA	NA	NA	NA	33	"02"	"2024-02-27_09h18.13.575"	"BART_exp"	"2023.2.3"	122.101463812605	"2024-02-27 09h18.25.275570 +0100"	NA
"balloon.png"	97	0	24	24	22	189.08701660001	NA	NA	NA	NA	NA	NA	NA	NA	NA	NA	NA	NA	189.07930350001	189.08701660001	189.08701660001	189.08701660001	189.08701660001	189.08701660001	-0.00075749994721263	-0.00075749994721263	-0.00075749994721263	189.08701660001	192.195917100005	15	0.75	FALSE	"[0.046296296296296294, 0.046296296296296294, 0.04537037037037037, 0.04537037037037037, 0.04537037037037037, 0.04537037037037037, 0.04537037037037037, 0.04537037037037037, 0.04537037037037037, 0.04537037037037037, 0.04537037037037037, 0.04537037037037037, 0.04537037037037037, 0.046296296296296294, 0.046296296296296294, 0.046296296296296294]"	"[-0.3824074074074074, -0.3824074074074074, -0.3824074074074074, -0.3824074074074074, -0.3824074074074074, -0.3824074074074074, -0.3824074074074074, -0.3824074074074074, -0.3824074074074074, -0.3824074074074074, -0.3824074074074074, -0.3824074074074074, -0.3824074074074074, -0.3824074074074074, -0.3824074074074074, -0.3824074074074074]"	"[1, 1, 1, 1, 1, 1, 1, 1, 1, 1, 1, 1, 1, 1, 1, 0]"	"[0, 0, 0, 0, 0, 0, 0, 0, 0, 0, 0, 0, 0, 0, 0, 0]"	"[0, 0, 0, 0, 0, 0, 0, 0, 0, 0, 0, 0, 0, 0, 0, 1]"	"[0.09827089996542782, 0.290106599975843, 0.4567791000008583, 0.65681279997807, 0.8401749999611638, 0.9985404999461025, 1.1900474999565631, 1.3984424999798648, 1.648648799979128, 1.8568762999493629, 2.2173279999988154, 2.406927799980622, 2.5900699999765493, 2.7734133999911137, 2.9653879999532364, 3.1154510999913327]"	16	"[0.0958534000092186, 0.2876803000108339, 0.45434900000691414, 0.6544042000314221, 0.837761299975682, 0.9961371999816038, 1.179382500005886, 1.3960247000213712, 1.646250499994494, 1.8544503999873996, 2.214906200009864, 2.4045044999802485, 2.587637700024061, 2.770982299989555, 2.9629621999920346, 3.1129640000290237]"	"[0.19582189997890964, 0.3791205000015907, 0.5624880000250414, 0.7291599999880418, 0.89604949997738, 1.1125357000273652, 1.295934199995827, 1.4875456999870948, 1.7708512999815866, 1.9126171999960206, 2.320831499993801, 2.5127033999888226, 2.687576199998148, 2.862783999997191, 3.0295535000041127, 3.112968200002797]"	192.196875600028	192.202056300011	193.695168100006	193.686011700018	NA	NA	NA	NA	NA	NA	NA	33	"02"	"2024-02-27_09h18.13.575"	"BART_exp"	"2023.2.3"	122.101463812605	"2024-02-27 09h18.25.275570 +0100"	NA
"balloon.png"	27	0	25	25	6	193.695168100006	NA	NA	NA	NA	NA	NA	NA	NA	NA	NA	NA	NA	193.686227000027	193.695168100006	193.695168100006	193.695168100006	193.695168100006	193.695168100006	0.00532230001408606	0.00532230001408606	0.00532230001408606	193.695168100006	196.512687199982	15	0.75	FALSE	"[0.046296296296296294, 0.046296296296296294, 0.046296296296296294, 0.046296296296296294, 0.046296296296296294, 0.04814814814814815, 0.04814814814814815, 0.04814814814814815, 0.04814814814814815, 0.04814814814814815, 0.04814814814814815, 0.04814814814814815, 0.049074074074074076, 0.049074074074074076, 0.049074074074074076]"	"[-0.3824074074074074, -0.3824074074074074, -0.3824074074074074, -0.3824074074074074, -0.3824074074074074, -0.3824074074074074, -0.3824074074074074, -0.3824074074074074, -0.3824074074074074, -0.3824074074074074, -0.3824074074074074, -0.3824074074074074, -0.3824074074074074, -0.3824074074074074, -0.3824074074074074]"	"[1, 1, 1, 1, 1, 1, 1, 1, 1, 1, 1, 1, 1, 1, 0]"	"[0, 0, 0, 0, 0, 0, 0, 0, 0, 0, 0, 0, 0, 0, 0]"	"[0, 0, 0, 0, 0, 0, 0, 0, 0, 0, 0, 0, 0, 0, 1]"	"[0.12446419999469072, 0.34967230004258454, 0.5078689000220038, 0.674779299995862, 0.849726400047075, 1.0497660000110045, 1.291186300048139, 1.474545000004582, 1.6996185000170954, 1.8665446999948472, 2.0663012000150047, 2.2580879000015557, 2.4498581000370905, 2.6166130999918096, 2.8248189000296406]"	15	"[0.12136819999432191, 0.3465817999676801, 0.5048381999949925, 0.6718222000054084, 0.8466365999775007, 1.0466815999825485, 1.2881244999589399, 1.471453099977225, 1.696522299956996, 1.8634488999960013, 2.063217799994163, 2.254995599971153, 2.4467780999839306, 2.6135328999953344, 2.821664299990516]"	"[0.22968059999402612, 0.412931099999696, 0.6047030999907292, 0.7796554999658838, 0.9463305999524891, 1.129669499990996, 1.346389599959366, 1.5713541999575682, 1.754655199998524, 1.9713356999563985, 2.163142599980347, 2.3631544999661855, 2.538132499961648, 2.741048800002318, 2.821668399963528]"	196.513618700032	196.519137800031	198.012745000015	198.004803900025	NA	NA	NA	NA	NA	NA	NA	33	"02"	"2024-02-27_09h18.13.575"	"BART_exp"	"2023.2.3"	122.101463812605	"2024-02-27 09h18.25.275570 +0100"	NA
"balloon.png"	18	0	26	26	4	198.012745000015	NA	NA	NA	NA	NA	NA	NA	NA	NA	NA	NA	NA	198.005055600021	198.012745000015	198.012745000015	198.012745000015	198.012745000015	198.012745000015	-0.00080020003952085	-0.00080020003952085	-0.00080020003952085	198.012745000015	200.321471999981	11	0.55	FALSE	"[0.049074074074074076, 0.049074074074074076, 0.049074074074074076, 0.049074074074074076, 0.05, 0.05, 0.05, 0.05, 0.05185185185185185, 0.05277777777777778, 0.05277777777777778]"	"[-0.3824074074074074, -0.3824074074074074, -0.3824074074074074, -0.3824074074074074, -0.3824074074074074, -0.3824074074074074, -0.3824074074074074, -0.3824074074074074, -0.3824074074074074, -0.38055555555555554, -0.38055555555555554]"	"[1, 1, 1, 1, 1, 1, 1, 1, 1, 1, 0]"	"[0, 0, 0, 0, 0, 0, 0, 0, 0, 0, 0]"	"[0, 0, 0, 0, 0, 0, 0, 0, 0, 0, 1]"	"[0.17308209999464452, 0.3983232999453321, 0.573130399978254, 0.7649169999640435, 1.0064766999566928, 1.2065684999688528, 1.3983125999802724, 1.6065981999854557, 1.8150336999678984, 2.031679699954111, 2.315236999944318]"	11	"[0.17064829997252673, 0.3958899999852292, 0.5707172999973409, 0.7624888999853283, 1.004046899965033, 1.2041398999863304, 1.3958801999688148, 1.6041816999786533, 1.8126056999899447, 2.0292571999598294, 2.31275669997558]"	"[0.28726809995714575, 0.47901519999140874, 0.6883549999911338, 0.8872688999981619, 1.0957140999962576, 1.3124273999710567, 1.504027799994219, 1.7040440999553539, 1.9207881999900565, 2.1040994999930263, 2.312760899949353]"	200.322316700011	200.327651400003	201.81975840003	201.811642899993	NA	NA	NA	NA	NA	NA	NA	33	"02"	"2024-02-27_09h18.13.575"	"BART_exp"	"2023.2.3"	122.101463812605	"2024-02-27 09h18.25.275570 +0100"	NA
"balloon.png"	110	0	27	27	25	201.81975840003	NA	NA	NA	NA	NA	NA	NA	NA	NA	NA	NA	NA	201.811857599998	201.81975840003	201.81975840003	201.81975840003	201.81975840003	201.81975840003	0.00546929996926337	0.00546929996926337	0.00546929996926337	201.81975840003	204.363133799983	13	0.65	FALSE	"[0.05277777777777778, 0.05277777777777778, 0.05277777777777778, 0.05277777777777778, 0.05277777777777778, 0.05277777777777778, 0.05277777777777778, 0.05092592592592592, 0.05, 0.05, 0.049074074074074076, 0.049074074074074076, 0.05]"	"[-0.38055555555555554, -0.38055555555555554, -0.38055555555555554, -0.38055555555555554, -0.3814814814814815, -0.3824074074074074, -0.3824074074074074, -0.3851851851851852, -0.3851851851851852, -0.3851851851851852, -0.3851851851851852, -0.3851851851851852, -0.387037037037037]"	"[1, 1, 1, 1, 1, 1, 1, 1, 1, 1, 1, 1, 0]"	"[0, 0, 0, 0, 0, 0, 0, 0, 0, 0, 0, 0, 0]"	"[0, 0, 0, 0, 0, 0, 0, 0, 0, 0, 0, 0, 1]"	"[0.13346739998087287, 0.31660229997942224, 0.5088610000093468, 0.692200799996499, 0.8922172000166029, 1.0923988000140525, 1.2754642000072636, 1.4836126000154763, 1.6919579000095837, 1.892025500012096, 2.0836797999800183, 2.3337728999904357, 2.550170300004538]"	13	"[0.13097539998125285, 0.31410749995848164, 0.5064193999860436, 0.6897790999501012, 0.8898207999882288, 1.0900331999873742, 1.2733266999712214, 1.4811187000013888, 1.689530499977991, 1.8896258999593556, 2.0811937999678776, 2.331287399982102, 2.547623799997382]"	"[0.23945009999442846, 0.4395180999999866, 0.5974631999852136, 0.7974052999634296, 0.9974196999683045, 1.2061177999712527, 1.3892723999451846, 1.5724642999703065, 1.7890836999868043, 1.9891245999606326, 2.1808728999458253, 2.455831599945668, 2.5476295999833383]"	204.364011000027	204.369560200023	205.862418100005	205.853537100018	NA	NA	NA	NA	NA	NA	NA	33	"02"	"2024-02-27_09h18.13.575"	"BART_exp"	"2023.2.3"	122.101463812605	"2024-02-27 09h18.25.275570 +0100"	NA
"balloon.png"	71	0	28	28	16	205.862418100005	NA	NA	NA	NA	NA	NA	NA	NA	NA	NA	NA	NA	205.853754999989	205.862418100005	205.862418100005	205.862418100005	205.862418100005	205.862418100005	0.00569230003748089	0.00569230003748089	0.00569230003748089	205.862418100005	208.605057200009	15	0.75	FALSE	"[0.05, 0.049074074074074076, 0.049074074074074076, 0.05, 0.05, 0.05, 0.05, 0.05, 0.05, 0.05, 0.05, 0.05, 0.05, 0.05, 0.05]"	"[-0.387037037037037, -0.387037037037037, -0.387037037037037, -0.387037037037037, -0.387037037037037, -0.387037037037037, -0.387037037037037, -0.387037037037037, -0.387037037037037, -0.387037037037037, -0.387037037037037, -0.387037037037037, -0.387037037037037, -0.387037037037037, -0.387037037037037]"	"[1, 1, 1, 1, 1, 1, 1, 1, 1, 1, 1, 1, 1, 1, 0]"	"[0, 0, 0, 0, 0, 0, 0, 0, 0, 0, 0, 0, 0, 0, 0]"	"[0, 0, 0, 0, 0, 0, 0, 0, 0, 0, 0, 0, 0, 0, 1]"	"[0.20851989998482168, 0.3832898000255227, 0.600044600025285, 0.792052100005094, 0.9667920999927446, 1.150094699987676, 1.3418444000417367, 1.5252304000314325, 1.725229700037744, 1.9252768000005744, 2.1252762000076473, 2.3168437000131235, 2.5086426000343636, 2.650515799992718, 2.7502394000184722]"	15	"[0.20549770002253354, 0.3802723999833688, 0.597023900016211, 0.7890461999922991, 0.9637707999791019, 1.1470747999846935, 1.338823699974455, 1.5222136999946088, 1.7222246000310406, 1.9222564999945462, 2.1222569000092335, 2.3138248000177555, 2.505716899991967, 2.6475099999806844, 2.747156299999915]"	"[0.2968887999886647, 0.4886821000254713, 0.6635380000225268, 0.8636412000050768, 1.0720514000277035, 1.246944100013934, 1.4470811000210233, 1.6636658000061288, 1.8470819999929518, 2.0470525000127964, 2.2388036000193097, 2.422176300024148, 2.6056171000236645, 2.7137726999935694, 2.7471605999744497]"	208.606146300037	208.611651899992	210.104026800022	210.095726400032	NA	NA	NA	NA	NA	NA	NA	33	"02"	"2024-02-27_09h18.13.575"	"BART_exp"	"2023.2.3"	122.101463812605	"2024-02-27 09h18.25.275570 +0100"	NA
"balloon.png"	62	0	29	29	14	210.104026800022	NA	NA	NA	NA	NA	NA	NA	NA	NA	NA	NA	NA	210.095942699991	210.104026800022	210.104026800022	210.104026800022	210.104026800022	210.104026800022	0.00553250004304572	0.00553250004304572	0.00553250004304572	210.104026800022	213.922375400027	20	1	FALSE	"[0.05, 0.05, 0.05, 0.05, 0.05, 0.05, 0.05, 0.05, 0.05, 0.05, 0.05, 0.05, 0.05, 0.05, 0.05, 0.05, 0.05, 0.05, 0.049074074074074076, 0.049074074074074076]"	"[-0.387037037037037, -0.387037037037037, -0.387037037037037, -0.387037037037037, -0.387037037037037, -0.387037037037037, -0.387037037037037, -0.387037037037037, -0.387037037037037, -0.387037037037037, -0.387037037037037, -0.387037037037037, -0.387037037037037, -0.387037037037037, -0.387037037037037, -0.387037037037037, -0.387037037037037, -0.387037037037037, -0.387037037037037, -0.38981481481481484]"	"[1, 1, 1, 1, 1, 1, 1, 1, 1, 1, 1, 1, 1, 1, 1, 1, 1, 1, 1, 0]"	"[0, 0, 0, 0, 0, 0, 0, 0, 0, 0, 0, 0, 0, 0, 0, 0, 0, 0, 0, 0]"	"[0, 0, 0, 0, 0, 0, 0, 0, 0, 0, 0, 0, 0, 0, 0, 0, 0, 0, 0, 1]"	"[0.150195199996233, 0.33384790003765374, 0.5337095999857411, 0.7081324000027962, 0.8747807000181638, 1.0839099999866448, 1.2748716000351124, 1.4581828000373207, 1.6749441000283696, 1.8667864000308327, 2.0500113000161946, 2.2500137999886647, 2.458295200020075, 2.658337400003802, 2.849950200004969, 3.0252729000058025, 3.208629100001417, 3.3918992999824695, 3.6001178000005893, 3.825308400031645]"	20	"[0.1474885999923572, 0.33116529998369515, 0.5310061000054702, 0.7054201999562792, 0.8720791999949142, 1.0812674000044353, 1.272159099986311, 1.4554715999984182, 1.6722340999986045, 1.8641787999658845, 2.0473677999689244, 2.2473463999922387, 2.4555830999743193, 2.6556296999915503, 2.8472687999601476, 3.0225805999943987, 3.205934099969454, 3.389196100004483, 3.597452199959662, 3.8225424999836832]"	"[0.23913079994963482, 0.4219762999564409, 0.6053822999820113, 0.7976659999694675, 0.9808454999583773, 1.1810435999650508, 1.380694899999071, 1.5720276999636553, 1.7720863999566063, 1.9720735999871977, 2.155434599961154, 2.3388033999945037, 2.5304881999618374, 2.7304942999617197, 2.9222741999546997, 3.113965799973812, 3.297147999983281, 3.5304826999781653, 3.7222689999616705, 3.8225468999589793]"	213.923458300007	213.928589800023	215.420409800019	215.414393400017	NA	NA	NA	NA	NA	NA	NA	33	"02"	"2024-02-27_09h18.13.575"	"BART_exp"	"2023.2.3"	122.101463812605	"2024-02-27 09h18.25.275570 +0100"	NA
NA	NA	NA	NA	NA	NA	NA	NA	NA	NA	NA	NA	NA	NA	NA	NA	NA	NA	NA	NA	NA	NA	NA	NA	NA	NA	NA	NA	NA	NA	NA	NA	NA	NA	NA	NA	NA	NA	NA	NA	NA	NA	NA	NA	NA	NA	215.414447700023	215.420409800019	215.420409800019	226.171822500008	"space"	10.7450822999817	"None"	33	"02"	"2024-02-27_09h18.13.575"	"BART_exp"	"2023.2.3"	122.101463812605	"2024-02-27 09h18.25.275570 +0100"	NA
